Sample, Time, ACCX, ACCY, ACCZ, MAGX, MAGY, MAGZ, GYRX, GYRY, GYRZ
0,55819.137000,-24.964,33.391,-247.104,-64.143,-365.689,-358.290,-34.500,32.760,17.780
1,55819.163000,-23.006,32.379,-247.104,-59.336,-367.674,-352.466,-23.500,22.760,25.780
2,55819.181000,-23.985,32.379,-248.093,-62.160,-366.673,-359.308,-20.500,-2.240,29.780
3,55819.206000,-25.943,31.368,-246.116,-61.259,-365.719,-355.387,-13.500,-26.240,30.780
4,55819.243000,-27.901,31.368,-246.116,-63.217,-361.829,-357.326,-10.500,-29.240,29.780
5,55819.262000,-29.859,31.368,-246.116,-63.252,-361.831,-355.356,-5.500,-13.240,26.780
6,55819.278000,-29.859,34.403,-244.139,-62.204,-363.772,-358.326,-6.500,-1.240,23.780
7,55819.297000,-27.901,33.391,-244.139,-57.362,-367.691,-353.485,-4.500,-7.240,19.780
8,55819.311000,-26.922,32.379,-243.151,-68.100,-366.624,-355.265,-4.500,-31.240,16.780
9,55819.333000,-27.901,32.379,-245.127,-66.212,-366.646,-351.361,-4.500,-62.240,13.780
10,55819.356000,-32.795,33.391,-244.139,-59.345,-368.643,-351.480,-1.500,-76.240,4.780
11,55819.378000,-33.774,31.368,-245.127,-64.212,-365.693,-354.351,2.500,-65.240,-4.220
12,55819.393000,-33.774,33.391,-247.104,-63.277,-366.672,-351.413,3.500,-58.240,-11.220
13,55819.407000,-32.795,34.403,-244.139,-61.258,-369.590,-353.414,7.500,-39.240,-24.220
14,55819.435000,-31.816,33.391,-243.151,-60.314,-369.601,-351.462,4.500,-23.240,-32.220
15,55819.452000,-28.880,33.391,-240.185,-66.169,-367.611,-353.329,3.500,-18.240,-37.220
16,55819.477000,-30.837,34.403,-243.151,-62.307,-367.650,-350.444,4.500,-0.240,-39.220
17,55819.497000,-27.901,33.391,-243.151,-66.169,-365.675,-354.316,7.500,10.760,-36.220
18,55819.518000,-24.964,33.391,-241.174,-56.453,-367.704,-349.563,10.500,1.760,-36.220
19,55819.535000,-24.964,33.391,-243.151,-55.414,-366.742,-353.521,8.500,-13.240,-29.220
20,55819.563000,-26.922,31.368,-241.174,-61.337,-366.691,-350.462,10.500,-1.240,-17.220
21,55819.582000,-27.901,33.391,-240.185,-63.215,-369.573,-353.379,13.500,9.760,-14.220
22,55819.602000,-24.964,32.379,-241.174,-60.385,-365.734,-349.496,13.500,17.760,-11.220
23,55819.622000,-23.985,31.368,-241.174,-58.340,-369.618,-352.481,7.500,-6.240,-13.220
24,55819.644000,-26.922,30.356,-240.185,-54.392,-369.652,-354.520,4.500,-13.240,-12.220
25,55819.662000,-28.880,30.356,-239.197,-56.349,-369.634,-354.485,5.500,6.760,-13.220
26,55819.689000,-25.943,29.344,-238.208,-58.349,-368.651,-352.482,0.500,1.760,-11.220
27,55819.705000,-26.922,29.344,-238.208,-56.375,-368.668,-353.501,-2.500,-14.240,-4.220
28,55819.722000,-30.837,30.356,-240.185,-63.215,-369.573,-353.379,-0.500,0.760,-5.220
29,55819.745000,-31.816,30.356,-243.151,-55.405,-367.709,-353.520,0.500,7.760,-7.220
30,55819.767000,-29.859,28.332,-242.162,-57.406,-366.726,-351.516,-1.500,5.760,-20.220
31,55819.792000,-28.880,29.344,-242.162,-61.302,-368.625,-351.445,-9.500,-16.240,-33.220
32,55819.807000,-26.922,29.344,-242.162,-53.404,-370.628,-354.536,-19.500,-38.240,-41.220
33,55819.824000,-28.880,30.356,-242.162,-54.461,-367.720,-351.567,-21.500,-45.240,-45.220
34,55819.849000,-31.816,30.356,-242.162,-59.267,-369.606,-355.418,-18.500,-15.240,-41.220
35,55819.866000,-24.964,30.356,-242.162,-58.367,-366.716,-352.484,-12.500,-11.240,-37.220
36,55819.892000,-23.006,31.368,-241.174,-55.378,-370.611,-353.517,-11.500,-17.240,-29.220
37,55819.917000,-25.943,33.391,-240.185,-57.371,-368.660,-352.499,-12.500,-25.240,-21.220
38,55819.936000,-25.943,32.379,-240.185,-61.293,-367.657,-352.431,-10.500,-22.240,-15.220
39,55819.965000,-26.922,33.391,-241.174,-60.297,-371.536,-351.460,-5.500,10.760,-4.220
40,55819.979000,-27.901,35.415,-242.162,-60.297,-371.536,-351.460,-0.500,24.760,0.780
41,55819.997000,-28.880,32.379,-240.185,-56.400,-369.637,-351.531,4.500,50.760,3.780
42,55820.20000,-30.837,28.332,-247.104,-61.277,-365.720,-354.402,13.500,91.760,13.780
43,55820.28000,-26.922,30.356,-245.127,-60.237,-368.629,-356.386,14.500,103.760,16.780
44,55820.48000,-26.922,33.391,-246.116,-57.345,-367.690,-354.470,16.500,46.760,1.780
45,55820.62000,-27.901,31.368,-246.116,-60.281,-365.728,-355.404,18.500,25.760,-3.220
46,55820.95000,-24.964,33.391,-245.127,-58.351,-362.843,-355.442,16.500,21.760,-5.220
47,55820.112000,-25.943,33.391,-244.139,-58.236,-369.612,-358.389,15.500,-14.240,-9.220
48,55820.135000,-26.922,33.391,-241.174,-56.358,-366.731,-355.473,12.500,-31.240,-2.220
49,55820.157000,-27.901,31.368,-241.174,-55.354,-365.770,-357.461,17.500,-16.240,6.780
50,55820.174000,-25.943,33.391,-241.174,-50.504,-366.785,-354.592,20.500,-24.240,6.780
51,55820.192000,-27.901,31.368,-238.208,-58.306,-367.680,-355.437,17.500,-45.240,7.780
52,55820.216000,-29.859,31.368,-238.208,-56.384,-367.700,-353.502,14.500,-21.240,8.780
53,55820.244000,-28.880,32.379,-238.208,-58.325,-361.874,-357.413,11.500,6.760,4.780
54,55820.262000,-27.901,31.368,-236.232,-56.427,-366.735,-351.534,6.500,13.760,-1.220
55,55820.281000,-24.964,29.344,-236.232,-54.419,-364.814,-355.509,0.500,14.760,-1.220
56,55820.322000,-23.985,29.344,-234.255,-52.366,-367.730,-359.480,-13.500,-4.240,-2.220
57,55820.323000,-24.964,32.379,-236.232,-56.384,-367.700,-353.502,-25.500,-24.240,-2.220
58,55820.342000,-29.859,31.368,-240.185,-60.237,-368.629,-356.386,-27.500,-17.240,1.780
59,55820.359000,-28.880,32.379,-240.185,-55.362,-366.739,-356.475,-23.500,17.760,2.780
60,55820.377000,-27.901,31.368,-244.139,-52.427,-366.765,-356.527,-22.500,30.760,3.780
61,55820.406000,-26.922,31.368,-244.139,-52.452,-367.735,-354.556,-23.500,12.760,-0.220
62,55820.420000,-27.901,31.368,-244.139,-58.271,-369.614,-356.420,-22.500,-11.240,-7.220
63,55820.442000,-26.922,34.403,-243.151,-58.314,-368.649,-354.451,-23.500,-19.240,-10.220
64,55820.465000,-27.901,31.368,-244.139,-60.281,-365.728,-355.404,-24.500,-43.240,-12.220
65,55820.484000,-29.859,31.368,-246.116,-55.370,-369.643,-354.502,-23.500,-35.240,-11.220
66,55820.504000,-28.880,32.379,-246.116,-55.353,-369.642,-355.487,-13.500,-27.240,-9.220
67,55820.527000,-27.901,31.368,-247.104,-55.370,-369.643,-354.502,-4.500,-18.240,-8.220
68,55820.549000,-27.901,34.403,-246.116,-57.336,-368.658,-354.469,-0.500,-29.240,-8.220
69,55820.567000,-27.901,33.391,-243.151,-56.331,-369.633,-355.470,3.500,-33.240,-8.220
70,55820.588000,-30.837,32.379,-243.151,-55.379,-366.740,-355.490,7.500,-12.240,-6.220
71,55820.605000,-28.880,32.379,-244.139,-55.353,-369.642,-355.487,7.500,1.760,-5.220
72,55820.626000,-26.922,31.368,-240.185,-57.406,-366.726,-351.516,6.500,4.760,-6.220
73,55820.647000,-26.922,31.368,-243.151,-58.323,-367.681,-354.452,6.500,-13.240,-9.220
74,55820.683000,-26.922,30.356,-243.151,-56.443,-370.607,-348.576,8.500,-24.240,-7.220
75,55820.702000,-26.922,33.391,-240.185,-61.277,-365.720,-354.402,12.500,-23.240,-4.220
76,55820.721000,-29.859,29.344,-241.174,-52.487,-365.801,-353.573,17.500,9.760,5.780
77,55820.721000,-26.922,30.356,-240.185,-55.317,-373.511,-355.483,13.500,13.760,3.780
78,55820.757000,-24.964,32.379,-240.185,-55.370,-369.643,-354.502,3.500,-20.240,-3.220
79,55820.771000,-28.880,30.356,-241.174,-56.374,-370.603,-352.515,-0.500,-16.240,-1.220
80,55820.793000,-29.859,30.356,-242.162,-59.345,-368.643,-351.480,0.500,-4.240,-2.220
81,55820.817000,-28.880,29.344,-242.162,-53.482,-371.600,-349.611,2.500,4.760,-2.220
82,55820.836000,-26.922,30.356,-244.139,-52.408,-372.572,-354.551,3.500,-9.240,-3.220
83,55820.856000,-31.816,32.379,-243.151,-61.346,-363.788,-351.450,4.500,-4.240,-3.220
84,55820.878000,-28.880,30.356,-242.162,-57.397,-367.693,-351.515,6.500,5.760,1.780
85,55820.900000,-26.922,30.356,-243.151,-56.392,-370.604,-351.530,3.500,-16.240,2.780
86,55820.922000,-29.859,30.356,-245.127,-59.398,-364.774,-350.499,5.500,-10.240,2.780
87,55820.940000,-29.859,29.344,-244.139,-57.353,-368.659,-353.484,13.500,4.760,1.780
88,55820.962000,-27.901,29.344,-243.151,-55.387,-371.580,-352.531,11.500,2.760,-6.220
89,55820.984000,-26.922,31.368,-242.162,-54.408,-371.589,-352.548,8.500,-16.240,-9.220
90,55821.0,-30.837,30.356,-239.197,-52.444,-368.702,-354.555,3.500,-7.240,-4.220
91,55821.22000,-27.901,31.368,-241.174,-57.353,-368.659,-353.484,5.500,2.760,-0.220
92,55821.40000,-27.901,28.332,-240.185,-58.305,-371.552,-353.464,3.500,-3.240,-3.220
93,55821.53000,-27.901,29.344,-240.185,-54.443,-369.655,-351.565,3.500,-11.240,-6.220
94,55821.72000,-29.859,30.356,-238.208,-58.314,-370.585,-353.465,1.500,-5.240,-6.220
95,55821.100000,-27.901,30.356,-240.185,-57.397,-365.757,-352.502,-3.500,-8.240,-7.220
96,55821.127000,-29.859,31.368,-239.197,-54.418,-368.685,-353.536,-6.500,-13.240,-5.220
97,55821.159000,-28.880,27.320,-242.162,-54.321,-373.519,-356.485,-4.500,-6.240,-4.220
98,55821.174000,-28.880,30.356,-243.151,-52.469,-369.671,-352.585,-7.500,-7.240,-7.220
99,55821.182000,-31.816,29.344,-244.139,-59.311,-366.705,-354.436,-9.500,-23.240,-11.220
100,55821.205000,-29.859,28.332,-247.104,-51.499,-372.585,-350.630,-2.500,-3.240,-7.220
101,55821.222000,-25.943,31.368,-245.127,-50.486,-372.591,-352.616,2.500,11.760,-4.220
102,55821.239000,-27.901,31.368,-244.139,-49.525,-370.666,-352.636,10.500,-10.240,-4.220
103,55821.257000,-29.859,29.344,-244.139,-52.443,-370.638,-353.569,19.500,1.760,2.780
104,55821.284000,-28.880,29.344,-242.162,-57.397,-367.693,-351.515,21.500,27.760,7.780
105,55821.307000,-25.943,30.356,-240.185,-55.326,-372.544,-355.484,20.500,26.760,5.780
106,55821.325000,-28.880,29.344,-239.197,-54.382,-372.555,-353.532,15.500,-3.240,4.780
107,55821.345000,-29.859,27.320,-240.185,-48.572,-371.644,-350.682,12.500,-8.240,0.780
108,55821.372000,-27.901,29.344,-239.197,-53.456,-370.631,-351.582,7.500,0.760,3.780
109,55821.398000,-139.503,115.352,74.131,-57.345,-367.690,-354.470,3.500,-6.240,-1.220
110,55821.418000,-101.323,-258.024,-195.707,-59.436,-383.167,-338.663,-145.500,-1586.240,136.780
111,55821.446000,-110.134,105.233,-208.556,-64.456,-391.840,-326.751,-304.500,-843.240,-145.220
112,55821.465000,-112.092,9.107,-246.116,-66.396,-393.757,-326.714,-45.500,-12.240,-208.220
113,55821.483000,-103.281,68.806,-256.000,-60.397,-385.092,-338.644,274.500,995.760,-114.220
114,55821.501000,9.300,-67.794,-251.058,-63.283,-375.384,-346.480,342.500,1249.760,-37.220
115,55821.516000,-38.669,99.162,-246.116,-64.238,-366.663,-352.380,-285.500,683.760,-79.220
116,55821.538000,21.048,48.569,-269.838,-66.152,-365.674,-355.301,-36.500,406.760,-96.220
117,55821.558000,-8.321,37.439,-267.861,-63.260,-364.736,-353.384,-92.500,-211.240,-127.220
118,55821.581000,-40.627,42.498,-268.849,-63.241,-370.542,-351.409,-49.500,-224.240,-97.220
119,55821.607000,-30.837,43.510,-266.873,-58.340,-371.554,-351.494,-5.500,-49.240,-53.220
120,55821.621000,-31.816,41.486,-262.919,-58.313,-372.520,-352.478,46.500,75.760,-21.220
121,55821.643000,-15.174,41.486,-256.988,-60.332,-367.666,-351.464,72.500,72.760,-2.220
122,55821.661000,-19.090,39.462,-250.069,-61.249,-370.558,-353.413,83.500,18.760,7.780
123,55821.683000,-21.048,37.439,-245.127,-52.487,-367.737,-352.587,86.500,-54.240,8.780
124,55821.702000,-28.880,38.451,-243.151,-57.344,-371.562,-352.496,89.500,-57.240,17.780
125,55821.716000,-32.795,35.415,-239.197,-47.534,-366.810,-356.613,100.500,36.760,40.780
126,55821.745000,-27.901,33.391,-238.208,-49.499,-369.696,-354.606,102.500,130.760,61.780
127,55821.765000,-20.069,33.391,-233.266,-60.280,-367.664,-354.418,99.500,136.760,69.780
128,55821.787000,-19.090,32.379,-230.301,-60.272,-366.695,-355.404,87.500,44.760,69.780
129,55821.804000,-21.048,29.344,-232.278,-56.358,-366.731,-355.473,66.500,-41.240,61.780
130,55821.827000,-25.943,30.356,-234.255,-53.430,-369.662,-353.552,45.500,-59.240,48.780
131,55821.847000,-29.859,28.332,-234.255,-53.343,-371.592,-357.489,37.500,-48.240,42.780
132,55821.865000,-244.252,-39.462,-69.189,-60.308,-362.826,-355.407,-108.500,33.760,-40.220
133,55821.882000,-17.132,-273.202,-204.602,-65.221,-381.172,-344.470,-929.500,-1037.240,356.780
134,55821.905000,-120.902,89.043,-229.313,-64.320,-384.089,-338.576,-147.500,-557.240,-111.220
135,55821.930000,-84.681,24.285,-250.069,-62.373,-379.268,-340.585,218.500,208.760,-160.220
136,55821.950000,-67.059,58.688,-252.046,-56.348,-373.506,-352.512,382.500,731.760,-3.220
137,55821.972000,-12.237,-9.107,-250.069,-63.224,-368.605,-353.380,-133.500,607.760,17.780
138,55821.990000,-29.859,55.652,-256.000,-67.096,-363.728,-358.240,-87.500,378.760,-95.220
139,55822.12000,11.258,68.806,-264.896,-62.196,-360.868,-360.299,-26.500,243.760,-61.220
140,55822.37000,-9.300,29.344,-260.942,-63.129,-367.632,-359.290,-50.500,-161.240,-67.220
141,55822.58000,-34.753,42.498,-261.931,-62.247,-362.807,-356.358,-16.500,-106.240,-45.220
142,55822.61000,-26.922,39.462,-260.942,-59.259,-364.766,-358.377,21.500,-2.240,-16.220
143,55822.87000,-23.985,39.462,-255.012,-54.314,-366.744,-360.431,52.500,66.760,4.780
144,55822.109000,-12.237,38.451,-247.104,-64.135,-362.785,-360.262,62.500,-4.240,29.780
145,55822.132000,-19.090,38.451,-242.162,-61.278,-361.848,-356.376,66.500,-69.240,42.780
146,55822.157000,-26.922,35.415,-240.185,-56.350,-363.827,-357.445,65.500,-40.240,47.780
147,55822.176000,-29.859,34.403,-238.208,-58.307,-365.745,-356.424,61.500,15.760,47.780
148,55822.191000,-25.943,33.391,-235.243,-62.177,-364.739,-359.310,59.500,26.760,45.780
149,55822.213000,-23.985,31.368,-234.255,-53.405,-366.756,-356.509,48.500,8.760,35.780
150,55822.247000,-25.943,32.379,-237.220,-59.285,-365.736,-356.407,39.500,-16.240,23.780
151,55822.260000,-27.901,33.391,-238.208,-59.250,-367.670,-357.389,33.500,-6.240,21.780
152,55822.276000,-26.922,32.379,-241.174,-61.199,-366.683,-358.340,28.500,8.760,18.780
153,55822.296000,61.185,-197.312,-186.811,-55.328,-364.801,-359.431,-64.500,-291.240,295.780
154,55822.316000,-154.187,50.593,-242.162,-63.258,-372.479,-349.437,-294.500,-869.240,-243.220
155,55822.342000,-32.795,30.356,-241.174,-60.288,-372.503,-351.459,37.500,161.760,-74.220
156,55822.365000,-54.333,55.652,-243.151,-66.229,-366.647,-350.376,91.500,234.760,-60.220
157,55822.367000,-27.901,9.107,-258.965,-65.131,-362.777,-359.260,182.500,351.760,28.780
158,55822.397000,-9.300,72.854,-250.069,-62.178,-360.867,-361.283,-74.500,399.760,128.780
159,55822.416000,-7.342,54.640,-268.849,-67.045,-359.853,-363.167,-56.500,81.760,-79.220
160,55822.443000,-20.069,36.427,-264.896,-68.023,-361.780,-362.163,-40.500,-94.240,-64.220
161,55822.486000,-32.795,44.522,-261.931,-67.035,-364.692,-361.193,-29.500,-95.240,-47.220
162,55822.500000,-22.027,41.486,-259.954,-65.175,-359.876,-358.278,13.500,24.760,-21.220
163,55822.513000,-17.132,43.510,-255.012,-64.153,-360.850,-360.264,40.500,29.760,-2.220
164,55822.522000,-14.195,42.498,-248.093,-63.191,-362.796,-358.310,55.500,-8.240,8.780
165,55822.545000,-19.090,41.486,-244.139,-56.272,-362.854,-362.370,57.500,-36.240,13.780
166,55822.571000,-23.006,37.439,-240.185,-59.260,-362.831,-359.364,63.500,-55.240,22.780
167,55822.593000,-23.985,36.427,-239.197,-58.273,-359.935,-361.353,65.500,-28.240,33.780
168,55822.608000,-22.027,37.439,-237.220,-57.251,-362.845,-362.353,63.500,-3.240,44.780
169,55822.631000,-23.985,33.391,-236.232,-56.324,-364.793,-358.429,64.500,-7.240,46.780
170,55822.649000,-23.985,32.379,-238.208,-55.329,-362.865,-360.418,56.500,-16.240,43.780
171,55822.668000,-25.943,33.391,-240.185,-59.243,-362.830,-360.349,43.500,-27.240,34.780
172,55822.686000,-24.964,33.391,-241.174,-61.190,-365.715,-359.326,17.500,-11.240,10.780
173,55822.708000,123.839,-250.941,-238.208,-69.198,-372.429,-345.394,-680.500,690.760,-311.220
174,55822.731000,-186.493,83.984,-225.359,-71.231,-379.191,-337.475,-438.500,-1580.240,-278.220
175,55822.753000,-123.839,24.285,-262.919,-69.232,-376.303,-341.451,120.500,-136.240,-169.220
176,55822.776000,-80.765,30.356,-257.977,-58.330,-376.393,-349.520,453.500,848.760,-180.220
177,55822.796000,41.606,-22.261,-241.174,-65.140,-359.874,-360.248,-33.500,1222.760,193.780
178,55822.818000,-29.859,125.470,-242.162,-68.016,-356.940,-365.122,-198.500,334.760,-70.220
179,55822.836000,21.048,55.652,-267.861,-69.090,-354.033,-361.169,11.500,45.760,-76.220
180,55822.858000,-9.300,36.427,-264.896,-66.161,-362.771,-356.288,-81.500,-430.240,-118.220
181,55822.887000,-46.501,48.569,-264.896,-63.251,-363.767,-354.370,-18.500,-180.240,-43.220
182,55822.915000,-31.816,45.534,-260.942,-63.199,-363.764,-357.324,4.500,-64.240,-23.220
183,55822.933000,-30.837,46.545,-257.977,-65.157,-361.811,-358.276,50.500,75.760,-1.220
184,55822.937000,-13.216,42.498,-250.069,-62.256,-361.839,-356.359,83.500,142.760,26.780
185,55822.957000,-12.237,42.498,-242.162,-61.243,-361.846,-358.345,85.500,41.760,47.780
186,55822.975000,-18.111,39.462,-238.208,-62.230,-360.870,-358.329,88.500,-41.240,40.780
187,55823.2000,-24.964,37.439,-235.243,-59.164,-363.793,-364.287,77.500,-26.240,43.780
188,55823.22000,-23.985,34.403,-235.243,-59.295,-360.897,-358.381,66.500,55.760,52.780
189,55823.46000,-19.090,36.427,-233.266,-59.225,-364.764,-360.347,59.500,77.760,54.780
190,55823.68000,-21.048,35.415,-231.290,-63.165,-361.827,-360.280,56.500,77.760,53.780
191,55823.87000,-20.069,34.403,-231.290,-65.062,-360.837,-364.186,44.500,88.760,51.780
192,55823.102000,-19.090,35.415,-234.255,-60.213,-361.852,-361.317,26.500,89.760,55.780
193,55823.123000,-17.132,36.427,-237.220,-67.064,-355.983,-364.156,12.500,70.760,64.780
194,55823.146000,-22.027,36.427,-243.151,-64.145,-356.010,-363.223,15.500,68.760,81.780
195,55823.166000,-23.985,41.486,-251.058,-60.152,-360.881,-365.257,29.500,68.760,93.780
196,55823.185000,-36.711,51.605,-266.873,-63.990,-356.002,-372.086,70.500,67.760,124.780
197,55823.203000,-51.396,56.664,-290.595,-58.266,-353.160,-365.299,149.500,62.760,159.780
198,55823.230000,-68.038,57.676,-318.270,-66.017,-352.116,-370.086,274.500,52.760,174.780
199,55823.252000,-97.407,58.688,-340.015,-58.092,-357.021,-373.174,339.500,65.760,177.780
200,55823.272000,-108.176,59.700,-357.807,-56.223,-353.172,-370.258,477.500,-5.240,132.780
201,55823.290000,-116.008,69.818,-373.622,-54.274,-356.094,-368.320,624.500,-147.240,10.780
202,55823.305000,-130.692,68.806,-373.622,-45.397,-360.042,-370.441,747.500,-212.240,-136.220
203,55823.322000,-126.776,68.806,-379.552,-32.737,-363.065,-365.739,867.500,-225.240,-314.220
204,55823.345000,-116.987,66.783,-376.587,-19.982,-363.179,-367.934,990.500,-173.240,-474.220
205,55823.361000,-107.197,67.794,-375.598,5.495,-367.280,-368.380,1130.500,-46.240,-569.220
206,55823.378000,-79.786,65.771,-367.691,16.276,-371.248,-367.582,1286.500,-4.240,-649.220
207,55823.403000,-52.375,61.723,-353.853,47.580,-374.437,-366.163,1362.500,-47.240,-750.220
208,55823.426000,-40.627,51.605,-334.085,56.317,-372.585,-363.366,1509.500,-146.240,-797.220
209,55823.446000,-23.985,38.451,-310.363,87.560,-376.745,-358.007,1589.500,-282.240,-898.220
210,55823.468000,-11.258,32.379,-287.629,110.015,-380.824,-353.478,1659.500,-384.240,-1003.220
211,55823.501000,-11.258,23.273,-261.931,147.925,-380.218,-340.367,1694.500,-384.240,-1084.220
212,55823.530000,-7.342,16.190,-240.185,182.892,-382.488,-325.231,1710.500,-406.240,-1167.220
213,55823.549000,-0.489,-13.154,-175.938,195.421,-380.679,-315.611,1702.500,-448.240,-1266.220
214,55823.557000,-6.363,-27.320,-156.170,233.323,-381.041,-301.514,1634.500,-334.240,-1327.220
215,55823.582000,14.195,-43.510,-132.448,253.687,-372.527,-295.978,1543.500,-98.240,-1355.220
216,55823.600000,25.943,-63.747,-117.622,285.664,-365.095,-282.770,1499.500,-32.240,-1355.220
217,55823.622000,34.753,-76.901,-103.784,303.146,-360.423,-278.162,1399.500,44.760,-1312.220
218,55823.635000,55.312,-99.162,-74.131,332.090,-346.194,-262.940,1291.500,208.760,-1243.220
219,55823.652000,73.912,-114.340,-57.328,357.311,-329.983,-259.467,1150.500,351.760,-1138.220
220,55823.675000,102.302,-135.589,-47.444,360.045,-319.375,-253.621,979.500,387.760,-997.220
221,55823.697000,118.945,-145.708,-47.444,379.414,-312.788,-246.096,783.500,148.760,-862.220
222,55823.720000,111.113,-160.885,-46.456,390.990,-308.065,-239.415,589.500,-121.240,-711.220
223,55823.742000,96.428,-163.921,-50.409,406.464,-305.314,-230.832,391.500,-146.240,-544.220
224,55823.760000,96.428,-165.945,-51.398,402.540,-300.439,-232.737,309.500,-90.240,-458.220
225,55823.776000,101.323,-166.957,-48.432,416.169,-298.632,-230.027,161.500,2.760,-291.220
226,55823.799000,98.386,-167.968,-46.456,412.307,-298.594,-232.912,14.500,35.760,-144.220
227,55823.817000,103.281,-172.016,-44.479,410.288,-293.740,-231.898,-150.500,83.760,-3.220
228,55823.840000,103.281,-168.980,-45.467,404.521,-293.680,-237.702,-350.500,52.760,115.780
229,55823.860000,92.512,-159.874,-55.351,403.691,-300.439,-242.602,-552.500,11.760,220.780
230,55823.882000,93.491,-150.767,-51.398,391.143,-298.377,-253.211,-731.500,108.760,314.780
231,55823.905000,90.554,-133.565,-40.525,387.377,-299.301,-261.019,-921.500,222.760,399.780
232,55823.922000,98.386,-124.459,-38.548,362.265,-300.987,-278.293,-1130.500,305.760,497.780
233,55823.965000,106.218,-117.375,-55.351,361.452,-303.873,-286.151,-1236.500,289.760,545.780
234,55823.978000,95.449,-95.115,-59.305,335.484,-311.350,-307.341,-1427.500,274.760,602.780
235,55823.997000,86.639,-75.889,-59.305,308.415,-309.147,-326.554,-1599.500,458.760,629.780
236,55824.1000,97.407,-54.640,-58.317,291.043,-303.166,-342.989,-1804.500,792.760,672.780
237,55824.20000,121.881,-36.427,-91.923,254.265,-297.965,-367.940,-1967.500,941.760,780.780
238,55824.38000,137.545,-3.036,-104.772,235.888,-291.009,-383.374,-2104.500,892.760,872.780
239,55824.66000,139.503,22.261,-112.680,189.275,-287.658,-404.212,-2241.500,717.760,981.780
240,55824.88000,127.755,49.581,-143.320,171.861,-288.455,-414.732,-2377.500,615.760,1090.780
241,55824.106000,126.776,89.043,-165.066,122.138,-281.215,-427.643,-2421.500,627.760,1142.780
242,55824.126000,109.155,121.423,-175.938,74.326,-265.285,-442.567,-2440.500,808.760,1238.780
243,55824.148000,103.281,118.387,-205.591,47.005,-258.257,-449.967,-2432.500,1147.760,1336.780
244,55824.166000,158.103,114.340,-220.417,-3.898,-244.244,-454.990,-2502.500,1143.760,1295.780
245,55824.188000,179.641,168.980,-241.174,-24.430,-238.249,-458.571,-2564.500,328.760,1189.780
246,55824.211000,93.491,209.455,-243.151,-72.576,-232.985,-448.865,-2457.500,63.760,1278.780
247,55824.236000,65.101,178.087,-254.023,-96.079,-228.901,-449.439,-2430.500,542.760,1361.780
248,55824.253000,98.386,207.431,-271.815,-142.427,-212.049,-436.825,-2452.500,570.760,1248.780
249,55824.276000,102.302,234.751,-237.220,-168.899,-207.940,-435.377,-2416.500,251.760,1204.780
250,55824.297000,70.975,231.715,-230.301,-208.387,-195.989,-420.910,-2415.500,202.760,1175.780
251,55824.320000,59.228,240.822,-243.151,-244.005,-185.044,-403.557,-2436.500,305.760,1068.780
252,55824.335000,63.143,254.988,-233.266,-261.835,-180.056,-393.403,-2458.500,451.760,961.780
253,55824.357000,97.407,263.083,-233.266,-296.605,-166.223,-370.161,-2433.500,377.760,884.780
254,55824.380000,131.671,278.261,-254.023,-310.530,-164.176,-358.104,-2367.500,-63.240,880.780
255,55824.412000,116.008,305.581,-259.954,-344.354,-156.161,-329.950,-2245.500,-514.240,981.780
256,55824.431000,76.849,318.735,-250.069,-354.399,-154.151,-315.993,-2088.500,-572.240,1091.780
257,55824.450000,37.690,307.605,-259.954,-372.541,-147.246,-289.099,-1936.500,-430.240,1146.780
258,55824.465000,11.258,291.415,-277.745,-399.446,-141.225,-264.019,-1868.500,-399.240,1123.780
259,55824.480000,-7.342,281.296,-286.641,-407.569,-139.235,-248.126,-1757.500,-503.240,896.780
260,55824.502000,-34.753,275.225,-308.386,-423.580,-136.209,-229.142,-1573.500,-631.240,635.780
261,55824.525000,-52.375,281.296,-331.120,-421.839,-137.207,-216.374,-1294.500,-494.240,471.780
262,55824.551000,-41.606,284.332,-332.108,-434.802,-137.105,-202.362,-982.500,-278.240,423.780
263,55824.567000,-26.922,285.344,-332.108,-430.014,-133.284,-198.514,-669.500,-292.240,383.780
264,55824.585000,-31.816,264.095,-324.201,-441.938,-130.283,-189.446,-379.500,-289.240,260.780
265,55824.603000,-43.564,251.953,-327.166,-442.891,-131.241,-190.413,-86.500,-140.240,127.780
266,55824.621000,-40.627,245.881,-319.259,-435.054,-132.279,-190.550,205.500,9.760,30.780
267,55824.648000,-28.880,247.905,-294.548,-443.706,-128.319,-201.231,338.500,314.760,-14.220
268,55824.668000,-13.216,248.917,-267.861,-435.835,-125.484,-205.311,580.500,495.760,-87.220
269,55824.681000,24.964,252.964,-258.965,-429.826,-125.530,-213.293,752.500,274.760,-192.220
270,55824.695000,27.901,269.154,-266.873,-427.669,-128.440,-223.172,921.500,-3.240,-266.220
271,55824.722000,1.468,278.261,-288.618,-418.559,-131.407,-239.081,1146.500,152.760,-283.220
272,55824.745000,3.426,285.344,-298.502,-415.494,-130.458,-247.012,1357.500,396.760,-304.220
273,55824.772000,23.985,304.569,-296.525,-401.346,-128.622,-273.845,1568.500,336.760,-358.220
274,55824.790000,32.795,294.451,-328.154,-383.307,-135.533,-294.829,1728.500,22.760,-599.220
275,55824.810000,19.090,308.617,-368.680,-369.382,-143.388,-303.927,1791.500,-250.240,-787.220
276,55824.827000,1.468,319.747,-370.656,-344.299,-165.837,-327.971,1960.500,-730.240,-1128.220
277,55824.845000,4.405,331.889,-354.842,-336.183,-176.539,-338.931,2192.500,-603.240,-1263.220
278,55824.872000,31.816,338.972,-331.120,-302.349,-191.328,-364.124,2433.500,-212.240,-1223.220
279,55824.892000,60.207,322.783,-287.629,-279.539,-198.291,-378.301,2653.500,-193.240,-1267.220
280,55824.908000,66.080,302.545,-264.896,-233.123,-209.332,-397.814,2771.500,-442.240,-1475.220
281,55824.932000,96.428,282.308,-258.965,-187.622,-234.880,-413.356,2761.500,-619.240,-1734.220
282,55824.950000,112.092,272.190,-244.139,-156.055,-249.668,-420.789,2762.500,-655.240,-1920.220
283,55824.977000,109.155,249.929,-199.660,-99.889,-262.736,-437.518,2791.500,-523.240,-1935.220
284,55824.995000,177.683,198.324,-170.996,-79.306,-262.921,-439.851,2843.500,-134.240,-1815.220
285,55825.3000,221.736,184.158,-157.158,-20.533,-276.034,-437.922,2788.500,-376.240,-1694.220
286,55825.22000,182.577,155.826,-167.042,10.869,-287.929,-437.480,2704.500,-1080.240,-1610.220
287,55825.56000,147.335,126.482,-170.996,64.542,-302.945,-422.660,2594.500,-1249.240,-1530.220
288,55825.65000,149.293,103.209,-165.066,86.028,-311.854,-416.139,2495.500,-1031.240,-1446.220
289,55825.92000,144.398,89.043,-155.181,134.609,-321.997,-392.375,2420.500,-1034.240,-1413.220
290,55825.110000,136.566,63.747,-137.390,187.200,-335.074,-372.617,2349.500,-1068.240,-1380.220
291,55825.137000,119.924,39.462,-123.552,209.420,-336.263,-356.273,2247.500,-1056.240,-1366.220
292,55825.160000,88.597,20.237,-112.680,257.939,-339.634,-332.516,2186.500,-934.240,-1352.220
293,55825.192000,63.143,-3.036,-93.900,276.313,-334.976,-323.002,2084.500,-461.240,-1280.220
294,55825.206000,82.723,-42.498,-75.120,313.096,-327.594,-304.957,1963.500,121.760,-1153.220
295,55825.220000,118.945,-72.854,-75.120,326.576,-319.019,-297.330,1803.500,145.760,-1066.220
296,55825.245000,113.071,-89.043,-45.467,353.548,-312.517,-277.141,1644.500,-150.240,-998.220
297,55825.265000,96.428,-108.269,-35.583,388.374,-305.117,-259.061,1471.500,-269.240,-882.220
298,55825.281000,83.702,-133.565,-22.734,393.984,-299.377,-247.354,1261.500,-89.240,-688.220
299,55825.312000,86.639,-142.672,-14.826,405.448,-295.628,-233.779,1029.500,73.760,-484.220
300,55825.322000,95.449,-161.897,-11.861,413.137,-295.707,-226.039,911.500,60.760,-401.220
301,55825.331000,101.323,-167.968,-8.896,419.839,-290.938,-220.256,657.500,-95.240,-288.220
302,55825.363000,76.849,-171.004,-27.676,423.623,-290.013,-213.433,440.500,-291.240,-186.220
303,55825.386000,48.459,-173.028,-37.560,429.450,-289.101,-211.569,311.500,-63.240,-70.220
304,55825.408000,61.185,-181.123,-22.734,431.355,-287.186,-209.636,190.500,301.760,16.780
305,55825.426000,80.765,-189.217,7.907,433.346,-287.202,-211.640,-20.500,343.760,55.780
306,55825.448000,98.386,-191.241,18.780,425.674,-289.058,-219.377,-344.500,93.760,78.780
307,55825.471000,94.470,-174.040,-0.988,423.795,-286.132,-225.254,-657.500,-175.240,145.780
308,55825.490000,80.765,-153.802,-7.907,412.279,-291.820,-234.888,-789.500,-199.240,236.780
309,55825.518000,86.639,-134.577,-0.988,406.591,-296.596,-242.658,-984.500,-36.240,286.780
310,55825.527000,92.512,-127.494,7.907,388.293,-294.474,-260.057,-1144.500,235.760,404.780
311,55825.541000,110.134,-114.340,2.965,373.850,-295.295,-272.598,-1355.500,462.760,537.780
312,55825.568000,141.461,-101.186,-21.745,352.783,-301.849,-294.860,-1601.500,386.760,665.780
313,55825.589000,149.293,-80.949,-29.653,316.977,-303.433,-315.883,-1827.500,242.760,804.780
314,55825.611000,127.755,-45.534,-36.571,301.607,-304.243,-331.361,-2029.500,568.760,1033.780
315,55825.633000,107.197,-6.071,-33.606,259.054,-298.016,-362.118,-2226.500,1249.760,1253.780
316,55825.653000,142.440,15.178,-41.514,239.847,-297.817,-382.452,-2482.500,1496.760,1301.780
317,55825.676000,201.178,46.545,-40.525,188.305,-288.617,-404.193,-2646.500,1259.760,1255.780
318,55825.685000,206.073,106.245,-55.351,154.256,-285.390,-416.393,-2934.500,412.760,1212.780
319,55825.712000,153.208,156.838,-67.212,101.659,-282.960,-430.232,-3100.500,264.760,1390.780
320,55825.735000,124.818,179.099,-95.876,67.593,-279.735,-441.446,-3238.500,871.760,1592.780
321,55825.752000,199.220,204.395,-112.680,0.029,-260.734,-447.164,-3406.500,935.760,1645.780
322,55825.785000,217.820,261.059,-153.205,-72.529,-251.373,-441.954,-3462.500,408.760,1713.780
323,55825.803000,173.767,291.415,-185.822,-105.938,-243.335,-437.434,-3430.500,337.760,1839.780
324,55825.822000,126.776,314.688,-224.371,-165.906,-229.257,-427.529,-3383.500,661.760,1838.780
325,55825.835000,130.692,328.854,-223.382,-195.541,-213.520,-419.148,-3382.500,767.760,1771.780
326,55825.864000,159.082,348.079,-256.988,-248.937,-201.456,-392.622,-3378.500,446.760,1596.780
327,55825.879000,130.692,384.506,-311.351,-271.764,-194.494,-377.459,-3288.500,113.760,1579.780
328,55825.900000,74.891,405.755,-322.224,-318.441,-173.788,-348.108,-3085.500,368.760,1681.780
329,55825.922000,71.954,405.755,-279.722,-355.361,-152.206,-317.947,-2957.500,444.760,1544.780
330,55825.942000,99.365,439.146,-283.676,-369.485,-143.394,-298.018,-2806.500,-246.240,1342.780
331,55825.966000,69.017,456.348,-319.259,-406.410,-134.394,-260.951,-2661.500,-582.240,1225.780
332,55825.982000,25.943,462.419,-329.143,-411.632,-132.432,-243.140,-2391.500,-534.240,1237.780
333,55825.996000,-9.300,416.885,-373.622,-432.823,-120.667,-212.261,-2067.500,-482.240,1243.780
334,55826.23000,-20.069,370.340,-388.448,-441.925,-116.732,-197.338,-1875.500,-678.240,1169.780
335,55826.46000,-104.260,317.723,-438.857,-452.143,-112.796,-174.519,-1427.500,-1053.240,952.780
336,55826.63000,-129.713,306.593,-440.834,-450.559,-107.995,-155.848,-955.500,-1075.240,695.780
337,55826.81000,-124.818,305.581,-407.228,-459.391,-110.820,-152.735,-483.500,-687.240,451.780
338,55826.103000,-101.323,290.403,-356.819,-465.211,-106.892,-157.559,-37.500,-198.240,254.780
339,55826.121000,-67.059,280.285,-317.282,-455.495,-108.921,-152.806,310.500,-71.240,8.780
340,55826.143000,-65.101,281.296,-288.618,-454.299,-111.821,-163.653,606.500,-177.240,-281.220
341,55826.166000,-57.270,285.344,-280.710,-456.117,-113.731,-170.510,861.500,-17.240,-509.220
342,55826.180000,-32.795,295.462,-287.629,-448.954,-123.455,-183.423,967.500,63.760,-595.220
343,55826.212000,-20.069,316.711,-308.386,-437.982,-127.413,-193.457,1166.500,2.760,-666.220
344,55826.245000,-36.711,321.771,-345.946,-430.698,-137.130,-213.264,1374.500,-115.240,-708.220
345,55826.258000,-20.069,333.913,-418.100,-413.576,-148.868,-235.211,1648.500,-105.240,-767.220
346,55826.272000,4.405,380.459,-462.579,-407.340,-156.644,-252.048,1970.500,-315.240,-1002.220
347,55826.298000,-18.111,404.743,-464.556,-380.241,-176.204,-281.054,2430.500,-376.240,-1206.220
348,55826.312000,22.027,423.968,-441.822,-365.147,-180.186,-302.974,2832.500,89.760,-1317.220
349,55826.341000,87.618,431.051,-391.413,-328.221,-194.993,-337.081,3145.500,142.760,-1385.220
350,55826.361000,103.281,418.909,-320.247,-301.402,-202.954,-356.251,3267.500,3.760,-1469.220
351,55826.381000,117.966,391.589,-280.710,-249.876,-220.803,-384.707,3428.500,-232.240,-1529.220
352,55826.398000,115.029,374.387,-228.324,-187.681,-239.722,-407.443,3498.500,-363.240,-1662.220
353,55826.416000,142.440,339.984,-171.985,-165.893,-245.711,-419.635,3494.500,-306.240,-1743.220
354,55826.438000,150.272,313.676,-124.541,-102.928,-262.715,-431.558,3418.500,-367.240,-1800.220
355,55826.456000,163.977,258.024,-89.946,-66.575,-269.812,-437.115,3278.500,-540.240,-1805.220
356,55826.476000,168.872,214.514,-74.131,-4.840,-283.918,-436.222,3056.500,-886.240,-1803.220
357,55826.495000,156.145,178.087,-83.027,22.578,-297.716,-430.784,2860.500,-1181.240,-1769.220
358,55826.517000,118.945,153.802,-75.120,84.010,-310.872,-413.151,2713.500,-1021.240,-1744.220
359,55826.537000,109.155,118.387,-75.120,108.395,-312.066,-408.659,2648.500,-839.240,-1737.220
360,55826.563000,124.818,76.901,-77.097,161.928,-317.411,-390.895,2550.500,-551.240,-1737.220
361,55826.585000,135.587,53.628,-74.131,216.334,-316.963,-370.200,2425.500,-492.240,-1735.220
362,55826.600000,135.587,18.213,-65.236,242.546,-317.215,-358.850,2318.500,-550.240,-1692.220
363,55826.620000,115.029,-9.107,-55.351,290.040,-309.934,-338.041,2178.500,-352.240,-1567.220
364,55826.637000,106.218,-37.439,-48.432,303.564,-302.325,-332.382,2024.500,134.760,-1329.220
365,55826.651000,117.966,-68.806,-31.629,337.374,-287.174,-316.263,1866.500,493.760,-1083.220
366,55826.680000,140.482,-95.115,-17.792,354.813,-281.537,-309.687,1682.500,464.760,-924.220
367,55826.717000,147.335,-124.459,1.977,383.757,-265.372,-295.451,1567.500,334.760,-868.220
368,55826.721000,137.545,-149.755,10.873,405.931,-257.853,-281.085,1284.500,90.760,-724.220
369,55826.741000,123.839,-157.850,1.977,412.651,-256.954,-274.314,1005.500,50.760,-538.220
370,55826.763000,128.734,-169.992,11.861,428.020,-250.337,-261.796,771.500,109.760,-361.220
371,55826.786000,127.755,-175.051,16.803,422.087,-247.384,-259.725,544.500,75.760,-219.220
372,55826.810000,131.671,-185.170,23.722,429.784,-242.623,-254.945,309.500,-42.240,-103.220
373,55826.825000,129.713,-192.253,22.734,432.764,-247.487,-254.992,62.500,-232.240,-0.220
374,55826.847000,110.134,-194.277,10.873,433.787,-250.397,-255.991,-178.500,-283.240,119.780
375,55826.860000,92.512,-191.241,4.942,421.085,-254.152,-254.777,-405.500,-186.240,220.780
376,55826.887000,104.260,-186.182,-7.907,422.263,-257.053,-264.639,-520.500,-54.240,243.780
377,55826.905000,112.092,-165.945,-10.873,407.699,-261.753,-268.314,-728.500,-137.240,266.780
378,55826.936000,103.281,-149.755,-11.861,401.102,-266.516,-280.005,-914.500,-145.240,302.780
379,55826.951000,111.113,-135.589,-13.838,384.702,-269.255,-291.525,-1098.500,-34.240,340.780
380,55826.966000,112.092,-146.719,-35.583,377.055,-268.206,-302.220,-1319.500,-38.240,380.780
381,55826.994000,113.071,-131.542,-54.363,354.915,-275.724,-318.555,-1504.500,91.760,411.780
382,55827.11000,108.176,-97.138,-57.328,348.290,-273.713,-332.223,-1648.500,396.760,470.780
383,55827.33000,129.713,-64.759,-34.595,310.491,-267.538,-355.188,-1823.500,728.760,572.780
384,55827.61000,145.377,-54.640,-19.768,277.655,-269.147,-378.232,-1961.500,802.760,665.780
385,55827.94000,185.514,-29.344,-47.444,254.386,-264.082,-392.593,-2266.500,679.760,846.780
386,55827.94000,182.577,24.285,-54.363,209.756,-263.651,-413.462,-2511.500,427.760,1043.780
387,55827.121000,121.881,70.830,-51.398,178.616,-255.613,-426.703,-2674.500,891.760,1313.780
388,55827.136000,152.229,95.115,-33.606,121.168,-246.361,-446.371,-2883.500,1165.760,1353.780
389,55827.161000,189.430,127.494,-57.328,91.015,-241.236,-458.641,-3103.500,678.760,1337.780
390,55827.181000,171.809,163.921,-85.004,29.403,-234.866,-462.481,-3256.500,464.760,1436.780
391,55827.197000,154.187,194.277,-100.819,-0.965,-232.656,-460.962,-3423.500,435.760,1487.780
392,55827.215000,161.040,235.763,-120.587,-66.604,-225.290,-458.825,-3490.500,259.760,1486.780
393,55827.237000,138.524,271.178,-182.857,-129.505,-218.928,-444.921,-3505.500,-113.240,1503.780
394,55827.255000,99.365,297.486,-225.359,-162.993,-209.927,-436.464,-3425.500,196.760,1478.780
395,55827.282000,98.386,333.913,-215.475,-219.238,-192.024,-417.769,-3334.500,794.760,1387.780
396,55827.292000,125.797,362.245,-233.266,-236.214,-177.374,-405.673,-3313.500,934.760,1302.780
397,55827.328000,191.388,394.625,-290.595,-287.678,-166.297,-377.210,-3272.500,188.760,1258.780
398,55827.331000,145.377,412.838,-304.432,-313.441,-157.372,-362.983,-3119.500,-376.240,1485.780
399,55827.352000,116.008,416.885,-316.293,-353.274,-151.248,-325.860,-2875.500,-420.240,1820.780
400,55827.375000,69.996,402.719,-349.900,-378.458,-134.612,-292.947,-2568.500,-518.240,1995.780
401,55827.398000,-7.342,390.577,-361.761,-399.399,-123.800,-275.854,-2439.500,-649.240,1975.780
402,55827.417000,-66.080,378.435,-382.517,-420.658,-115.910,-239.062,-2166.500,-1010.240,1730.780
403,55827.440000,-138.524,356.174,-394.378,-425.784,-116.847,-225.188,-1908.500,-1190.240,1279.780
404,55827.457000,-143.419,326.830,-398.332,-442.948,-109.950,-198.312,-1631.500,-956.240,862.780
405,55827.489000,-119.924,299.510,-384.494,-443.138,-109.961,-187.480,-1313.500,-784.240,511.780
406,55827.511000,-95.449,288.379,-377.575,-456.152,-111.798,-169.527,-986.500,-873.240,232.780
407,55827.525000,-99.365,283.320,-391.413,-454.247,-113.754,-165.621,-578.500,-842.240,63.780
408,55827.545000,-117.966,264.095,-387.459,-457.251,-115.667,-160.643,-118.500,-251.240,-50.220
409,55827.567000,-77.828,261.059,-362.749,-457.165,-115.662,-165.567,106.500,192.760,-145.220
410,55827.588000,-18.111,273.202,-334.085,-452.186,-115.702,-170.577,499.500,778.760,-320.220
411,55827.611000,17.132,290.403,-311.351,-445.024,-117.682,-187.437,794.500,674.760,-460.220
412,55827.628000,-4.405,301.534,-303.444,-444.867,-121.545,-194.327,1045.500,229.760,-582.220
413,55827.637000,-25.943,295.462,-310.363,-428.829,-129.409,-212.321,1273.500,48.760,-694.220
414,55827.670000,-10.279,308.617,-339.027,-424.610,-138.139,-225.184,1464.500,-30.240,-813.220
415,55827.687000,-5.384,332.901,-362.749,-410.477,-144.046,-247.085,1683.500,-84.240,-882.220
416,55827.705000,18.111,356.174,-385.483,-390.341,-158.711,-272.035,1964.500,-59.240,-862.220
417,55827.727000,29.859,371.352,-379.552,-388.081,-161.615,-287.823,2303.500,-57.240,-811.220
418,55827.747000,31.816,373.376,-368.680,-356.091,-175.412,-319.876,2484.500,-75.240,-800.220
419,55827.770000,22.027,337.960,-358.795,-337.179,-176.531,-337.929,2822.500,-149.240,-915.220
420,55827.787000,35.732,325.818,-347.923,-292.485,-194.317,-367.248,2981.500,-215.240,-1268.220
421,55827.810000,57.270,329.866,-314.317,-268.618,-206.124,-383.408,3061.500,-408.240,-1710.220
422,55827.832000,70.975,337.960,-276.757,-215.246,-228.836,-403.030,3130.500,-441.240,-2066.220
423,55827.850000,111.113,338.972,-231.290,-189.483,-235.824,-418.245,3164.500,-154.240,-2227.220
424,55827.872000,165.935,321.771,-194.718,-125.515,-247.997,-434.129,3130.500,-255.240,-2257.220
425,55827.897000,209.010,297.486,-146.286,-62.704,-270.817,-434.229,3050.500,-786.240,-2182.220
426,55827.913000,192.367,254.988,-122.564,-24.410,-281.804,-436.863,3001.500,-1102.240,-2130.220
427,55827.933000,152.229,205.407,-117.622,27.376,-300.670,-423.974,2879.500,-1269.240,-1978.220
428,55827.968000,130.692,174.040,-109.714,55.764,-309.638,-420.528,2758.500,-975.240,-1796.220
429,55827.987000,127.755,134.577,-98.842,114.250,-315.992,-405.804,2660.500,-590.240,-1605.220
430,55828.16000,151.250,97.138,-108.726,143.510,-319.168,-399.427,2553.500,-577.240,-1521.220
431,55828.19000,140.482,87.020,-103.784,194.990,-321.597,-377.693,2473.500,-788.240,-1538.220
432,55828.38000,90.554,53.628,-98.842,239.646,-322.994,-357.808,2406.500,-497.240,-1496.220
433,55828.60000,75.870,10.119,-91.923,266.800,-315.514,-348.452,2324.500,290.760,-1370.220
434,55828.77000,110.134,-19.225,-74.131,307.580,-294.611,-342.307,2284.500,608.760,-1189.220
435,55828.100000,118.945,-44.522,-47.444,324.948,-287.042,-332.779,2191.500,898.760,-1084.220
436,55828.117000,153.208,-84.996,0.000,353.875,-270.879,-317.558,2010.500,831.760,-946.220
437,55828.145000,176.704,-114.340,-1.977,373.166,-263.329,-306.095,1731.500,232.760,-855.220
438,55828.167000,139.503,-131.542,-19.768,398.242,-257.774,-288.825,1453.500,-190.240,-699.220
439,55828.185000,102.302,-143.684,6.919,402.847,-249.123,-277.103,1243.500,119.760,-469.220
440,55828.202000,118.945,-175.051,33.606,419.342,-247.346,-270.506,990.500,407.760,-280.220
441,55828.225000,145.377,-187.194,37.560,431.914,-242.631,-264.827,695.500,163.760,-208.220
442,55828.255000,134.608,-184.158,29.653,433.698,-240.723,-256.001,436.500,-104.240,-154.220
443,55828.273000,119.924,-196.300,37.560,442.451,-236.934,-255.176,321.500,-124.240,-123.220
444,55828.287000,116.008,-198.324,47.444,438.556,-242.705,-253.131,56.500,-58.240,-35.220
445,55828.306000,110.134,-195.289,47.444,440.591,-241.750,-258.090,-230.500,57.760,76.780
446,55828.320000,111.113,-186.182,42.502,426.900,-240.657,-258.834,-531.500,133.760,184.780
447,55828.347000,130.692,-178.087,47.444,416.450,-246.349,-273.409,-829.500,-15.240,228.780
448,55828.356000,128.734,-157.850,46.456,403.972,-248.156,-285.984,-1123.500,-190.240,300.780
449,55828.388000,108.176,-139.636,31.629,392.517,-252.872,-299.558,-1384.500,-75.240,406.780
450,55828.406000,117.966,-107.257,37.560,369.424,-259.412,-317.847,-1634.500,148.760,514.780
451,55828.436000,117.966,-78.925,50.409,358.920,-257.364,-333.414,-1876.500,668.760,684.780
452,55828.450000,116.008,-81.960,47.444,322.203,-251.192,-362.306,-2042.500,1017.760,764.780
453,55828.471000,197.262,-55.652,42.502,295.097,-243.183,-382.509,-2458.500,1146.760,825.780
454,55828.492000,262.853,8.095,13.838,246.667,-247.550,-407.243,-2820.500,260.760,903.780
455,55828.512000,218.799,72.854,-44.479,190.314,-252.819,-425.929,-2926.500,-118.240,1223.780
456,55828.540000,173.767,96.126,-70.178,165.108,-257.414,-436.306,-2997.500,470.760,1521.780
457,55828.572000,183.556,144.696,-133.436,105.599,-246.214,-451.018,-3105.500,653.760,1595.780
458,55828.591000,161.040,166.957,-159.135,66.667,-249.718,-460.170,-3172.500,510.760,1659.780
459,55828.600000,161.040,192.253,-167.042,1.045,-238.479,-460.991,-3301.500,507.760,1622.780
460,55828.617000,139.503,210.466,-213.498,-26.309,-239.195,-462.475,-3361.500,386.760,1572.780
461,55828.626000,115.029,217.549,-269.838,-89.185,-231.865,-450.542,-3386.500,6.760,1511.780
462,55828.655000,97.407,254.988,-278.734,-149.161,-222.627,-437.678,-3272.500,-56.240,1472.780
463,55828.672000,97.407,274.213,-276.757,-173.894,-211.773,-427.409,-3156.500,492.760,1411.780
464,55828.695000,158.103,267.130,-302.456,-224.130,-195.851,-415.709,-3113.500,717.760,1368.780
465,55828.715000,180.620,312.664,-303.444,-251.902,-186.912,-398.493,-3072.500,107.760,1243.780
466,55828.742000,133.629,354.150,-291.583,-296.462,-183.638,-369.159,-2889.500,-418.240,1277.780
467,55828.757000,135.587,384.506,-257.977,-310.509,-177.725,-352.182,-2690.500,-288.240,1463.780
468,55828.780000,124.818,401.708,-256.000,-345.400,-161.964,-323.034,-2532.500,-169.240,1768.780
469,55828.797000,94.470,381.470,-290.595,-364.357,-154.072,-305.972,-2454.500,-185.240,1892.780
470,55828.815000,40.627,377.423,-291.583,-391.445,-141.287,-274.005,-2298.500,-402.240,1931.780
471,55828.846000,-54.333,361.233,-320.247,-415.573,-125.623,-245.047,-2075.500,-690.240,1681.780
472,55828.863000,-88.597,329.866,-341.992,-427.629,-115.855,-232.048,-1874.500,-475.240,1315.780
473,55828.880000,-60.207,321.771,-354.842,-440.879,-108.994,-205.241,-1718.500,-307.240,914.780
474,55828.902000,-79.786,322.783,-380.541,-442.013,-110.929,-195.374,-1462.500,-351.240,747.780
475,55828.922000,-61.185,302.545,-401.297,-452.225,-98.282,-177.488,-1096.500,-150.240,800.780
476,55828.944000,-23.006,278.261,-394.378,-455.290,-97.294,-170.544,-673.500,-143.240,759.780
477,55828.972000,-50.417,262.071,-387.459,-468.238,-87.513,-162.451,-468.500,-296.240,485.780
478,55828.991000,-66.080,249.929,-380.541,-465.259,-88.505,-164.471,-94.500,-580.240,281.780
479,55829.18000,-94.470,260.047,-356.819,-464.202,-91.413,-167.440,272.500,-469.240,-104.220
480,55829.51000,-87.618,271.178,-327.166,-456.219,-89.540,-177.428,628.500,246.760,-255.220
481,55829.70000,-35.732,278.261,-266.873,-454.061,-94.386,-186.320,880.500,761.760,-343.220
482,55829.72000,0.489,283.320,-238.208,-445.929,-101.215,-200.238,1066.500,371.760,-524.220
483,55829.93000,-9.300,282.308,-252.046,-442.812,-100.263,-211.124,1209.500,-73.240,-685.220
484,55829.111000,-7.342,287.368,-246.116,-425.716,-112.971,-231.100,1290.500,-54.240,-766.220
485,55829.128000,20.069,305.581,-251.058,-424.364,-117.799,-249.823,1380.500,40.760,-734.220
486,55829.151000,52.375,320.759,-267.861,-410.422,-121.781,-261.879,1447.500,51.760,-672.220
487,55829.178000,67.059,330.877,-306.409,-392.367,-126.756,-284.835,1631.500,-21.240,-504.220
488,55829.196000,105.239,340.996,-329.143,-385.282,-133.580,-294.797,1835.500,-281.240,-395.220
489,55829.218000,111.113,336.949,-371.645,-363.199,-145.360,-320.769,2105.500,-655.240,-389.220
490,55829.236000,103.281,327.842,-403.274,-359.024,-151.188,-332.650,2342.500,-801.240,-447.220
491,55829.258000,127.755,318.735,-409.205,-321.187,-171.815,-359.875,2625.500,-960.240,-667.220
492,55829.281000,116.987,298.498,-377.575,-302.229,-185.514,-373.977,2950.500,-935.240,-949.220
493,55829.308000,123.839,262.071,-341.992,-259.587,-204.255,-397.352,3148.500,-817.240,-1263.220
494,55829.327000,148.314,232.727,-302.456,-206.206,-229.871,-415.987,3246.500,-898.240,-1543.220
495,55829.346000,153.208,194.277,-255.012,-179.549,-242.680,-423.335,3242.500,-954.240,-1646.220
496,55829.366000,166.914,162.909,-216.463,-119.543,-270.306,-428.302,3122.500,-1231.240,-1872.220
497,55829.380000,156.145,158.862,-166.054,-85.110,-288.997,-429.874,2953.500,-1528.240,-2174.220
498,55829.402000,138.524,144.696,-113.668,-20.444,-319.585,-420.153,2747.500,-1635.240,-2478.220
499,55829.420000,140.482,122.435,-82.039,5.901,-330.476,-410.762,2504.500,-1763.240,-2795.220
500,55829.443000,135.587,117.375,-74.131,80.039,-355.363,-386.448,2273.500,-1815.240,-2966.220
501,55829.462000,134.608,103.209,-77.097,148.225,-369.554,-363.027,2117.500,-1690.240,-2976.220
502,55829.480000,116.008,96.126,-83.027,166.539,-365.867,-349.573,2071.500,-1164.240,-2809.220
503,55829.501000,103.281,64.759,-49.421,223.888,-364.477,-329.916,2052.500,-858.240,-2704.220
504,55829.522000,131.671,23.273,-50.409,254.904,-357.036,-317.675,1994.500,-551.240,-2428.220
505,55829.545000,151.250,-16.190,-39.537,302.346,-347.821,-294.898,1868.500,-486.240,-2121.220
506,55829.565000,133.629,-56.664,-37.560,315.843,-335.374,-290.230,1677.500,-149.240,-1717.220
507,55829.587000,120.902,-83.984,-26.687,346.805,-322.128,-277.995,1473.500,358.760,-1333.220
508,55829.602000,145.377,-115.352,-3.954,380.650,-305.040,-264.831,1232.500,467.760,-1039.220
509,55829.632000,162.998,-139.636,6.919,391.334,-300.302,-263.057,920.500,173.760,-828.220
510,55829.655000,165.935,-158.862,-2.965,401.827,-289.769,-253.411,635.500,-185.240,-621.220
511,55829.670000,142.440,-167.968,-9.884,398.805,-291.683,-247.448,420.500,-252.240,-387.220
512,55829.697000,102.302,-192.253,-15.815,409.517,-291.783,-244.684,323.500,-137.240,-263.220
513,55829.717000,120.902,-187.194,-17.792,408.450,-285.972,-242.703,131.500,146.760,-59.220
514,55829.736000,120.902,-184.158,-9.884,403.662,-287.857,-247.538,-73.500,69.760,77.780
515,55829.753000,113.071,-172.016,-10.873,405.620,-291.747,-245.600,-288.500,-94.240,193.780
516,55829.771000,108.176,-153.802,-15.815,398.953,-294.578,-254.338,-519.500,-76.240,332.780
517,55829.788000,121.881,-130.530,-5.931,385.419,-297.348,-261.971,-744.500,75.760,503.780
518,55829.813000,152.229,-110.292,1.977,378.831,-305.014,-272.675,-966.500,113.760,659.780
519,55829.835000,159.082,-113.328,11.861,350.708,-313.453,-282.012,-1180.500,-27.240,765.780
520,55829.856000,135.587,-114.340,-10.873,346.067,-316.298,-294.724,-1415.500,-14.240,891.780
521,55829.878000,146.356,-104.221,-11.861,308.296,-316.897,-315.713,-1541.500,441.760,971.780
522,55829.893000,179.641,-66.783,-3.954,289.955,-317.682,-329.170,-1812.500,1035.760,1126.780
523,55829.915000,197.262,-35.415,-20.757,252.313,-315.370,-359.025,-2074.500,1032.760,1255.780
524,55829.936000,192.367,-1.012,-12.849,206.704,-314.930,-379.877,-2366.500,725.760,1327.780
525,55829.956000,213.904,58.688,-42.502,182.423,-313.729,-390.278,-2706.500,411.760,1361.780
526,55829.968000,163.977,111.304,-142.332,122.995,-313.172,-403.993,-2876.500,-14.240,1490.780
527,55829.996000,91.533,138.625,-170.008,96.680,-316.798,-407.462,-2893.500,305.760,1744.780
528,55830.18000,116.008,171.004,-164.077,33.205,-305.565,-419.150,-2930.500,896.760,1902.780
529,55830.41000,144.398,218.561,-192.741,-4.914,-298.440,-424.390,-2946.500,920.760,1913.780
530,55830.57000,119.924,261.059,-200.649,-64.709,-288.225,-422.360,-2996.500,626.760,1910.780
531,55830.78000,71.954,287.368,-219.429,-126.479,-272.185,-422.270,-3004.500,516.760,2009.780
532,55830.101000,40.627,284.332,-245.127,-156.037,-255.475,-418.813,-3026.500,888.760,2075.780
533,55830.121000,60.207,293.439,-256.988,-207.417,-232.778,-401.195,-3105.500,806.760,1832.780
534,55830.143000,52.375,324.806,-266.873,-236.027,-229.630,-388.879,-3103.500,136.760,1485.780
535,55830.163000,27.901,347.067,-292.571,-280.659,-220.552,-358.567,-2973.500,-362.240,1309.780
536,55830.180000,4.405,342.008,-296.525,-302.507,-215.535,-342.435,-2814.500,-226.240,1339.780
537,55830.201000,12.237,360.221,-294.548,-341.268,-202.639,-314.199,-2694.500,17.760,1323.780
538,55830.223000,31.816,362.245,-310.363,-351.400,-198.698,-296.304,-2613.500,-0.240,1336.780
539,55830.246000,52.375,365.281,-332.108,-379.493,-186.873,-262.350,-2429.500,-442.240,1306.780
540,55830.266000,51.396,377.423,-359.784,-404.598,-177.008,-230.415,-2189.500,-866.240,1237.780
541,55830.288000,16.153,358.198,-382.517,-419.579,-173.988,-214.402,-1898.500,-1072.240,1279.780
542,55830.306000,-30.837,339.984,-404.263,-435.765,-165.164,-188.530,-1547.500,-1058.240,1400.780
543,55830.328000,-74.891,323.794,-417.112,-439.889,-155.461,-181.577,-1139.500,-821.240,1492.780
544,55830.351000,-99.365,296.474,-404.263,-451.140,-139.905,-161.707,-764.500,-761.240,1339.780
545,55830.373000,-130.692,278.261,-382.517,-453.174,-144.731,-154.774,-403.500,-878.240,1009.780
546,55830.391000,-169.851,266.119,-361.761,-455.272,-135.042,-151.795,-229.500,-752.240,818.780
547,55830.423000,-182.577,250.941,-325.189,-451.368,-128.303,-154.826,94.500,-152.240,451.780
548,55830.442000,-163.977,244.870,-292.571,-459.136,-125.324,-159.614,336.500,419.760,85.780
549,55830.461000,-129.713,249.929,-256.000,-454.018,-127.292,-171.516,523.500,626.760,-317.220
550,55830.476000,-104.260,257.012,-227.336,-446.042,-132.194,-177.558,694.500,677.760,-639.220
551,55830.493000,-81.744,261.059,-212.510,-438.854,-137.077,-194.415,826.500,711.760,-839.220
552,55830.517000,-50.417,263.083,-207.568,-432.827,-140.993,-201.408,872.500,543.760,-970.220
553,55830.538000,-23.985,277.249,-228.324,-430.486,-152.604,-217.187,933.500,146.760,-1055.220
554,55830.558000,-23.006,298.498,-243.151,-412.541,-166.296,-229.302,1046.500,-148.240,-1086.220
555,55830.576000,-23.985,318.735,-286.641,-413.310,-172.083,-238.142,1133.500,-222.240,-1099.220
556,55830.601000,-23.985,319.747,-342.981,-393.304,-187.723,-255.213,1337.500,-158.240,-1212.220
557,55830.616000,-5.384,326.830,-386.471,-379.300,-196.541,-268.249,1613.500,65.760,-1348.220
558,55830.625000,39.648,345.043,-438.857,-354.211,-214.151,-295.252,1953.500,1.760,-1426.220
559,55830.652000,72.933,367.304,-456.649,-345.125,-221.958,-307.217,2372.500,-68.240,-1448.220
560,55830.670000,70.975,376.411,-454.672,-307.248,-233.872,-341.345,2826.500,160.760,-1363.220
561,55830.692000,83.702,379.447,-431.938,-281.433,-240.858,-359.514,3265.500,517.760,-1297.220
562,55830.715000,116.008,357.186,-383.506,-221.226,-241.371,-390.112,3559.500,473.760,-1289.220
563,55830.752000,157.124,329.866,-309.375,-163.890,-256.373,-416.704,3673.500,248.760,-1333.220
564,55830.785000,163.977,285.344,-229.313,-135.270,-264.361,-427.046,3736.500,-371.240,-1518.220
565,55830.785000,149.293,250.941,-171.985,-69.550,-286.241,-426.214,3606.500,-818.240,-1735.220
566,55830.791000,134.608,214.514,-132.448,-34.140,-293.327,-433.724,3335.500,-920.240,-1911.220
567,55830.818000,141.461,187.194,-103.784,27.475,-315.183,-421.990,3044.500,-1035.240,-2040.220
568,55830.836000,141.461,162.909,-84.015,58.702,-321.280,-414.660,2821.500,-1103.240,-2077.220
569,55830.858000,122.860,131.542,-76.108,121.086,-333.478,-396.060,2630.500,-1052.240,-2086.220
570,55830.880000,131.671,71.842,-53.375,186.318,-339.900,-375.549,2461.500,-1151.240,-2117.220
571,55830.898000,106.218,47.557,-60.293,200.771,-341.981,-362.020,2297.500,-1111.240,-2087.220
572,55830.921000,102.302,20.237,-50.409,256.986,-336.720,-335.456,2210.500,-940.240,-2060.220
573,55830.937000,115.029,-15.178,-32.618,286.079,-331.195,-324.164,2062.500,-490.240,-1924.220
574,55830.953000,130.692,-56.664,-12.849,330.619,-316.144,-306.265,1900.500,-165.240,-1738.220
575,55830.995000,155.166,-89.043,12.849,342.074,-311.427,-292.691,1697.500,-175.240,-1557.220
576,55831.1000,152.229,-114.340,6.919,371.972,-302.049,-273.541,1423.500,-492.240,-1395.220
577,55831.23000,121.881,-124.459,-8.896,408.693,-289.830,-254.516,1135.500,-621.240,-1172.220
578,55831.46000,121.881,-156.838,1.977,411.402,-282.126,-245.713,905.500,-256.240,-877.220
579,55831.65000,142.440,-164.933,0.988,421.012,-276.417,-238.999,659.500,-26.240,-634.220
580,55831.106000,146.356,-181.123,7.907,429.715,-276.503,-233.246,548.500,-53.240,-518.220
581,55831.135000,139.503,-191.241,2.965,436.443,-274.637,-227.460,320.500,-227.240,-320.220
582,55831.137000,134.608,-191.241,-1.977,432.451,-273.638,-223.453,84.500,-399.240,-171.220
583,55831.145000,116.987,-183.146,-15.815,430.485,-274.588,-222.433,-146.500,-429.240,-12.220
584,55831.172000,111.113,-183.146,-21.745,435.405,-279.471,-221.530,-348.500,-202.240,188.780
585,55831.193000,124.818,-174.040,-23.722,426.832,-278.410,-235.162,-550.500,15.760,371.780
586,55831.215000,140.482,-157.850,-13.838,408.426,-292.749,-237.773,-756.500,-54.240,473.780
587,55831.230000,133.629,-136.601,-11.861,409.578,-296.619,-245.664,-971.500,-277.240,585.780
588,55831.252000,115.029,-124.459,-30.641,379.559,-306.005,-257.920,-1186.500,-279.240,752.780
589,55831.275000,90.554,-126.482,-63.259,368.979,-310.736,-265.603,-1275.500,-159.240,847.780
590,55831.295000,88.597,-126.482,-83.027,337.114,-317.194,-285.705,-1422.500,214.760,1022.780
591,55831.317000,101.323,-92.079,-76.108,328.568,-320.971,-298.347,-1566.500,584.760,1104.780
592,55831.337000,125.797,-60.711,-66.224,296.737,-325.491,-321.406,-1739.500,668.760,1139.780
593,55831.355000,142.440,-34.403,-74.131,257.043,-326.070,-344.329,-1965.500,379.760,1152.780
594,55831.387000,124.818,0.000,-89.946,235.726,-331.670,-352.806,-2173.500,89.760,1221.780
595,55831.415000,115.029,35.415,-87.969,183.182,-333.109,-367.626,-2318.500,235.760,1341.780
596,55831.433000,101.323,62.735,-105.761,165.820,-331.967,-382.087,-2426.500,623.760,1484.780
597,55831.437000,130.692,87.020,-96.865,111.318,-329.516,-398.846,-2494.500,796.760,1533.780
598,55831.466000,159.082,117.375,-123.552,81.026,-324.398,-403.238,-2664.500,662.760,1597.780
599,55831.482000,138.524,164.933,-165.066,23.354,-317.095,-409.117,-2790.500,324.760,1713.780
600,55831.503000,115.029,200.348,-162.100,-10.790,-314.842,-415.407,-2835.500,478.760,1830.780
601,55831.531000,102.302,230.704,-161.112,-68.698,-298.840,-412.432,-2895.500,752.760,1861.780
602,55831.549000,131.671,236.775,-189.776,-130.527,-287.643,-406.429,-3042.500,399.760,1757.780
603,55831.562000,127.755,292.427,-223.382,-153.248,-288.419,-393.228,-3135.500,-443.240,1670.780
604,55831.588000,71.954,338.972,-270.826,-208.574,-279.239,-366.664,-2991.500,-780.240,1741.780
605,55831.607000,9.300,348.079,-288.618,-228.378,-276.171,-354.504,-2768.500,-142.240,1870.780
606,55831.621000,7.342,331.889,-306.409,-280.753,-259.274,-332.924,-2684.500,155.760,1890.780
607,55831.643000,59.228,345.043,-318.270,-303.580,-250.376,-318.748,-2572.500,65.760,1831.780
608,55831.663000,32.795,361.233,-318.270,-335.518,-236.576,-289.650,-2412.500,-580.240,1807.780
609,55831.681000,-26.922,378.435,-326.178,-370.409,-222.750,-259.515,-2155.500,-713.240,1827.780
610,55831.703000,-72.933,376.411,-306.409,-379.554,-219.785,-241.637,-1916.500,-440.240,1726.780
611,55831.736000,-63.143,349.091,-296.525,-402.643,-203.159,-216.636,-1800.500,-527.240,1482.780
612,55831.755000,-72.933,342.008,-306.409,-412.750,-196.313,-201.699,-1641.500,-948.240,1260.780
613,55831.773000,-137.545,337.960,-310.363,-431.871,-185.527,-176.762,-1376.500,-679.240,1180.780
614,55831.791000,-179.641,326.830,-326.178,-430.123,-179.749,-167.939,-1222.500,-330.240,1131.780
615,55831.809000,-146.356,309.628,-319.259,-436.299,-171.002,-155.042,-945.500,59.760,889.780
616,55831.831000,-103.281,296.474,-309.375,-449.307,-164.127,-142.022,-729.500,-262.240,554.780
617,55831.853000,-100.344,287.368,-318.270,-452.268,-165.070,-140.000,-525.500,-511.240,273.780
618,55831.871000,-118.945,272.190,-337.050,-446.492,-168.032,-133.207,-245.500,-347.240,60.780
619,55831.892000,-115.029,253.976,-331.120,-453.307,-166.032,-136.043,73.500,83.760,-142.220
620,55831.918000,-93.491,245.881,-316.293,-449.263,-168.964,-142.017,353.500,421.760,-345.220
621,55831.928000,-60.207,252.964,-296.525,-440.272,-177.745,-148.073,573.500,264.760,-624.220
622,55831.945000,-65.101,263.083,-332.108,-431.204,-185.553,-159.053,798.500,237.760,-864.220
623,55831.972000,-70.975,292.427,-359.784,-424.891,-188.486,-182.788,950.500,379.760,-927.220
624,55831.995000,-69.017,311.652,-368.680,-418.768,-193.364,-194.704,1320.500,783.760,-853.220
625,55832.11000,-21.048,324.806,-357.807,-403.580,-196.373,-222.534,1694.500,789.760,-726.220
626,55832.37000,-20.069,346.055,-356.819,-394.452,-201.274,-238.441,1988.500,350.760,-651.220
627,55832.65000,-15.174,352.126,-360.772,-370.395,-211.135,-266.420,2250.500,-191.240,-734.220
628,55832.83000,-53.354,377.423,-360.772,-360.296,-220.885,-279.385,2460.500,-224.240,-914.220
629,55832.97000,-28.880,380.459,-338.039,-326.445,-231.801,-307.536,2671.500,-24.240,-1078.220
630,55832.129000,13.216,367.304,-298.502,-305.540,-238.744,-324.634,2855.500,71.760,-1160.220
631,55832.147000,53.354,348.079,-267.861,-270.685,-250.636,-353.786,2973.500,-102.240,-1203.220
632,55832.162000,63.143,312.664,-244.139,-216.326,-270.452,-375.398,3002.500,-242.240,-1238.220
633,55832.185000,69.996,272.190,-222.394,-191.620,-278.404,-385.670,3025.500,-388.240,-1358.220
634,55832.202000,96.428,244.870,-185.822,-143.316,-291.403,-400.292,2985.500,-382.240,-1525.220
635,55832.225000,123.839,205.407,-162.100,-116.739,-297.442,-406.662,2912.500,-471.240,-1642.220
636,55832.247000,141.461,169.992,-138.378,-64.710,-316.294,-407.560,2797.500,-656.240,-1702.220
637,55832.276000,142.440,130.530,-134.425,-31.405,-322.402,-407.158,2646.500,-893.240,-1727.220
638,55832.293000,138.524,104.221,-130.471,15.532,-340.253,-397.138,2491.500,-1051.240,-1742.220
639,55832.309000,147.335,68.806,-125.529,70.263,-358.177,-385.288,2352.500,-1161.240,-1780.220
640,55832.331000,124.818,50.593,-120.587,97.472,-364.244,-371.980,2293.500,-1248.240,-1821.220
641,55832.346000,113.071,27.320,-113.668,150.010,-373.453,-351.240,2171.500,-1208.240,-1860.220
642,55832.368000,94.470,4.047,-105.761,170.316,-373.653,-337.817,2056.500,-1004.240,-1837.220
643,55832.388000,81.744,-11.130,-83.027,215.968,-373.123,-319.921,1962.500,-627.240,-1775.220
644,55832.411000,86.639,-28.332,-64.247,243.139,-369.513,-309.577,1867.500,-206.240,-1691.220
645,55832.423000,100.344,-54.640,-41.514,280.968,-356.328,-298.448,1765.500,116.760,-1581.220
646,55832.437000,111.113,-88.032,-21.745,319.758,-341.217,-287.339,1589.500,303.760,-1407.220
647,55832.470000,121.881,-107.257,-2.965,328.425,-335.498,-282.576,1336.500,414.760,-1170.220
648,55832.487000,132.650,-128.506,14.826,358.460,-320.304,-274.265,1061.500,327.760,-917.220
649,55832.507000,136.566,-151.779,16.803,358.329,-315.472,-269.347,910.500,253.760,-787.220
650,55832.529000,129.713,-160.885,8.896,371.878,-306.893,-265.658,618.500,99.760,-533.220
651,55832.555000,122.860,-168.980,8.896,376.728,-307.908,-262.790,370.500,-14.240,-305.220
652,55832.571000,112.092,-179.099,9.884,379.603,-308.906,-258.902,130.500,-99.240,-121.220
653,55832.587000,112.092,-186.182,2.965,375.646,-307.905,-256.864,-141.500,-218.240,0.780
654,55832.605000,101.323,-178.087,-17.792,369.783,-306.883,-257.746,-398.500,-371.240,114.780
655,55832.632000,81.744,-168.980,-32.618,361.134,-314.538,-262.506,-587.500,-239.240,259.780
656,55832.652000,73.912,-154.814,-38.548,362.296,-319.376,-270.397,-728.500,167.760,400.780
657,55832.675000,75.870,-141.660,-41.514,344.907,-317.267,-283.874,-855.500,390.760,525.780
658,55832.695000,96.428,-134.577,-44.479,334.344,-320.062,-293.528,-925.500,684.760,566.780
659,55832.716000,116.008,-129.518,-49.421,311.275,-319.825,-316.747,-1099.500,679.760,591.780
660,55832.733000,132.650,-115.352,-46.456,303.532,-313.941,-324.493,-1314.500,551.760,586.780
661,55832.751000,124.818,-93.091,-58.317,275.458,-312.698,-341.718,-1534.500,592.760,664.780
662,55832.772000,141.461,-78.925,-67.212,243.547,-306.576,-365.772,-1766.500,817.760,786.780
663,55832.795000,175.725,-47.557,-66.224,226.168,-305.435,-379.248,-2017.500,758.760,880.780
664,55832.817000,198.241,-8.095,-80.062,186.282,-302.153,-393.313,-2204.500,454.760,1058.780
665,55832.840000,176.704,33.391,-96.865,159.057,-299.959,-403.663,-2315.500,459.760,1342.780
666,55832.860000,172.788,57.676,-101.807,107.404,-295.604,-416.536,-2369.500,584.760,1491.780
667,55832.882000,197.262,77.913,-101.807,85.107,-297.323,-426.969,-2537.500,531.760,1699.780
668,55832.900000,181.598,123.447,-128.494,24.458,-298.706,-425.894,-2703.500,-1.240,1852.780
669,55832.925000,121.881,162.909,-162.100,-37.223,-294.276,-424.808,-2738.500,-164.240,1962.780
670,55832.942000,58.249,198.324,-167.042,-64.673,-292.094,-422.356,-2739.500,347.760,1970.780
671,55832.965000,66.080,187.194,-198.672,-121.612,-273.199,-420.386,-2801.500,676.760,1852.780
672,55832.982000,99.365,200.348,-222.394,-147.305,-268.142,-408.124,-2908.500,233.760,1642.780
673,55833.5000,68.038,247.905,-249.081,-200.527,-254.132,-392.432,-2866.500,92.760,1591.780
674,55833.22000,32.795,273.202,-253.035,-215.457,-247.238,-381.347,-2798.500,490.760,1551.780
675,55833.47000,43.564,296.474,-257.977,-263.876,-225.535,-364.764,-2787.500,639.760,1508.780
676,55833.66000,85.660,320.759,-266.873,-287.874,-210.831,-342.699,-2784.500,466.760,1454.780
677,55833.103000,114.050,337.960,-289.606,-323.499,-204.726,-322.387,-2673.500,-185.240,1502.780
678,55833.122000,69.996,355.162,-316.293,-365.223,-186.966,-295.089,-2422.500,-370.240,1641.780
679,55833.125000,21.048,358.198,-341.004,-370.429,-177.260,-282.210,-2114.500,-6.240,1792.780
680,55833.149000,11.258,353.138,-359.784,-405.288,-155.689,-257.992,-1838.500,185.760,1844.780
681,55833.170000,23.006,338.972,-396.355,-410.476,-147.918,-245.111,-1546.500,-233.240,1801.780
682,55833.186000,-8.321,343.020,-402.286,-424.663,-132.334,-225.190,-1208.500,-734.240,1600.780
683,55833.208000,-168.872,291.415,-403.274,-432.674,-127.434,-217.178,-878.500,-798.240,1229.780
684,55833.230000,-171.809,252.964,-374.610,-441.830,-115.759,-203.247,-746.500,-424.240,964.780
685,55833.246000,-125.797,245.881,-338.039,-447.822,-113.776,-197.237,-543.500,16.760,396.780
686,55833.277000,-86.639,246.893,-308.386,-441.977,-114.799,-195.370,-379.500,106.760,-33.220
687,55833.292000,-64.122,234.751,-289.606,-443.959,-117.686,-192.378,-195.500,57.760,-281.220
688,55833.310000,-45.522,231.715,-288.618,-446.842,-119.593,-194.294,39.500,-11.240,-432.220
689,55833.337000,-53.354,237.787,-290.595,-443.749,-127.354,-199.262,323.500,-17.240,-568.220
690,55833.355000,-31.816,251.953,-296.525,-437.748,-130.303,-205.271,549.500,202.760,-699.220
691,55833.377000,-18.111,267.130,-314.317,-429.676,-138.104,-215.250,734.500,349.760,-755.220
692,55833.409000,7.342,280.285,-316.293,-418.616,-145.928,-228.234,829.500,337.760,-780.220
693,55833.436000,-6.363,281.296,-317.282,-413.506,-150.800,-238.163,1061.500,55.760,-841.220
694,55833.446000,-21.048,283.320,-329.143,-399.388,-166.388,-254.146,1298.500,-124.240,-875.220
695,55833.471000,-11.258,267.130,-350.888,-388.434,-166.475,-265.169,1507.500,-100.240,-933.220
696,55833.476000,-7.342,279.273,-402.286,-376.160,-184.942,-286.038,1669.500,-332.240,-1170.220
697,55833.498000,-26.922,315.700,-424.031,-361.134,-196.670,-300.072,1904.500,-502.240,-1444.220
698,55833.526000,-30.837,325.818,-413.158,-323.497,-212.469,-318.440,2216.500,-54.240,-1596.220
699,55833.542000,39.648,330.877,-390.425,-288.538,-224.355,-353.500,2499.500,537.760,-1617.220
700,55833.557000,127.755,334.925,-351.876,-272.559,-233.191,-367.555,2745.500,188.760,-1675.220
701,55833.571000,142.440,320.759,-311.351,-226.020,-255.840,-388.041,2839.500,-263.240,-1727.220
702,55833.600000,107.197,288.379,-260.942,-193.538,-261.930,-396.484,2952.500,-830.240,-1821.220
703,55833.621000,106.218,253.976,-230.301,-137.403,-286.614,-405.324,2940.500,-693.240,-1863.220
704,55833.639000,120.902,232.727,-189.776,-109.856,-295.566,-409.739,2859.500,-566.240,-1907.220
705,55833.666000,119.924,206.419,-156.170,-54.900,-313.478,-410.690,2777.500,-616.240,-1927.220
706,55833.698000,130.692,173.028,-113.668,-26.503,-325.350,-406.257,2651.500,-665.240,-1933.220
707,55833.712000,119.924,142.672,-101.807,38.078,-329.808,-405.425,2504.500,-783.240,-1911.220
708,55833.745000,110.134,104.221,-114.656,80.970,-338.920,-392.391,2350.500,-753.240,-1859.220
709,55833.747000,108.176,70.830,-128.494,116.101,-342.149,-386.117,2218.500,-720.240,-1828.220
710,55833.771000,116.008,55.652,-127.506,164.775,-345.512,-371.223,2182.500,-650.240,-1817.220
711,55833.792000,99.365,39.462,-110.703,186.068,-342.817,-359.790,2148.500,-560.240,-1783.220
712,55833.820000,97.407,7.083,-102.795,233.728,-340.366,-345.869,2106.500,-230.240,-1655.220
713,55833.835000,109.155,-11.130,-92.911,251.139,-329.890,-340.283,2044.500,95.760,-1478.220
714,55833.857000,120.902,-38.451,-70.178,288.917,-320.580,-324.226,1947.500,260.760,-1232.220
715,55833.875000,121.881,-65.771,-58.317,324.798,-310.280,-312.075,1802.500,339.760,-949.220
716,55833.897000,129.713,-91.067,-42.502,340.245,-304.627,-303.495,1624.500,343.760,-717.220
717,55833.927000,118.945,-117.375,-18.780,364.376,-295.189,-290.151,1395.500,229.760,-539.220
718,55833.937000,122.860,-143.684,1.977,368.177,-292.327,-285.299,1253.500,134.760,-470.220
719,55833.960000,123.839,-167.968,8.896,385.513,-290.567,-270.841,925.500,-206.240,-360.220
720,55833.977000,121.881,-186.182,-5.931,394.190,-293.558,-262.131,579.500,-658.240,-275.220
721,55833.994000,96.428,-175.051,-25.699,395.005,-296.480,-251.313,319.500,-835.240,-184.220
722,55834.15000,71.954,-162.909,-33.606,397.803,-300.386,-241.513,187.500,-543.240,-69.220
723,55834.43000,75.870,-174.040,-28.664,393.977,-306.153,-243.408,90.500,-98.240,64.780
724,55834.75000,87.618,-182.134,-33.606,391.041,-306.126,-243.356,-36.500,134.760,186.780
725,55834.88000,108.176,-190.229,-27.676,394.972,-304.225,-245.397,-243.500,105.760,270.780
726,55834.105000,104.260,-186.182,-35.583,381.377,-304.095,-251.063,-456.500,68.760,349.780
727,55834.122000,104.260,-182.134,-37.560,383.492,-311.847,-256.014,-567.500,58.760,385.780
728,55834.140000,103.281,-167.968,-41.514,367.083,-315.555,-266.548,-757.500,113.760,468.780
729,55834.160000,107.197,-163.921,-38.548,344.882,-320.172,-280.917,-956.500,181.760,574.780
730,55834.182000,130.692,-144.696,-31.629,337.193,-322.029,-287.670,-1216.500,76.760,665.780
731,55834.200000,147.335,-127.494,-38.548,301.328,-328.456,-302.779,-1503.500,-198.240,780.780
732,55834.217000,149.293,-107.257,-61.282,294.663,-339.030,-307.571,-1750.500,-595.240,965.780
733,55834.236000,166.914,-90.055,-86.981,252.844,-358.959,-310.745,-1947.500,-1054.240,1190.780
734,55834.266000,163.977,-45.534,-76.108,230.445,-370.364,-310.336,-2077.500,-1281.240,1511.780
735,55834.289000,141.461,9.107,-84.015,184.618,-393.166,-306.545,-2098.500,-1154.240,1873.780
736,55834.304000,74.891,68.806,-136.402,136.935,-406.266,-313.561,-2065.500,-877.240,2061.780
737,55834.324000,79.786,76.901,-143.320,107.684,-405.993,-318.951,-2021.500,-64.240,2322.780
738,55834.345000,102.302,96.126,-147.274,47.182,-406.400,-326.740,-2073.500,399.760,2404.780
739,55834.362000,68.038,130.530,-176.927,21.810,-404.229,-331.216,-2161.500,302.760,2395.780
740,55834.385000,26.922,130.530,-198.672,-32.971,-394.051,-336.165,-2148.500,437.760,2413.780
741,55834.406000,43.564,148.743,-211.521,-66.260,-384.071,-339.526,-2179.500,825.760,2351.780
742,55834.442000,40.627,194.277,-214.486,-119.189,-368.109,-341.562,-2240.500,778.760,2143.780
743,55834.461000,18.111,239.810,-218.440,-138.855,-361.161,-339.253,-2268.500,831.760,2003.780
744,55834.480000,7.342,256.000,-242.162,-188.938,-335.552,-341.350,-2282.500,1049.760,1975.780
745,55834.490000,36.711,249.929,-275.768,-234.267,-306.123,-337.629,-2300.500,1364.760,1997.780
746,55834.507000,40.627,280.285,-279.722,-256.015,-289.486,-333.326,-2308.500,1178.760,1950.780
747,55834.532000,43.564,313.676,-290.595,-295.636,-266.895,-316.900,-2294.500,819.760,1929.780
748,55834.555000,43.564,336.949,-303.444,-318.499,-252.192,-303.715,-2221.500,449.760,1956.780
749,55834.575000,6.363,335.937,-332.108,-353.367,-227.718,-280.484,-2068.500,172.760,2000.780
750,55834.600000,-9.300,334.925,-318.270,-362.444,-218.942,-269.505,-1922.500,119.760,1932.780
751,55834.617000,-30.837,336.949,-320.247,-390.383,-197.429,-249.347,-1802.500,82.760,1764.780
752,55834.640000,-18.111,322.783,-317.282,-411.551,-176.952,-224.385,-1708.500,-157.240,1568.780
753,55834.660000,-30.837,328.854,-314.317,-425.529,-169.099,-212.333,-1642.500,-428.240,1466.780
754,55834.685000,-92.512,313.676,-310.363,-436.780,-157.414,-190.490,-1415.500,-726.240,1345.780
755,55834.698000,-121.881,289.391,-320.247,-439.015,-149.669,-178.646,-1180.500,-457.240,1284.780
756,55834.727000,-125.797,260.047,-319.259,-449.140,-138.952,-164.697,-960.500,-244.240,1033.780
757,55834.731000,-136.566,247.905,-327.166,-453.193,-136.988,-157.737,-753.500,-349.240,637.780
758,55834.758000,-151.250,251.953,-343.969,-457.290,-134.059,-148.807,-518.500,-406.240,258.780
759,55834.776000,-155.166,263.083,-345.946,-455.411,-133.114,-144.904,-242.500,-38.240,-18.220
760,55834.798000,-134.608,281.296,-341.992,-452.379,-137.975,-147.905,69.500,336.760,-219.220
761,55834.823000,-102.302,280.285,-329.143,-455.289,-136.978,-149.824,358.500,464.760,-400.220
762,55834.840000,-77.828,279.273,-315.305,-449.244,-140.894,-157.802,469.500,452.760,-493.220
763,55834.861000,-60.207,296.474,-316.293,-446.065,-142.843,-170.654,674.500,355.760,-651.220
764,55834.883000,-61.185,312.664,-321.236,-446.818,-148.628,-180.478,921.500,378.760,-709.220
765,55834.887000,-50.417,314.688,-338.039,-436.616,-154.501,-201.325,1219.500,628.760,-645.220
766,55834.916000,-8.321,348.079,-378.564,-425.401,-160.381,-224.159,1506.500,518.760,-491.220
767,55834.941000,34.753,384.506,-377.575,-415.348,-161.423,-239.103,1841.500,37.760,-377.220
768,55834.961000,23.006,384.506,-395.367,-401.103,-166.356,-267.898,2202.500,-137.240,-372.220
769,55834.984000,14.195,376.411,-397.344,-387.083,-171.302,-283.892,2520.500,147.760,-442.220
770,55835.5000,47.480,350.103,-382.517,-360.940,-176.333,-321.758,2639.500,216.760,-644.220
771,55835.27000,81.744,312.664,-351.876,-334.217,-181.396,-336.991,2866.500,163.760,-777.220
772,55835.50000,123.839,281.296,-316.293,-305.155,-188.391,-372.938,3022.500,6.760,-1030.220
773,55835.67000,148.314,257.012,-272.803,-273.485,-201.238,-387.265,3105.500,-271.240,-1265.220
774,55835.106000,157.124,218.561,-219.429,-227.907,-221.941,-409.705,3090.500,-636.240,-1521.220
775,55835.109000,162.019,186.182,-183.846,-174.534,-248.525,-427.354,2964.500,-1027.240,-1797.220
776,55835.135000,163.977,156.838,-154.193,-142.145,-265.268,-424.954,2773.500,-1407.240,-2093.220
777,55835.160000,146.356,130.530,-117.622,-90.978,-300.559,-423.849,2583.500,-1630.240,-2397.220
778,55835.167000,126.776,104.221,-97.853,-62.624,-313.401,-416.460,2370.500,-1602.240,-2627.220
779,55835.187000,117.966,86.008,-97.853,0.023,-337.199,-406.712,2269.500,-1514.240,-2707.220
780,55835.210000,138.524,76.901,-94.888,39.148,-349.170,-400.499,2105.500,-1324.240,-2780.220
781,55835.224000,151.250,67.794,-93.900,92.762,-367.093,-380.753,2001.500,-1312.240,-2719.220
782,55835.242000,151.250,39.462,-86.981,149.117,-371.503,-357.134,1910.500,-1363.240,-2603.220
783,55835.267000,134.608,7.083,-85.992,171.494,-374.619,-348.666,1810.500,-1192.240,-2399.220
784,55835.291000,129.713,-21.249,-88.958,218.937,-369.276,-323.916,1685.500,-888.240,-2148.220
785,55835.315000,119.924,-42.498,-79.073,247.148,-366.639,-316.542,1553.500,-701.240,-1901.220
786,55835.336000,115.029,-69.818,-62.270,285.888,-361.210,-297.545,1386.500,-514.240,-1655.220
787,55835.360000,94.470,-82.972,-71.166,303.327,-357.509,-289.982,1248.500,-306.240,-1338.220
788,55835.375000,92.512,-105.233,-60.293,318.676,-343.150,-280.426,1178.500,206.760,-1160.220
789,55835.392000,117.966,-126.482,-41.514,339.967,-334.648,-271.953,1019.500,356.760,-874.220
790,55835.420000,134.608,-143.684,-24.710,348.651,-326.991,-269.162,821.500,42.760,-657.220
791,55835.437000,109.155,-168.980,-13.838,359.259,-329.034,-259.503,576.500,-329.240,-457.220
792,55835.460000,95.449,-181.123,-13.838,367.996,-329.118,-255.719,326.500,-250.240,-196.220
793,55835.481000,108.176,-181.123,-18.780,365.026,-329.093,-253.698,68.500,-24.240,35.780
794,55835.500000,103.281,-185.170,-15.815,361.172,-328.086,-257.569,-151.500,-70.240,211.780
795,55835.522000,96.428,-172.016,-19.768,361.209,-335.827,-255.591,-371.500,-168.240,320.780
796,55835.538000,85.660,-149.755,-29.653,353.581,-338.649,-265.298,-478.500,-169.240,372.780
797,55835.554000,77.828,-136.601,-27.676,340.957,-343.367,-268.022,-670.500,36.760,503.780
798,55835.581000,101.323,-133.565,-30.641,320.633,-343.168,-280.461,-849.500,388.760,652.780
799,55835.601000,123.839,-119.399,-35.583,303.186,-345.902,-288.024,-1060.500,482.760,784.780
800,55835.624000,130.692,-99.162,-35.583,282.048,-346.652,-309.307,-1281.500,503.760,927.780
801,55835.656000,159.082,-89.043,-49.421,263.657,-349.375,-318.823,-1519.500,594.760,1098.780
802,55835.670000,170.830,-61.723,-83.027,232.674,-351.008,-335.994,-1757.500,325.760,1283.780
803,55835.702000,138.524,-33.391,-98.842,211.374,-356.607,-345.455,-1881.500,294.760,1587.780
804,55835.706000,118.945,-1.012,-90.934,162.813,-360.013,-363.296,-1978.500,765.760,1866.780
805,55835.720000,155.166,23.273,-79.073,112.242,-353.726,-383.082,-2054.500,937.760,1942.780
806,55835.756000,156.145,46.545,-118.610,88.766,-350.608,-384.639,-2281.500,664.760,1965.780
807,55835.774000,125.797,76.901,-178.903,29.285,-350.054,-395.401,-2472.500,229.760,1991.780
808,55835.792000,78.807,120.411,-187.799,-0.140,-342.047,-394.890,-2505.500,381.760,2092.780
809,55835.815000,76.849,137.613,-188.788,-57.884,-325.069,-401.764,-2510.500,967.760,2131.780
810,55835.824000,102.302,163.921,-207.568,-85.380,-314.178,-401.290,-2519.500,1076.760,1960.780
811,55835.846000,90.554,192.253,-225.359,-140.293,-295.296,-403.294,-2544.500,969.760,1799.780
812,55835.868000,95.449,215.526,-250.069,-187.527,-267.783,-401.506,-2574.500,1110.760,1690.780
813,55835.895000,87.618,235.763,-259.954,-214.166,-253.037,-396.130,-2570.500,1148.760,1612.780
814,55835.909000,99.365,262.071,-262.919,-256.759,-224.614,-380.643,-2545.500,1163.760,1572.780
815,55835.955000,118.945,273.202,-285.652,-269.749,-215.802,-369.594,-2478.500,1002.760,1495.780
816,55835.981000,104.260,271.178,-322.224,-311.327,-195.130,-352.147,-2395.500,557.760,1425.780
817,55835.991000,76.849,300.522,-303.444,-328.276,-181.446,-341.034,-2280.500,576.760,1413.780
818,55836.1000,89.576,306.593,-278.734,-361.195,-157.958,-316.852,-2173.500,821.760,1458.780
819,55836.17000,114.050,274.213,-286.641,-380.387,-145.240,-288.963,-2133.500,316.760,1381.780
820,55836.32000,69.996,284.332,-302.456,-396.322,-135.434,-277.863,-2050.500,-366.240,1261.780
821,55836.58000,-5.384,295.462,-344.958,-418.414,-124.623,-250.905,-1835.500,-422.240,1149.780
822,55836.88000,-56.291,291.415,-350.888,-423.540,-123.624,-238.018,-1705.500,-183.240,1061.780
823,55836.102000,-46.501,301.534,-344.958,-433.778,-111.946,-218.161,-1460.500,155.760,838.780
824,55836.116000,-10.279,314.688,-342.981,-441.781,-104.141,-212.122,-1257.500,-120.240,644.780
825,55836.137000,-25.943,306.593,-353.853,-443.052,-108.020,-193.390,-1008.500,-569.240,506.780
826,55836.160000,-60.207,284.332,-357.807,-447.184,-101.222,-184.465,-698.500,-539.240,405.780
827,55836.180000,-55.312,254.988,-350.888,-450.188,-105.070,-178.501,-364.500,-324.240,246.780
828,55836.196000,-60.207,240.822,-350.888,-450.233,-98.298,-179.492,-50.500,-141.240,124.780
829,55836.228000,-39.648,238.798,-333.097,-449.210,-103.143,-179.505,229.500,28.760,5.780
830,55836.235000,-30.837,245.881,-309.375,-453.921,-104.057,-189.265,499.500,9.760,-165.220
831,55836.257000,-36.711,253.976,-293.560,-446.032,-103.157,-193.343,613.500,8.760,-286.220
832,55836.287000,-47.480,256.000,-291.583,-440.809,-110.926,-208.193,821.500,17.760,-510.220
833,55836.302000,-42.585,262.071,-290.595,-440.678,-115.758,-213.112,1001.500,180.760,-654.220
834,55836.319000,-32.795,278.261,-278.734,-426.572,-120.699,-234.030,1162.500,282.760,-704.220
835,55836.350000,-19.090,288.379,-282.687,-416.334,-130.441,-254.873,1312.500,326.760,-753.220
836,55836.387000,9.300,271.178,-277.745,-412.272,-133.372,-261.832,1429.500,47.760,-936.220
837,55836.396000,7.342,256.000,-297.514,-395.141,-149.950,-281.805,1515.500,-373.240,-1227.220
838,55836.410000,3.426,264.095,-324.201,-377.291,-162.680,-288.997,1610.500,-414.240,-1444.220
839,55836.428000,17.132,282.308,-338.039,-354.228,-178.339,-313.014,1776.500,-53.240,-1551.220
840,55836.453000,69.017,288.379,-321.236,-345.160,-188.084,-323.007,1902.500,75.760,-1606.220
841,55836.471000,80.765,284.332,-322.224,-303.428,-202.940,-352.278,2169.500,170.760,-1655.220
842,55836.488000,110.134,283.320,-312.340,-267.663,-214.845,-377.508,2356.500,223.760,-1587.220
843,55836.511000,142.440,265.107,-289.606,-252.751,-219.805,-388.595,2501.500,93.760,-1435.220
844,55836.533000,151.250,247.905,-279.722,-209.270,-232.755,-407.069,2597.500,-106.240,-1306.220
845,55836.540000,136.566,197.312,-223.382,-183.542,-241.681,-419.327,2674.500,-299.240,-1248.220
846,55836.559000,138.524,166.957,-212.510,-138.242,-254.657,-429.958,2641.500,-447.240,-1235.220
847,55836.591000,124.818,158.862,-192.741,-118.568,-258.701,-434.239,2590.500,-553.240,-1230.220
848,55836.614000,116.008,134.577,-168.031,-70.367,-271.705,-442.952,2570.500,-530.240,-1178.220
849,55836.633000,127.755,113.328,-153.205,-19.518,-281.848,-436.949,2531.500,-428.240,-1155.220
850,55836.651000,120.902,92.079,-146.286,2.123,-288.813,-440.277,2494.500,-474.240,-1118.220
851,55836.678000,121.881,61.723,-132.448,52.902,-293.153,-433.295,2455.500,-445.240,-1052.220
852,55836.696000,133.629,29.344,-120.587,72.473,-299.138,-430.681,2389.500,-455.240,-1021.220
853,55836.714000,122.860,3.036,-112.680,112.403,-309.193,-415.624,2299.500,-695.240,-1051.220
854,55836.736000,101.323,-23.273,-104.772,138.738,-315.245,-408.207,2179.500,-812.240,-1085.220
855,55836.758000,76.849,-40.474,-93.900,179.610,-319.503,-394.159,2033.500,-545.240,-1070.220
856,55836.781000,71.954,-57.676,-88.958,203.768,-312.967,-380.811,1912.500,16.760,-946.220
857,55836.801000,91.533,-77.913,-74.131,235.988,-309.393,-379.417,1862.500,255.760,-862.220
858,55836.833000,119.924,-103.209,-57.328,268.009,-302.927,-368.177,1726.500,446.760,-720.220
859,55836.866000,128.734,-110.292,-50.409,276.657,-295.273,-363.417,1551.500,169.760,-634.220
860,55836.866000,105.239,-122.435,-37.560,298.851,-295.495,-346.089,1371.500,-187.240,-559.220
861,55836.897000,78.807,-148.743,-29.653,319.409,-298.585,-345.465,1166.500,-210.240,-428.220
862,55836.900000,81.744,-162.909,-21.745,332.838,-293.885,-332.910,930.500,-33.240,-288.220
863,55836.922000,84.681,-168.980,-2.965,329.825,-294.831,-327.934,676.500,-0.240,-179.220
864,55836.941000,88.597,-179.099,14.826,335.541,-294.893,-319.175,389.500,-123.240,-110.220
865,55836.966000,80.765,-187.194,2.965,340.398,-294.939,-317.292,93.500,-212.240,-45.220
866,55836.986000,74.891,-185.170,-6.919,339.351,-294.934,-313.335,-39.500,-305.240,-12.220
867,55837.3000,61.185,-178.087,-13.838,336.520,-296.837,-318.205,-278.500,-264.240,62.780
868,55837.26000,60.207,-172.016,-21.745,334.677,-305.524,-320.131,-471.500,-34.240,152.780
869,55837.42000,69.017,-161.897,-27.676,324.025,-300.581,-328.809,-631.500,160.760,204.780
870,55837.60000,70.975,-157.850,-25.699,313.400,-298.539,-337.483,-792.500,276.760,240.780
871,55837.85000,94.470,-154.814,-32.618,297.934,-298.386,-348.039,-984.500,251.760,256.780
872,55837.107000,106.218,-134.577,-35.583,276.571,-297.213,-357.507,-1182.500,69.760,273.780
873,55837.145000,97.407,-122.435,-37.560,273.810,-301.048,-365.329,-1398.500,54.760,362.780
874,55837.174000,108.176,-112.316,-58.317,250.576,-297.917,-380.673,-1502.500,74.760,426.780
875,55837.176000,120.902,-109.281,-80.062,229.085,-301.591,-380.288,-1685.500,-18.240,577.780
876,55837.195000,135.587,-83.984,-84.015,198.095,-308.063,-394.499,-1833.500,-162.240,700.780
877,55837.218000,134.608,-52.617,-85.004,174.707,-310.748,-398.020,-1932.500,-220.240,833.780
878,55837.241000,115.029,-17.202,-96.865,135.784,-313.284,-408.157,-2027.500,17.760,1001.780
879,55837.254000,136.566,-2.024,-112.680,89.950,-307.049,-419.167,-2141.500,377.760,1162.780
880,55837.276000,158.103,14.166,-127.506,76.346,-305.952,-424.835,-2290.500,423.760,1248.780
881,55837.301000,162.998,41.486,-134.425,22.527,-297.719,-427.830,-2442.500,321.760,1297.780
882,55837.318000,167.893,77.913,-149.251,-4.819,-297.467,-430.300,-2539.500,247.760,1379.780
883,55837.335000,151.250,100.174,-171.985,-59.720,-291.167,-426.382,-2563.500,266.760,1420.780
884,55837.353000,157.124,126.482,-190.764,-76.400,-284.243,-427.080,-2635.500,332.760,1460.780
885,55837.376000,153.208,165.945,-210.533,-132.393,-273.102,-419.211,-2667.500,301.760,1500.780
886,55837.399000,137.545,199.336,-215.475,-158.279,-254.505,-403.024,-2699.500,488.760,1579.780
887,55837.422000,131.671,227.668,-244.139,-207.310,-246.323,-400.197,-2699.500,683.760,1664.780
888,55837.440000,146.356,253.976,-264.896,-249.865,-229.513,-380.759,-2627.500,555.760,1648.780
889,55837.462000,118.945,282.308,-244.139,-277.552,-214.762,-371.426,-2536.500,519.760,1629.780
890,55837.480000,101.323,294.451,-255.012,-315.363,-193.165,-346.171,-2488.500,450.760,1661.780
891,55837.507000,90.554,312.664,-296.525,-327.323,-184.360,-338.094,-2351.500,306.760,1709.780
892,55837.521000,65.101,324.806,-305.421,-356.388,-163.814,-309.055,-2240.500,79.760,1732.780
893,55837.559000,11.258,332.901,-309.375,-380.116,-155.871,-298.800,-1983.500,335.760,1784.780
894,55837.567000,-16.153,322.783,-309.375,-402.325,-126.677,-274.814,-1807.500,702.760,1778.780
895,55837.590000,24.964,315.700,-310.363,-419.492,-106.230,-254.845,-1680.500,374.760,1607.780
896,55837.605000,9.300,315.700,-313.328,-426.603,-98.439,-243.900,-1563.500,-190.240,1349.780
897,55837.628000,-28.880,307.605,-326.178,-438.772,-87.709,-224.992,-1426.500,-255.240,1041.780
898,55837.651000,-43.564,289.391,-320.247,-443.890,-83.806,-214.077,-1285.500,-65.240,759.780
899,55837.666000,9.300,251.953,-326.178,-448.160,-78.951,-196.287,-1125.500,-51.240,519.780
900,55837.686000,14.195,244.870,-327.166,-458.058,-74.029,-192.180,-1025.500,-182.240,415.780
901,55837.702000,0.489,232.727,-340.015,-460.240,-74.023,-179.344,-772.500,-430.240,278.780
902,55837.716000,-22.027,229.692,-348.911,-464.293,-72.060,-172.383,-448.500,-436.240,210.780
903,55837.735000,-23.006,235.763,-343.969,-460.448,-72.099,-168.513,-96.500,-140.240,172.780
904,55837.762000,-4.405,245.881,-334.085,-457.323,-72.115,-179.397,226.500,139.760,95.780
905,55837.791000,1.468,252.964,-321.236,-463.185,-71.094,-180.279,508.500,145.760,-55.220
906,55837.808000,-0.489,258.024,-319.259,-447.347,-74.129,-189.416,745.500,38.760,-239.220
907,55837.831000,-1.468,272.190,-318.270,-453.071,-73.100,-198.176,953.500,-144.240,-433.220
908,55837.853000,-36.711,269.154,-317.282,-445.830,-83.787,-215.027,1189.500,-111.240,-579.220
909,55837.871000,-23.985,278.261,-310.363,-437.576,-90.610,-235.839,1286.500,68.760,-641.220
910,55837.894000,5.384,292.427,-321.236,-425.573,-98.445,-246.871,1477.500,243.760,-789.220
911,55837.910000,42.585,297.486,-337.050,-412.278,-112.079,-272.686,1647.500,-13.240,-1023.220
912,55837.936000,31.816,315.700,-362.749,-404.240,-121.817,-279.708,1850.500,-377.240,-1276.220
913,55837.965000,42.585,317.723,-347.923,-380.078,-135.543,-311.622,2060.500,-50.240,-1315.220
914,55837.975000,139.503,303.557,-321.236,-362.195,-142.463,-323.744,2216.500,86.760,-1374.220
915,55837.991000,157.124,276.237,-307.398,-332.194,-165.924,-348.859,2379.500,-798.240,-1571.220
916,55838.12000,95.449,256.000,-301.467,-315.209,-183.477,-359.968,2467.500,-1268.240,-1788.220
917,55838.35000,79.786,233.739,-287.629,-273.465,-214.788,-381.343,2497.500,-1077.240,-1895.220
918,55838.57000,121.881,222.609,-248.093,-228.977,-236.456,-396.872,2504.500,-503.240,-1885.220
919,55838.80000,163.977,207.431,-231.290,-209.163,-244.364,-407.057,2514.500,-656.240,-1915.220
920,55838.100000,133.629,195.289,-229.313,-153.088,-271.955,-410.971,2553.500,-1114.240,-2011.220
921,55838.122000,103.281,181.123,-206.579,-120.534,-287.720,-418.419,2584.500,-871.240,-2012.220
922,55838.137000,127.755,158.862,-177.915,-67.598,-300.778,-418.356,2571.500,-530.240,-1987.220
923,55838.160000,134.608,128.506,-166.054,-47.948,-307.727,-419.680,2492.500,-596.240,-1921.220
924,55838.182000,140.482,101.186,-160.124,9.777,-320.835,-413.795,2404.500,-774.240,-1848.220
925,55838.189000,125.797,93.091,-134.425,65.511,-333.927,-405.906,2357.500,-758.240,-1720.220
926,55838.221000,96.428,67.794,-122.564,90.848,-334.164,-400.447,2340.500,-637.240,-1649.220
927,55838.239000,102.302,32.379,-103.784,134.664,-331.673,-390.396,2258.500,-233.240,-1505.220
928,55838.263000,117.966,13.154,-93.900,164.928,-333.889,-386.007,2122.500,-45.240,-1383.220
929,55838.286000,127.755,0.000,-87.969,197.919,-328.399,-373.799,2007.500,-155.240,-1252.220
930,55838.323000,106.218,-22.261,-67.212,211.452,-323.694,-367.153,1934.500,-71.240,-1060.220
931,55838.335000,108.176,-60.711,-51.398,258.167,-319.295,-356.171,1801.500,187.760,-842.220
932,55838.363000,129.713,-92.079,-48.432,276.567,-315.604,-347.641,1614.500,162.760,-660.220
933,55838.363000,124.818,-104.221,-43.490,292.994,-313.831,-337.104,1442.500,87.760,-472.220
934,55838.394000,107.197,-121.423,-28.664,315.359,-310.172,-331.598,1293.500,231.760,-266.220
935,55838.415000,102.302,-148.743,-24.710,312.242,-307.252,-322.686,1206.500,287.760,-181.220
936,55838.430000,104.260,-167.968,-4.942,325.818,-303.511,-318.008,991.500,310.760,-62.220
937,55838.452000,98.386,-181.123,-0.988,329.620,-302.585,-312.170,716.500,167.760,13.780
938,55838.472000,89.576,-194.277,-1.977,336.469,-300.712,-313.277,427.500,118.760,92.780
939,55838.490000,84.681,-197.312,-19.768,341.275,-302.697,-307.453,166.500,63.760,135.780
940,55838.507000,82.723,-195.289,-11.861,339.379,-303.644,-310.372,-46.500,57.760,126.780
941,55838.541000,64.122,-194.277,-18.780,334.625,-305.527,-317.177,-247.500,252.760,148.780
942,55838.550000,86.639,-192.253,-26.687,323.887,-302.524,-319.944,-473.500,276.760,180.780
943,55838.571000,105.239,-176.063,-29.653,314.249,-301.459,-328.635,-687.500,187.760,227.780
944,55838.595000,94.470,-156.838,-29.653,313.366,-302.413,-333.540,-779.500,142.760,264.780
945,55838.617000,90.554,-135.589,-23.722,301.883,-300.356,-349.091,-941.500,375.760,399.780
946,55838.640000,93.491,-121.423,-25.699,285.335,-300.199,-353.720,-1125.500,635.760,565.780
947,55838.664000,110.134,-114.340,-35.583,257.278,-297.020,-372.917,-1315.500,599.760,691.780
948,55838.677000,118.945,-98.150,-34.595,236.955,-296.820,-385.355,-1505.500,510.760,805.780
949,55838.705000,117.966,-60.711,-31.629,218.624,-298.572,-398.811,-1685.500,634.760,950.780
950,55838.729000,119.924,-41.486,-32.618,177.723,-287.541,-414.836,-1925.500,697.760,1046.780
951,55838.751000,128.734,-25.296,-72.154,154.369,-286.352,-422.300,-2132.500,715.760,1058.780
952,55838.757000,126.776,3.036,-85.992,111.590,-278.202,-441.242,-2199.500,794.760,1062.780
953,55838.775000,147.335,5.059,-116.633,86.146,-266.356,-446.712,-2314.500,1029.760,1083.780
954,55838.797000,151.250,46.545,-130.471,37.243,-249.455,-455.711,-2456.500,1070.760,1054.780
955,55838.822000,158.103,67.794,-131.459,-12.637,-236.417,-462.720,-2592.500,972.760,1060.780
956,55838.844000,160.061,77.913,-181.869,-33.161,-229.454,-467.287,-2745.500,840.760,1066.780
957,55838.864000,133.629,112.316,-198.672,-79.414,-213.564,-459.596,-2865.500,561.760,1043.780
958,55838.886000,93.491,141.660,-218.440,-114.666,-210.342,-458.976,-2891.500,567.760,1061.780
959,55838.904000,113.071,162.909,-229.313,-162.010,-193.481,-445.360,-2906.500,780.760,1026.780
960,55838.921000,118.945,186.182,-262.919,-189.592,-182.596,-439.963,-2923.500,468.760,889.780
961,55838.945000,92.512,223.621,-275.768,-228.179,-173.561,-419.602,-2916.500,269.760,818.780
962,55838.962000,67.059,251.953,-274.780,-269.702,-164.501,-399.189,-2839.500,248.760,702.780
963,55838.982000,83.702,245.881,-280.710,-286.606,-159.525,-386.097,-2712.500,589.760,616.780
964,55839.5000,112.092,259.036,-289.606,-319.488,-143.778,-359.938,-2623.500,639.760,485.780
965,55839.22000,113.071,281.296,-286.641,-340.350,-135.866,-345.796,-2542.500,396.760,404.780
966,55839.65000,121.881,293.439,-309.375,-363.341,-131.817,-319.798,-2464.500,143.760,330.780
967,55839.79000,102.302,311.652,-334.085,-375.368,-130.758,-303.835,-2305.500,-99.240,319.780
968,55839.106000,107.197,317.723,-340.015,-393.475,-127.722,-276.938,-2062.500,9.760,417.780
969,55839.109000,95.449,307.605,-369.668,-409.548,-121.796,-255.987,-1720.500,65.760,611.780
970,55839.136000,87.618,272.190,-381.529,-421.524,-116.863,-244.952,-1546.500,13.760,723.780
971,55839.150000,45.522,253.976,-389.436,-431.674,-110.987,-227.059,-1190.500,-457.240,913.780
972,55839.167000,-22.027,267.130,-376.587,-436.767,-106.114,-218.115,-850.500,-760.240,908.780
973,55839.195000,-85.660,269.154,-358.795,-444.725,-103.147,-212.071,-509.500,-670.240,642.780
974,55839.222000,-101.323,260.047,-325.189,-438.906,-103.203,-209.220,-252.500,-252.240,238.780
975,55839.232000,-85.660,256.000,-295.537,-436.930,-109.027,-207.280,-48.500,26.760,-129.220
976,55839.257000,-76.849,237.787,-271.815,-440.827,-107.055,-209.182,157.500,103.760,-382.220
977,55839.274000,-56.291,234.751,-262.919,-439.744,-110.930,-213.134,369.500,33.760,-614.220
978,55839.300000,-52.375,243.858,-265.884,-431.628,-121.632,-224.094,472.500,-11.240,-722.220
979,55839.327000,-49.438,236.775,-263.907,-422.707,-128.481,-227.198,661.500,111.760,-848.220
980,55839.346000,-14.195,247.905,-260.942,-415.571,-135.302,-240.114,825.500,346.760,-911.220
981,55839.360000,10.279,251.953,-270.826,-415.371,-140.130,-248.972,986.500,354.760,-957.220
982,55839.381000,24.964,256.000,-288.618,-401.315,-148.946,-264.961,1155.500,300.760,-973.220
983,55839.407000,41.606,256.000,-313.328,-388.396,-148.082,-277.004,1352.500,342.760,-928.220
984,55839.422000,80.765,261.059,-366.703,-373.240,-158.836,-298.918,1578.500,256.760,-918.220
985,55839.445000,83.702,281.296,-386.471,-354.214,-164.788,-320.906,1871.500,246.760,-874.220
986,55839.465000,92.512,301.534,-389.436,-338.264,-166.849,-336.937,2204.500,469.760,-682.220
987,55839.477000,133.629,304.569,-377.575,-305.498,-166.148,-365.082,2350.500,488.760,-578.220
988,55839.505000,160.061,300.522,-354.842,-294.458,-166.231,-381.028,2634.500,153.760,-420.220
989,55839.514000,139.503,294.451,-333.097,-258.720,-173.297,-407.248,2867.500,-173.240,-310.220
990,55839.533000,128.734,283.320,-298.502,-230.093,-172.573,-422.522,3008.500,-36.240,-211.220
991,55839.565000,143.419,252.964,-277.745,-186.658,-174.879,-443.962,3090.500,64.760,-165.220
992,55839.602000,163.977,224.632,-235.243,-144.217,-184.920,-460.452,3109.500,-213.240,-249.220
993,55839.611000,169.851,200.348,-200.649,-122.533,-192.850,-465.749,3080.500,-707.240,-404.220
994,55839.627000,148.314,166.957,-176.927,-68.486,-210.749,-470.622,2972.500,-860.240,-509.220
995,55839.644000,134.608,137.613,-158.147,-37.130,-215.871,-471.171,2831.500,-840.240,-595.220
996,55839.665000,133.629,120.411,-141.344,1.148,-234.601,-468.873,2761.500,-824.240,-638.220
997,55839.681000,143.419,86.008,-111.691,28.513,-240.660,-464.427,2603.500,-987.240,-782.220
998,55839.712000,143.419,70.830,-94.888,77.391,-262.401,-451.484,2446.500,-1230.240,-941.220
999,55839.735000,131.671,43.510,-89.946,122.267,-278.304,-436.508,2304.500,-1373.240,-1040.220
1000,55839.750000,123.839,8.095,-79.073,134.851,-288.107,-423.922,2138.500,-1295.240,-1093.220
