Sample, Time, ACCX, ACCY, ACCZ, MAGX, MAGY, MAGZ, GYRX, GYRY, GYRZ
0,55762.300000,-44.543,35.415,-240.185,-73.271,-392.729,-325.609,-3.500,-12.240,4.780
1,55762.328000,-43.564,36.427,-241.174,-72.336,-391.772,-323.658,1.500,-0.240,9.780
2,55762.347000,-42.585,35.415,-240.185,-72.327,-392.740,-323.657,3.500,-11.240,13.780
3,55762.368000,-46.501,36.427,-239.197,-69.374,-392.765,-324.694,4.500,-10.240,14.780
4,55762.391000,-42.585,33.391,-238.208,-73.254,-392.728,-326.594,4.500,13.760,17.780
5,55762.413000,-43.564,34.403,-238.208,-68.379,-392.773,-325.696,1.500,-0.240,18.780
6,55762.441000,-42.585,35.415,-238.208,-73.201,-394.661,-328.562,-0.500,-14.240,23.780
7,55762.448000,-44.543,35.415,-236.232,-72.258,-392.736,-327.596,1.500,-12.240,25.780
8,55762.472000,-43.564,33.391,-237.220,-74.276,-389.818,-325.595,1.500,-3.240,30.780
9,55762.495000,-43.564,35.415,-238.208,-78.242,-389.785,-322.572,-4.500,-20.240,28.780
10,55762.512000,-46.501,34.403,-239.197,-71.331,-392.747,-324.659,-5.500,-27.240,27.780
11,55762.540000,-48.459,36.427,-237.220,-74.267,-392.721,-324.607,-5.500,-7.240,21.780
12,55762.555000,-46.501,35.415,-236.232,-71.323,-393.715,-324.658,-9.500,3.760,15.780
13,55762.564000,-45.522,35.415,-236.232,-76.232,-393.671,-323.587,-15.500,-2.240,17.780
14,55762.583000,-45.522,37.439,-236.232,-79.221,-387.840,-323.541,-20.500,-4.240,18.780
15,55762.615000,-44.543,34.403,-237.220,-75.254,-391.744,-324.591,-23.500,-12.240,17.780
16,55762.638000,-45.522,35.415,-238.208,-76.285,-389.803,-322.606,-24.500,-22.240,17.780
17,55762.655000,-47.480,35.415,-239.197,-75.262,-394.649,-322.619,-26.500,-31.240,16.780
18,55762.673000,-48.459,35.415,-239.197,-68.396,-392.774,-324.711,-22.500,-10.240,14.780
19,55762.699000,-46.501,35.415,-240.185,-79.185,-393.646,-322.550,-23.500,-3.240,9.780
20,55762.719000,-44.543,36.427,-239.197,-80.234,-389.769,-320.567,-26.500,-16.240,6.780
21,55762.739000,-47.480,37.439,-240.185,-77.237,-392.696,-322.586,-26.500,-9.240,6.780
22,55762.762000,-46.501,39.462,-239.197,-76.293,-394.643,-319.647,-24.500,9.760,8.780
23,55762.781000,-44.543,39.462,-241.174,-79.212,-390.743,-322.553,-23.500,-13.240,6.780
24,55762.799000,-44.543,39.462,-240.185,-79.245,-394.617,-318.610,-19.500,-18.240,7.780
25,55762.841000,-48.459,37.439,-241.174,-80.172,-394.605,-321.547,-13.500,-5.240,15.780
26,55762.850000,-44.543,39.462,-241.174,-79.229,-390.744,-321.569,-9.500,1.760,18.780
27,55762.869000,-44.543,39.462,-239.197,-68.456,-393.745,-320.771,-6.500,-20.240,21.780
28,55762.886000,-48.459,36.427,-240.185,-75.323,-395.620,-318.679,-6.500,-13.240,25.780
29,55762.906000,-48.459,39.462,-239.197,-75.219,-395.614,-324.587,-3.500,-11.240,22.780
30,55762.915000,-48.459,38.451,-238.208,-79.211,-392.679,-321.567,-1.500,-11.240,12.780
31,55762.943000,-49.438,39.462,-240.185,-74.318,-394.659,-320.666,-3.500,-6.240,2.780
32,55762.974000,-47.480,38.451,-238.208,-74.310,-393.691,-321.652,-5.500,-0.240,-0.220
33,55762.989000,-46.501,39.462,-239.197,-77.237,-392.696,-322.586,-6.500,-2.240,0.780
34,55763.14000,-48.459,39.462,-239.197,-76.276,-390.770,-322.605,-5.500,-8.240,-1.220
35,55763.33000,-47.480,40.474,-239.197,-83.134,-391.676,-321.498,-1.500,-9.240,1.780
36,55763.48000,-46.501,40.474,-239.197,-82.129,-394.587,-321.513,3.500,-5.240,6.780
37,55763.70000,-45.522,38.451,-239.197,-80.259,-392.674,-317.610,4.500,-13.240,10.780
38,55763.96000,-47.480,39.462,-238.208,-78.242,-391.721,-321.585,5.500,-11.240,9.780
39,55763.119000,-47.480,36.427,-239.197,-79.238,-389.777,-321.569,5.500,1.760,8.780
40,55763.155000,-47.480,38.451,-236.232,-78.242,-391.721,-321.585,-0.500,4.760,2.780
41,55763.169000,-48.459,37.439,-234.255,-74.318,-394.659,-320.666,-5.500,-1.240,-5.220
42,55763.183000,-47.480,38.451,-232.278,-83.108,-390.707,-323.469,-6.500,4.760,-5.220
43,55763.203000,-43.564,36.427,-234.255,-82.182,-390.719,-320.532,-16.500,13.760,-3.220
44,55763.218000,-44.543,38.451,-232.278,-81.169,-390.726,-322.519,-28.500,-20.240,-8.220
45,55763.240000,-47.480,37.439,-235.243,-79.220,-391.712,-321.568,-38.500,-50.240,-11.220
46,55763.254000,-49.438,38.451,-237.220,-74.328,-389.820,-322.641,-42.500,-55.240,-14.220
47,55763.276000,-49.438,36.427,-238.208,-85.090,-395.530,-319.490,-37.500,-35.240,-14.220
48,55763.296000,-51.396,37.439,-240.185,-76.319,-393.676,-318.663,-29.500,1.760,-12.220
49,55763.314000,-47.480,37.439,-240.185,-82.164,-392.653,-320.530,-24.500,37.760,-7.220
50,55763.336000,-45.522,40.474,-240.185,-82.260,-389.755,-316.594,-22.500,31.760,-7.220
51,55763.361000,-49.438,39.462,-240.185,-83.090,-394.577,-322.480,-20.500,0.760,-8.220
52,55763.384000,-49.438,39.462,-240.185,-83.169,-391.678,-319.529,-15.500,19.760,-5.220
53,55763.404000,-45.522,39.462,-240.185,-78.259,-391.722,-320.600,-13.500,38.760,-4.220
54,55763.430000,-44.543,38.451,-239.197,-84.147,-391.669,-319.512,-18.500,4.760,-9.220
55,55763.448000,-48.459,38.451,-241.174,-82.129,-394.587,-321.513,-20.500,-21.240,-12.220
56,55763.470000,-49.438,41.486,-241.174,-77.325,-388.829,-319.636,-14.500,-2.240,-7.220
57,55763.499000,-46.501,39.462,-241.174,-81.186,-392.662,-320.547,-7.500,9.760,-7.220
58,55763.513000,-45.522,38.451,-238.208,-82.208,-391.688,-318.561,-6.500,3.760,-9.220
59,55763.521000,-45.522,40.474,-238.208,-84.086,-392.634,-322.465,-8.500,2.760,-7.220
60,55763.544000,-45.522,40.474,-238.208,-78.215,-394.623,-321.582,-5.500,2.760,-9.220
61,55763.564000,-42.585,37.439,-236.232,-82.121,-391.683,-323.485,-6.500,-6.240,-8.220
62,55763.583000,-37.690,38.451,-234.255,-86.035,-393.583,-322.429,-20.500,-56.240,-2.220
63,55763.600000,-37.690,40.474,-232.278,-82.154,-397.492,-318.556,-34.500,-141.240,7.780
64,55763.623000,-49.438,42.498,-235.243,-77.279,-397.538,-317.657,-36.500,-175.240,15.780
65,55763.645000,-57.270,43.510,-238.208,-87.091,-392.611,-318.474,-22.500,-57.240,21.780
66,55763.668000,-54.333,42.498,-237.220,-85.099,-394.563,-319.491,-7.500,81.760,20.780
67,55763.698000,-47.480,40.474,-237.220,-86.147,-394.558,-315.535,-7.500,93.760,12.780
68,55763.708000,-43.564,40.474,-238.208,-82.172,-395.558,-318.557,-13.500,67.760,6.780
69,55763.724000,-44.543,40.474,-238.208,-81.229,-393.633,-317.592,-21.500,3.760,-1.220
70,55763.754000,-51.396,42.498,-240.185,-87.064,-395.513,-318.471,-23.500,-9.240,-4.220
71,55763.776000,-50.417,41.486,-242.162,-87.109,-388.740,-319.463,-17.500,22.760,-1.220
72,55763.796000,-50.417,43.510,-243.151,-89.984,-391.614,-321.377,-7.500,44.760,-0.220
73,55763.819000,-48.459,42.498,-240.185,-87.073,-394.546,-318.472,-1.500,53.760,1.780
74,55763.834000,-45.522,44.522,-242.162,-85.064,-394.561,-321.461,1.500,26.760,1.780
75,55763.856000,-45.522,43.510,-239.197,-84.086,-394.570,-321.478,1.500,-3.240,0.780
76,55763.874000,-47.480,41.486,-238.208,-82.164,-392.653,-320.530,3.500,-8.240,1.780
77,55763.901000,-48.459,41.486,-241.174,-87.092,-388.739,-320.447,5.500,15.760,1.780
78,55763.949000,-44.543,42.498,-240.185,-90.027,-390.648,-319.409,3.500,18.760,0.780
79,55763.952000,-46.501,44.522,-240.185,-79.237,-393.649,-319.596,3.500,-6.240,-2.220
80,55763.964000,-46.501,42.498,-239.197,-83.134,-393.612,-320.512,10.500,7.760,-0.220
81,55763.979000,-46.501,43.510,-238.208,-86.017,-393.582,-323.414,13.500,35.760,3.780
82,55764.6000,-44.543,43.510,-237.220,-86.061,-392.617,-321.445,14.500,28.760,6.780
83,55764.26000,-42.585,42.498,-237.220,-83.169,-391.678,-319.529,14.500,4.760,5.780
84,55764.44000,-45.522,41.486,-237.220,-85.109,-387.788,-322.452,11.500,9.760,10.780
85,55764.61000,-45.522,41.486,-237.220,-85.074,-389.722,-323.435,9.500,12.760,12.780
86,55764.84000,-43.564,42.498,-235.243,-81.151,-392.660,-322.517,6.500,8.760,7.780
87,55764.106000,-44.543,42.498,-235.243,-80.155,-392.668,-323.519,2.500,-6.240,4.780
88,55764.125000,-43.564,40.474,-235.243,-89.014,-390.655,-321.396,-3.500,-10.240,8.780
89,55764.146000,-43.564,41.486,-236.232,-87.040,-390.672,-322.415,-8.500,-18.240,10.780
90,55764.174000,92.512,309.628,-178.903,-96.077,-401.252,-303.538,-196.500,-981.240,667.780
91,55764.193000,-31.816,-31.368,-202.625,-87.252,-405.203,-302.705,-123.500,-1039.240,-54.220
92,55764.211000,-176.704,5.059,-254.023,-88.162,-405.190,-306.627,75.500,261.760,-117.220
93,55764.220000,-80.765,46.545,-248.093,-89.193,-399.377,-306.615,104.500,595.760,-81.220
94,55764.239000,-35.732,20.237,-253.035,-91.975,-393.534,-318.386,78.500,694.760,-47.220
95,55764.266000,-39.648,71.842,-263.907,-91.976,-389.662,-320.360,-148.500,555.760,-48.220
96,55764.289000,-16.153,73.866,-257.977,-89.024,-385.816,-323.370,-82.500,350.760,-87.220
97,55764.306000,-30.837,38.451,-253.035,-82.096,-386.842,-327.429,-14.500,13.760,-63.220
98,55764.329000,-50.417,51.605,-255.012,-86.027,-390.679,-324.402,-25.500,-164.240,-69.220
99,55764.351000,-51.396,47.557,-251.058,-84.078,-391.665,-323.451,12.500,-25.240,-41.220
100,55764.370000,-36.711,45.534,-245.127,-87.993,-389.694,-324.368,41.500,78.760,-13.220
101,55764.388000,-33.774,45.534,-241.174,-81.161,-387.821,-324.491,55.500,-6.240,-13.220
102,55764.422000,-43.564,42.498,-241.174,-82.157,-387.814,-323.489,58.500,-54.240,-10.220
103,55764.443000,-43.564,44.522,-240.185,-86.036,-387.776,-325.389,56.500,-52.240,-5.220
104,55764.461000,-44.543,43.510,-237.220,-88.945,-390.651,-325.335,60.500,-28.240,5.780
105,55764.478000,-42.585,42.498,-235.243,-83.057,-388.768,-327.410,62.500,-12.240,10.780
106,55764.495000,-40.627,40.474,-234.255,-79.273,-389.779,-319.600,60.500,-15.240,9.780
107,55764.513000,-44.543,38.451,-233.266,-85.022,-389.719,-326.390,49.500,-31.240,13.780
108,55764.529000,-48.459,41.486,-233.266,-85.126,-389.725,-320.481,40.500,-23.240,7.780
109,55764.546000,-47.480,41.486,-232.278,-78.164,-390.748,-326.510,33.500,7.760,-5.220
110,55764.574000,-42.585,39.462,-235.243,-80.147,-389.764,-325.491,21.500,-6.240,-10.220
111,55764.596000,-44.543,39.462,-236.232,-83.074,-390.705,-325.438,16.500,-25.240,-13.220
112,55764.619000,73.912,89.043,-6.919,-82.123,-385.876,-326.445,-536.500,471.760,-314.220
113,55764.636000,-56.291,-56.664,-203.614,-87.133,-397.453,-313.545,-575.500,-780.240,528.780
114,55764.664000,-153.208,16.190,-248.093,-85.176,-397.471,-313.580,-96.500,-404.240,-76.220
115,55764.679000,-62.164,52.617,-243.151,-88.034,-396.472,-318.453,165.500,385.760,-149.220
116,55764.696000,-35.732,48.569,-232.278,-84.156,-390.702,-319.513,204.500,413.760,-29.220
117,55764.729000,-23.006,31.368,-238.208,-84.096,-389.731,-323.453,-142.500,63.760,-12.220
118,55764.750000,-52.375,72.854,-264.896,-84.069,-392.633,-323.450,-97.500,-5.240,-119.220
119,55764.768000,-35.732,53.628,-261.931,-86.062,-386.810,-324.406,-68.500,-41.240,-86.220
120,55764.789000,-46.501,46.545,-252.046,-86.096,-390.683,-320.463,-70.500,-66.240,-75.220
121,55764.805000,-45.522,51.605,-253.035,-78.216,-392.687,-322.569,-40.500,-36.240,-60.220
122,55764.828000,-43.564,48.569,-256.000,-81.125,-391.691,-324.487,-1.500,35.760,-37.220
123,55764.845000,-30.837,51.605,-249.081,-85.144,-387.790,-320.483,29.500,22.760,-7.220
124,55764.863000,-38.669,50.593,-245.127,-80.173,-390.734,-323.521,55.500,-57.240,17.780
125,55764.876000,-45.522,47.557,-241.174,-79.194,-390.742,-323.538,70.500,-28.240,35.780
126,55764.909000,-42.585,43.510,-240.185,-80.199,-389.767,-322.537,70.500,1.760,57.780
127,55764.939000,-42.585,46.545,-241.174,-84.996,-390.685,-327.373,73.500,-12.240,52.780
128,55764.943000,-48.459,43.510,-236.232,-82.147,-392.652,-321.515,76.500,-10.240,39.780
129,55764.964000,-46.501,39.462,-235.243,-81.134,-392.659,-323.502,75.500,18.760,35.780
130,55764.984000,-43.564,41.486,-236.232,-82.130,-390.716,-323.486,55.500,19.760,28.780
131,55765.6000,-44.543,42.498,-234.255,-86.080,-386.810,-323.421,40.500,-26.240,15.780
132,55765.31000,-47.480,41.486,-236.232,-75.254,-393.680,-323.604,34.500,-54.240,4.780
133,55765.51000,-49.438,42.498,-236.232,-78.173,-391.717,-325.524,40.500,-21.240,6.780
134,55765.69000,343.128,516.047,-218.440,-82.097,-384.906,-328.416,-519.500,331.760,33.780
135,55765.96000,35.732,-184.158,-149.251,-91.217,-410.977,-296.721,-545.500,-2193.240,-136.220
136,55765.129000,-334.317,46.545,-273.792,-89.346,-411.000,-291.832,176.500,143.760,-260.220
137,55765.129000,-135.587,11.130,-260.942,-88.239,-406.162,-301.702,280.500,1027.760,-149.220
138,55765.162000,-33.774,61.723,-222.394,-85.108,-393.595,-319.492,118.500,1287.760,82.780
139,55765.176000,-30.837,83.984,-227.336,-91.006,-390.640,-319.391,-166.500,603.760,42.780
140,55765.199000,-43.564,63.747,-259.954,-89.007,-385.815,-324.355,-9.500,435.760,-54.220
141,55765.214000,4.405,46.545,-255.012,-90.937,-388.700,-324.317,-89.500,-183.240,-124.220
142,55765.233000,-49.438,51.605,-253.035,-90.027,-392.584,-318.422,-80.500,-232.240,-68.220
143,55765.255000,-51.396,51.605,-253.035,-92.044,-391.602,-315.434,-52.500,-126.240,-47.220
144,55765.278000,-59.228,55.652,-254.023,-83.151,-393.613,-319.527,2.500,82.760,-24.220
145,55765.298000,-43.564,51.605,-250.069,-87.049,-389.705,-322.416,28.500,130.760,18.780
146,55765.315000,-30.837,54.640,-245.127,-89.050,-386.786,-321.399,36.500,74.760,33.780
147,55765.333000,-32.795,53.628,-240.185,-84.148,-389.733,-320.498,50.500,-41.240,37.780
148,55765.358000,-41.606,51.605,-239.197,-85.117,-390.692,-320.480,58.500,-61.240,47.780
149,55765.385000,-47.480,48.569,-238.208,-89.967,-389.677,-323.349,62.500,13.760,66.780
150,55765.399000,-44.543,48.569,-238.208,-87.014,-389.703,-324.385,67.500,84.760,77.780
151,55765.428000,-40.627,45.534,-238.208,-89.984,-389.678,-322.364,71.500,111.760,82.780
152,55765.450000,-36.711,42.498,-239.197,-86.997,-387.766,-326.357,71.500,97.760,88.780
153,55765.469000,-35.732,45.534,-245.127,-89.889,-388.705,-328.273,56.500,60.760,94.780
154,55765.484000,-38.669,49.581,-253.035,-92.878,-382.874,-328.227,53.500,44.760,104.780
155,55765.506000,-44.543,44.522,-267.861,-87.006,-386.799,-326.358,60.500,50.760,118.780
156,55765.524000,-41.606,49.581,-283.676,-84.001,-386.821,-330.349,79.500,101.760,150.780
157,55765.541000,-39.648,56.664,-297.514,-93.805,-382.862,-331.164,120.500,88.760,155.780
158,55765.560000,-46.501,50.593,-318.270,-91.804,-383.845,-333.168,196.500,15.760,147.780
159,55765.588000,-53.354,57.676,-344.958,-90.860,-385.792,-330.229,280.500,-80.240,134.780
160,55765.610000,-67.059,57.676,-366.703,-83.076,-382.962,-329.385,411.500,-101.240,139.780
161,55765.624000,-70.975,54.640,-385.483,-82.935,-390.697,-333.316,568.500,-86.240,144.780
162,55765.646000,-64.122,63.747,-385.483,-83.014,-387.798,-330.365,747.500,-100.240,122.780
163,55765.666000,-48.459,57.676,-375.598,-69.279,-393.728,-329.617,834.500,-106.240,122.780
164,55765.688000,-49.438,63.747,-368.680,-67.348,-392.779,-328.668,988.500,-260.240,70.780
165,55765.715000,-59.228,62.735,-349.900,-47.776,-400.700,-325.067,1146.500,-377.240,26.780
166,55765.735000,-57.270,43.510,-331.120,-40.935,-403.667,-323.215,1272.500,-314.240,29.780
167,55765.773000,-48.459,45.534,-323.212,-28.127,-409.585,-325.404,1346.500,-282.240,9.780
168,55765.787000,-41.606,38.451,-308.386,-11.629,-415.551,-314.860,1429.500,-331.240,12.780
169,55765.800000,-29.859,31.368,-288.618,-12.599,-416.510,-314.842,1484.500,-354.240,24.780
170,55765.809000,-27.901,21.249,-256.988,6.834,-422.503,-304.349,1531.500,-435.240,-7.220
171,55765.829000,-40.627,12.142,-238.208,21.504,-427.476,-301.650,1571.500,-571.240,-70.220
172,55765.851000,-58.249,1.012,-229.313,35.075,-436.319,-290.066,1586.500,-594.240,-98.220
173,55765.868000,-71.954,-10.119,-221.405,53.460,-440.371,-276.604,1611.500,-485.240,-141.220
174,55765.885000,-74.891,-24.285,-210.533,63.238,-445.300,-273.818,1623.500,-208.240,-156.220
175,55765.913000,-68.038,-37.439,-201.637,82.756,-445.481,-271.210,1601.500,-19.240,-166.220
176,55765.930000,-56.291,-45.534,-181.869,91.519,-446.532,-268.410,1559.500,67.760,-194.220
177,55765.958000,-54.333,-56.664,-156.170,107.980,-444.757,-259.844,1510.500,51.760,-247.220
178,55765.980000,-57.270,-66.783,-133.436,118.753,-447.758,-259.046,1436.500,99.760,-285.220
179,55766.0,-52.375,-76.901,-114.656,135.292,-446.947,-254.418,1347.500,212.760,-287.220
180,55766.38000,-50.417,-90.055,-91.923,147.994,-445.127,-254.644,1237.500,268.760,-260.220
181,55766.38000,-47.480,-106.245,-69.189,158.714,-444.260,-252.866,1171.500,434.760,-233.220
182,55766.65000,-27.901,-123.447,-64.247,165.537,-441.420,-252.990,1007.500,439.760,-166.220
183,55766.85000,-17.132,-123.447,-56.340,170.351,-438.565,-250.125,866.500,265.760,-115.220
184,55766.105000,-36.711,-130.530,-40.525,174.265,-440.536,-249.208,724.500,176.760,-72.220
185,55766.128000,-49.438,-134.577,-26.687,182.084,-437.704,-250.334,541.500,319.760,-27.220
186,55766.145000,-47.480,-145.708,-4.942,185.106,-437.726,-255.310,323.500,488.760,0.780
187,55766.168000,-41.606,-153.802,20.757,183.268,-429.959,-266.115,54.500,597.760,24.780
188,55766.185000,-23.006,-156.838,22.734,178.392,-427.977,-268.000,-223.500,497.760,45.780
189,55766.202000,-12.237,-144.696,6.919,174.554,-421.162,-275.816,-349.500,357.760,57.780
190,55766.219000,-22.027,-123.447,-6.919,172.668,-425.012,-277.747,-574.500,170.760,62.780
191,55766.241000,-27.901,-94.103,0.000,164.906,-415.258,-286.481,-734.500,265.760,96.780
192,55766.264000,-35.732,-72.854,2.965,156.247,-414.202,-295.189,-815.500,533.760,183.780
193,55766.284000,-40.627,-78.925,12.849,141.810,-406.311,-312.663,-927.500,946.760,328.780
194,55766.306000,16.153,-91.067,-1.977,138.915,-395.636,-320.500,-1131.500,914.760,427.780
195,55766.324000,66.080,-69.818,-33.606,113.715,-391.519,-335.810,-1282.500,338.760,415.780
196,55766.346000,22.027,0.000,-62.270,98.075,-383.633,-340.465,-1285.500,284.760,427.780
197,55766.369000,-23.985,12.142,-23.722,86.540,-381.578,-353.061,-1456.500,932.760,401.780
198,55766.398000,-3.426,-39.462,-8.896,65.113,-365.890,-366.483,-1671.500,1040.760,306.780
199,55766.417000,61.185,-22.261,-66.224,45.664,-363.770,-374.017,-2042.500,600.760,46.780
200,55766.435000,49.438,57.676,-152.216,21.120,-350.969,-375.567,-2135.500,53.760,-131.220
201,55766.463000,-48.459,78.925,-173.961,12.443,-347.978,-384.277,-2194.500,1019.760,-156.220
202,55766.480000,-47.480,29.344,-123.552,-19.734,-316.705,-406.386,-2507.500,2061.760,-305.220
203,55766.503000,86.639,39.462,-141.344,-54.082,-294.138,-411.712,-2791.500,1253.760,-605.220
204,55766.516000,46.501,162.909,-279.722,-77.566,-293.924,-411.297,-2896.500,-14.240,-686.220
205,55766.545000,-9.300,126.482,-278.734,-110.022,-288.800,-403.837,-2949.500,425.760,-527.220
206,55766.551000,46.501,156.838,-294.548,-126.667,-279.939,-407.491,-3068.500,783.760,-534.220
207,55766.575000,106.218,226.656,-328.154,-164.216,-268.006,-392.074,-3100.500,669.760,-582.220
208,55766.593000,20.069,260.047,-346.934,-184.945,-270.733,-379.890,-3154.500,-139.240,-610.220
209,55766.620000,-23.985,285.344,-337.050,-215.589,-272.411,-360.642,-3143.500,-63.240,-571.220
210,55766.641000,29.859,305.581,-360.772,-244.278,-268.299,-344.388,-3059.500,486.760,-660.220
211,55766.656000,49.438,280.285,-403.274,-264.065,-265.229,-333.212,-2960.500,580.760,-705.220
212,55766.674000,36.711,308.617,-393.390,-279.115,-264.149,-312.273,-2815.500,297.760,-722.220
213,55766.712000,-4.405,301.534,-373.622,-293.947,-265.960,-302.164,-2539.500,195.760,-660.220
214,55766.730000,15.174,293.439,-390.425,-310.867,-264.857,-286.115,-2137.500,745.760,-490.220
215,55766.751000,58.249,294.451,-385.483,-321.822,-258.963,-278.053,-1903.500,916.760,-417.220
216,55766.765000,90.554,288.379,-362.749,-330.759,-255.986,-271.991,-1443.500,654.760,-348.220
217,55766.788000,63.143,263.083,-348.911,-330.915,-257.931,-262.142,-1039.500,123.760,-161.220
218,55766.805000,51.396,257.012,-341.004,-343.757,-255.886,-256.010,-705.500,-134.240,26.780
219,55766.828000,3.426,239.810,-309.375,-345.818,-252.003,-252.040,-393.500,-207.240,70.780
220,55766.843000,-4.405,222.609,-290.595,-342.864,-257.836,-250.117,-148.500,38.760,64.780
221,55766.870000,22.027,233.739,-300.479,-345.739,-256.838,-254.005,29.500,19.760,50.780
222,55766.879000,35.732,254.988,-316.293,-344.795,-256.848,-252.053,214.500,-274.240,19.780
223,55766.905000,22.027,256.000,-332.108,-343.746,-262.661,-253.049,466.500,-384.240,70.780
224,55766.925000,10.279,249.929,-317.282,-334.914,-261.772,-255.175,579.500,-267.240,115.780
225,55766.944000,-0.489,262.071,-345.946,-331.824,-257.918,-266.063,753.500,34.760,174.780
226,55766.967000,0.489,274.213,-391.413,-319.876,-252.206,-281.048,1035.500,234.760,192.780
227,55766.982000,27.901,293.439,-407.228,-324.578,-252.150,-291.794,1392.500,629.760,280.780
228,55767.6000,71.954,302.545,-419.089,-308.638,-245.501,-311.773,1717.500,589.760,328.780
229,55767.24000,110.134,302.545,-434.903,-298.645,-247.514,-322.776,2019.500,-134.240,310.780
230,55767.53000,98.386,323.794,-427.985,-274.831,-253.517,-338.942,2360.500,-903.240,347.780
231,55767.78000,71.954,329.866,-390.425,-263.841,-261.345,-347.987,2690.500,-661.240,546.780
232,55767.95000,71.954,307.605,-352.865,-225.325,-262.640,-368.356,2833.500,-338.240,639.780
233,55767.113000,76.849,296.474,-349.900,-196.628,-263.848,-386.583,3022.500,-19.240,677.780
234,55767.135000,100.344,287.368,-316.293,-183.727,-261.050,-398.628,3098.500,-104.240,672.780
235,55767.158000,113.071,258.024,-241.174,-141.424,-273.034,-406.253,3031.500,-677.240,522.780
236,55767.170000,96.428,224.632,-178.903,-120.734,-286.764,-407.588,2927.500,-1466.240,319.780
237,55767.184000,64.122,175.051,-156.170,-82.531,-316.146,-395.431,2788.500,-1998.240,87.780
238,55767.203000,32.795,158.862,-163.089,-63.926,-332.768,-387.866,2665.500,-1937.240,-115.220
239,55767.230000,13.216,147.731,-155.181,-34.582,-358.201,-374.573,2650.500,-1417.240,-186.220
240,55767.253000,17.132,121.423,-131.459,-9.166,-363.274,-371.079,2614.500,-1103.240,-169.220
241,55767.273000,10.279,87.020,-100.819,19.092,-375.153,-358.767,2572.500,-575.240,-176.220
242,55767.295000,21.048,55.652,-90.934,51.228,-383.199,-346.528,2449.500,-433.240,-189.220
243,55767.318000,33.774,35.415,-82.039,67.805,-394.000,-337.949,2294.500,-569.240,-200.220
244,55767.335000,11.258,16.190,-80.062,97.968,-405.900,-322.717,2180.500,-688.240,-197.220
245,55767.353000,-23.985,2.024,-72.154,104.687,-405.002,-315.946,2075.500,-436.240,-149.220
246,55767.380000,-40.627,-21.249,-52.386,127.990,-408.129,-304.541,1959.500,3.760,-74.220
247,55767.430000,-33.774,-53.628,-37.560,142.668,-410.199,-303.814,1792.500,379.760,-19.220
248,55767.430000,-2.447,-71.842,-14.826,164.107,-406.528,-301.244,1613.500,387.760,40.780
249,55767.449000,21.048,-105.233,-25.699,178.769,-414.405,-296.572,1519.500,189.760,59.780
250,55767.464000,2.447,-108.269,-38.548,176.665,-411.492,-289.647,1299.500,-130.240,61.780
251,55767.486000,-21.048,-124.459,-41.514,186.347,-417.394,-280.951,1133.500,-157.240,84.780
252,55767.500000,-35.732,-140.648,-34.595,185.290,-414.486,-277.983,951.500,-84.240,101.780
253,55767.525000,-53.354,-147.731,-28.664,199.891,-419.463,-271.344,788.500,39.760,105.780
254,55767.548000,-56.291,-157.850,-17.792,203.814,-420.466,-271.412,612.500,248.760,88.780
255,55767.570000,-52.375,-154.814,-7.907,203.812,-414.659,-274.372,427.500,335.760,68.780
256,55767.590000,-46.501,-168.980,5.931,205.795,-413.708,-276.377,188.500,314.760,51.780
257,55767.610000,-33.774,-179.099,25.699,198.971,-410.740,-279.213,-126.500,118.760,-6.220
258,55767.628000,-28.880,-192.253,30.641,198.937,-412.678,-276.257,-314.500,-40.240,-48.220
259,55767.645000,-16.153,-178.087,9.884,199.906,-411.719,-276.275,-623.500,-465.240,-109.220
260,55767.668000,-29.859,-160.885,-2.965,196.947,-418.469,-271.293,-872.500,-778.240,-170.220
261,55767.689000,-45.522,-142.672,6.919,190.194,-425.177,-273.135,-1091.500,-643.240,-194.220
262,55767.709000,-28.880,-136.601,40.525,184.296,-420.286,-274.020,-1364.500,-391.240,-163.220
263,55767.738000,-15.174,-92.079,9.884,166.665,-416.255,-274.698,-1658.500,-376.240,-99.220
264,55767.751000,-34.753,-25.296,-24.710,156.109,-416.145,-286.324,-1854.500,-178.240,-45.220
265,55767.768000,-37.690,20.237,-8.896,134.824,-415.936,-299.730,-1946.500,512.760,26.780
266,55767.788000,4.405,3.036,12.849,125.201,-403.255,-315.326,-1994.500,933.760,77.780
267,55767.814000,69.017,10.119,-28.664,95.139,-383.606,-340.413,-2221.500,1363.760,158.780
268,55767.843000,106.218,52.617,-74.131,75.681,-378.582,-348.935,-2445.500,879.760,176.780
269,55767.856000,89.576,76.901,-93.900,43.416,-375.383,-351.321,-2558.500,-103.240,197.780
270,55767.879000,-14.195,97.138,-101.807,29.805,-382.997,-352.056,-2696.500,-854.240,241.780
271,55767.899000,-39.648,121.423,-145.297,-12.339,-384.554,-346.386,-2844.500,-461.240,401.780
272,55767.921000,11.258,171.004,-194.718,-49.601,-375.509,-345.737,-2839.500,122.760,432.780
273,55767.930000,-37.690,181.123,-222.394,-75.044,-367.535,-349.234,-2763.500,573.760,342.780
274,55767.958000,-48.459,190.229,-260.942,-102.472,-350.833,-355.660,-2797.500,1416.760,268.780
275,55767.975000,17.132,205.407,-259.954,-128.974,-332.207,-360.135,-2825.500,1815.760,222.780
276,55767.995000,69.017,196.300,-249.081,-166.283,-310.582,-363.438,-2870.500,1783.760,50.780
277,55768.12000,33.774,250.941,-315.305,-180.070,-304.655,-361.232,-2858.500,808.760,-148.220
278,55768.38000,16.153,293.439,-303.444,-210.666,-292.780,-351.845,-2795.500,705.760,-229.220
279,55768.55000,36.711,305.581,-340.015,-242.283,-281.865,-339.485,-2849.500,845.760,-249.220
280,55768.91000,57.270,337.960,-350.888,-258.217,-275.931,-326.412,-2768.500,522.760,-369.220
281,55768.119000,22.027,358.198,-334.085,-283.952,-275.716,-309.221,-2526.500,344.760,-255.220
282,55768.128000,11.258,353.138,-341.992,-288.084,-268.918,-300.296,-2200.500,995.760,-96.220
283,55768.144000,38.669,321.771,-346.934,-310.827,-254.208,-294.004,-2075.500,1247.760,-81.220
284,55768.165000,61.185,310.640,-329.143,-313.927,-251.287,-286.077,-1912.500,1073.760,-171.220
285,55768.180000,50.417,295.462,-282.687,-333.793,-245.318,-271.950,-1720.500,660.760,-218.220
286,55768.195000,55.312,270.166,-278.734,-341.753,-236.543,-268.866,-1498.500,885.760,-136.220
287,55768.221000,99.365,257.012,-293.560,-346.836,-234.574,-258.934,-1360.500,456.760,-162.220
288,55768.244000,85.660,262.071,-317.282,-360.845,-240.274,-238.006,-1335.500,-686.240,-249.220
289,55768.274000,17.132,277.249,-331.120,-361.016,-248.027,-224.211,-1196.500,-808.240,-228.220
290,55768.278000,-27.901,250.941,-296.525,-364.055,-248.006,-218.251,-867.500,200.760,-104.220
291,55768.299000,39.648,264.095,-342.981,-372.923,-245.026,-216.129,-469.500,521.760,-15.220
292,55768.321000,58.249,266.119,-341.992,-375.919,-244.034,-213.123,-312.500,251.760,-6.220
293,55768.344000,37.690,272.190,-335.073,-368.100,-243.138,-213.263,-42.500,-352.240,0.780
294,55768.361000,18.111,277.249,-340.015,-368.056,-247.975,-213.258,180.500,-418.240,14.780
295,55768.389000,45.522,271.178,-324.201,-367.969,-247.970,-218.182,406.500,-219.240,-12.220
296,55768.418000,32.795,285.344,-327.166,-369.899,-250.855,-218.144,692.500,-188.240,-41.220
297,55768.436000,12.237,290.403,-306.409,-359.854,-252.865,-232.102,984.500,123.760,36.780
298,55768.451000,56.291,305.581,-298.502,-355.855,-249.024,-239.068,1250.500,71.760,91.780
299,55768.469000,59.228,326.830,-306.409,-342.814,-250.090,-257.018,1474.500,-128.240,165.780
300,55768.506000,84.681,311.652,-334.085,-339.635,-255.910,-267.896,1588.500,-233.240,257.780
301,55768.525000,99.365,322.783,-388.448,-322.758,-257.983,-280.990,1877.500,-520.240,311.780
302,55768.542000,68.038,321.771,-406.239,-297.940,-261.089,-300.131,2229.500,-498.240,406.780
303,55768.560000,-2.447,318.735,-338.039,-298.685,-262.035,-312.914,2383.500,-401.240,269.780
304,55768.580000,21.048,333.913,-313.328,-260.116,-267.199,-334.264,2594.500,-455.240,324.780
305,55768.595000,91.533,328.854,-348.911,-251.110,-268.236,-345.251,2913.500,-521.240,412.780
306,55768.618000,39.648,322.783,-349.900,-214.532,-277.255,-362.623,3168.500,-363.240,415.780
307,55768.638000,49.438,311.652,-322.224,-202.582,-279.286,-373.662,3277.500,-434.240,387.780
308,55768.660000,79.786,285.344,-282.687,-158.235,-293.219,-385.259,3244.500,-977.240,250.780
309,55768.675000,76.849,263.083,-262.919,-143.335,-317.537,-385.494,3215.500,-1259.240,166.780
310,55768.698000,39.648,246.893,-200.649,-100.288,-326.640,-381.323,3127.500,-1476.240,13.780
311,55768.715000,9.300,221.597,-151.228,-53.255,-343.518,-377.213,3035.500,-1106.240,-98.220
312,55768.740000,3.426,183.146,-123.552,-34.610,-353.363,-375.562,2922.500,-604.240,-191.220
313,55768.763000,26.922,149.755,-107.737,4.567,-363.396,-373.290,2812.500,-484.240,-237.220
314,55768.780000,42.585,123.447,-60.293,21.037,-364.525,-363.736,2663.500,-613.240,-252.220
315,55768.803000,45.522,84.996,-39.537,57.115,-379.379,-349.590,2499.500,-771.240,-238.220
316,55768.820000,11.258,49.581,-44.479,70.719,-380.477,-343.923,2308.500,-613.240,-202.220
317,55768.843000,-16.153,12.142,-40.525,98.017,-396.219,-330.605,2102.500,-485.240,-165.220
318,55768.863000,-0.489,-15.178,-43.490,119.381,-401.263,-319.163,2004.500,-356.240,-145.220
319,55768.880000,8.321,-42.498,-54.363,132.934,-406.235,-308.568,1794.500,-508.240,-165.220
320,55768.903000,-12.237,-73.866,-33.606,146.445,-414.114,-294.031,1606.500,-615.240,-195.220
321,55768.923000,-23.985,-90.055,-40.525,159.927,-413.283,-282.457,1435.500,-573.240,-191.220
322,55768.970000,-46.501,-97.138,-31.629,169.653,-420.150,-275.730,1261.500,-278.240,-188.220
323,55768.984000,-38.669,-130.530,-43.490,179.309,-423.150,-267.038,1129.500,193.760,-126.220
324,55768.998000,-1.468,-134.577,-42.502,197.908,-420.415,-269.339,944.500,360.760,-97.220
325,55769.4000,12.237,-143.684,-21.745,199.769,-415.599,-266.424,769.500,79.760,-91.220
326,55769.26000,-22.027,-156.838,-39.537,201.640,-417.557,-260.548,688.500,-126.240,-84.220
327,55769.49000,-51.396,-151.779,-41.514,206.465,-423.413,-253.735,489.500,-296.240,-81.220
328,55769.74000,-67.059,-156.838,-30.641,215.254,-423.494,-252.906,348.500,-59.240,-44.220
329,55769.94000,-58.249,-159.874,-24.710,209.398,-415.696,-257.734,197.500,320.760,-12.220
330,55769.114000,-10.279,-160.885,-15.815,209.485,-415.692,-262.658,0.500,623.760,12.780
331,55769.131000,10.279,-168.980,-31.629,206.609,-412.758,-267.533,-205.500,364.760,8.780
332,55769.151000,-19.090,-147.731,-46.456,203.665,-411.764,-267.482,-421.500,-90.240,-6.220
333,55769.160000,-42.585,-129.518,-41.514,206.678,-412.754,-271.472,-575.500,-87.240,20.780
334,55769.179000,-40.627,-103.209,-17.792,190.138,-409.694,-278.074,-743.500,43.760,58.780
335,55769.213000,-13.216,-107.257,-8.896,191.237,-407.760,-285.971,-830.500,322.760,79.780
336,55769.226000,-2.447,-113.328,-42.502,176.654,-404.717,-292.608,-1037.500,214.760,100.780
337,55769.274000,-21.048,-102.198,-80.062,169.882,-401.747,-298.398,-1171.500,8.760,96.780
338,55769.278000,-36.711,-92.079,-78.085,153.385,-395.781,-308.942,-1226.500,253.760,138.780
339,55769.291000,-35.732,-65.771,-53.375,150.631,-394.776,-319.724,-1315.500,806.760,193.780
340,55769.309000,-15.174,-50.593,-8.896,131.272,-374.260,-342.048,-1490.500,1404.760,289.780
341,55769.332000,54.333,-57.676,-10.873,100.259,-359.440,-366.128,-1839.500,1329.760,322.780
342,55769.349000,116.008,-11.130,-70.178,84.620,-355.425,-368.809,-2097.500,444.760,212.780
343,55769.376000,103.281,43.510,-111.691,59.344,-358.088,-376.235,-2112.500,-71.240,158.780
344,55769.393000,-19.090,61.723,-105.761,47.498,-356.051,-371.105,-2104.500,-621.240,33.780
345,55769.416000,-50.417,6.071,-124.541,13.396,-348.956,-382.323,-2287.500,252.760,90.780
346,55769.436000,61.185,38.451,-189.776,-0.262,-342.054,-387.997,-2515.500,1011.760,2.780
347,55769.464000,102.302,103.209,-194.718,-27.690,-325.352,-394.422,-2499.500,707.760,-166.220
348,55769.481000,48.459,57.676,-207.568,-69.803,-311.421,-398.616,-2600.500,613.760,-141.220
349,55769.505000,2.447,67.794,-232.278,-89.426,-303.503,-399.262,-2690.500,861.760,-289.220
350,55769.528000,113.071,153.802,-251.058,-115.968,-299.398,-393.875,-2547.500,231.760,-450.220
351,55769.542000,18.111,172.016,-278.734,-126.845,-294.467,-389.751,-2484.500,552.760,-244.220
352,55769.558000,40.627,227.668,-301.467,-168.068,-272.807,-392.984,-2529.500,1148.760,-194.220
353,55769.579000,49.438,274.213,-255.012,-182.955,-264.942,-384.855,-2651.500,1186.760,-290.220
354,55769.601000,45.522,320.759,-259.954,-210.538,-252.120,-380.444,-2642.500,959.760,-379.220
355,55769.624000,76.849,308.617,-339.027,-228.395,-242.295,-371.279,-2651.500,1020.760,-333.220
356,55769.646000,58.249,292.427,-355.830,-261.934,-235.232,-358.881,-2537.500,635.760,-344.220
357,55769.666000,63.143,299.510,-358.795,-279.859,-233.154,-341.830,-2191.500,379.760,-254.220
358,55769.689000,37.690,310.640,-342.981,-292.762,-226.273,-334.719,-1823.500,792.760,-130.220
359,55769.706000,51.396,286.356,-290.595,-308.691,-209.692,-327.565,-1667.500,1212.760,-97.220
360,55769.724000,81.744,252.964,-284.664,-317.601,-207.682,-322.488,-1690.500,1108.760,-146.220
361,55769.750000,90.554,243.858,-293.560,-339.500,-208.475,-300.441,-1748.500,356.760,-319.220
362,55769.771000,71.954,260.047,-309.375,-335.698,-211.421,-292.629,-1590.500,-224.240,-360.220
363,55769.789000,67.059,265.107,-318.270,-344.704,-208.448,-282.629,-1232.500,233.760,-146.220
364,55769.811000,84.681,252.964,-299.490,-354.664,-200.626,-276.555,-886.500,604.760,22.780
365,55769.820000,102.302,222.609,-313.328,-362.560,-202.494,-271.491,-801.500,166.760,-25.220
366,55769.848000,97.407,230.704,-342.981,-363.701,-211.206,-257.678,-831.500,-757.240,-197.220
367,55769.868000,50.417,248.917,-355.830,-369.632,-212.123,-253.635,-564.500,-875.240,-222.220
368,55769.905000,29.859,263.083,-374.610,-369.735,-216.001,-245.753,-94.500,-261.240,-64.220
369,55769.924000,47.480,268.142,-377.575,-367.690,-221.821,-247.751,122.500,51.760,18.780
370,55769.938000,91.533,273.202,-368.680,-361.759,-218.967,-252.781,457.500,-10.240,78.780
371,55769.958000,55.312,277.249,-365.714,-350.736,-222.922,-265.770,745.500,-137.240,64.780
372,55769.980000,42.585,281.296,-358.795,-358.503,-221.880,-269.571,1000.500,6.760,35.780
373,55769.998000,-9.300,279.273,-307.398,-342.570,-222.007,-285.604,1188.500,274.760,-36.220
374,55770.20000,40.627,270.166,-274.780,-338.553,-220.100,-292.569,1378.500,-19.240,-3.220
375,55770.29000,133.629,310.640,-301.467,-324.559,-224.080,-307.579,1624.500,-699.240,118.780
376,55770.56000,143.419,307.605,-331.120,-313.568,-233.844,-315.637,1942.500,-1008.240,139.780
377,55770.79000,73.912,309.628,-372.633,-289.737,-241.781,-331.801,2096.500,-850.240,168.780
378,55770.100000,42.585,318.735,-341.992,-279.815,-236.055,-342.812,2370.500,107.760,194.780
379,55770.120000,133.629,302.545,-297.514,-245.136,-230.535,-370.997,2582.500,732.760,327.780
380,55770.138000,185.514,292.427,-283.676,-223.177,-232.642,-395.010,2744.500,115.760,478.780
381,55770.151000,136.566,282.308,-252.046,-202.471,-240.563,-400.289,2899.500,-873.240,547.780
382,55770.170000,39.648,262.071,-237.220,-166.011,-259.268,-405.835,2998.500,-1364.240,499.780
383,55770.198000,17.132,230.704,-231.290,-145.287,-269.124,-411.112,3055.500,-928.240,431.780
384,55770.215000,39.648,207.431,-208.556,-107.912,-277.195,-418.655,3019.500,-440.240,368.780
385,55770.238000,56.291,181.123,-174.950,-85.388,-281.270,-418.064,2928.500,-427.240,306.780
386,55770.260000,69.996,149.755,-152.216,-52.957,-291.235,-421.580,2878.500,-559.240,245.780
387,55770.283000,62.164,127.494,-130.471,-7.915,-313.904,-412.505,2756.500,-949.240,129.780
388,55770.300000,36.711,101.186,-114.656,9.683,-323.744,-406.899,2631.500,-1160.240,28.780
389,55770.333000,13.216,73.866,-103.784,46.740,-340.544,-391.783,2535.500,-1028.240,-37.220
390,55770.351000,1.468,52.617,-86.981,59.375,-342.600,-386.098,2443.500,-676.240,-50.220
391,55770.380000,5.384,23.273,-68.201,91.529,-352.580,-373.857,2328.500,-329.240,-3.220
392,55770.388000,34.753,-1.012,-72.154,107.091,-357.567,-366.251,2185.500,-210.240,57.780
393,55770.409000,46.501,-19.225,-70.178,132.404,-364.581,-355.862,2016.500,-468.240,75.780
394,55770.440000,28.880,-46.545,-65.236,155.648,-376.423,-336.570,1824.500,-677.240,51.780
395,55770.444000,-0.489,-57.676,-70.178,165.349,-386.196,-326.886,1736.500,-980.240,35.780
396,55770.475000,-49.438,-84.996,-61.282,176.782,-395.999,-304.434,1612.500,-864.240,24.780
397,55770.496000,-49.438,-107.257,-69.189,185.468,-398.022,-296.710,1451.500,-319.240,17.780
398,55770.501000,-8.321,-108.269,-65.236,200.051,-401.064,-290.073,1300.500,45.760,2.780
399,55770.533000,-13.216,-140.648,-76.108,208.805,-401.147,-287.274,1206.500,-88.240,4.780
400,55770.548000,-42.585,-141.660,-64.247,217.527,-407.040,-279.546,1087.500,-26.240,-5.220
401,55770.570000,-38.669,-162.909,-49.421,217.456,-403.172,-277.580,949.500,200.760,15.780
402,55770.593000,-24.964,-162.909,-48.432,228.081,-401.342,-270.879,792.500,245.760,23.780
403,55770.610000,-15.174,-168.980,-50.409,239.736,-399.518,-267.150,720.500,212.760,41.780
404,55770.633000,-21.048,-160.885,-35.583,240.732,-401.461,-267.165,582.500,188.760,72.780
405,55770.655000,-37.690,-171.004,-2.965,242.749,-400.508,-271.140,410.500,299.760,79.780
406,55770.681000,-25.943,-180.111,7.907,244.696,-395.687,-273.149,150.500,390.760,67.780
407,55770.709000,-14.195,-186.182,-4.942,242.765,-394.699,-275.085,-121.500,213.760,0.780
408,55770.741000,-19.090,-182.134,-14.826,236.937,-393.676,-277.936,-346.500,-13.240,-73.220
409,55770.755000,-32.795,-182.134,-20.757,232.088,-394.597,-279.818,-542.500,-48.240,-97.220
410,55770.764000,-47.480,-163.921,-9.884,226.415,-389.693,-293.506,-722.500,193.760,-88.220
411,55770.781000,-42.585,-146.719,10.873,224.527,-387.735,-298.397,-931.500,659.760,-94.220
412,55770.798000,-22.027,-118.387,33.606,217.908,-375.077,-317.984,-1041.500,872.760,-101.220
413,55770.820000,-0.489,-102.198,45.467,204.319,-366.235,-328.583,-1265.500,1051.760,-96.220
414,55770.840000,29.859,-94.103,0.000,187.907,-354.457,-347.011,-1519.500,771.760,-134.220
415,55770.860000,44.543,-58.688,-40.525,182.182,-351.491,-356.758,-1676.500,410.760,-188.220
416,55770.880000,42.585,-44.522,-36.571,160.748,-340.643,-367.220,-1807.500,287.760,-160.220
417,55770.901000,51.396,-41.486,-25.699,133.547,-333.608,-381.514,-2026.500,255.760,-78.220
418,55770.919000,62.164,-41.486,-47.444,118.004,-334.427,-387.145,-2280.500,-78.240,-37.220
419,55770.941000,80.765,-34.403,-74.131,84.832,-338.959,-389.506,-2534.500,-721.240,-64.220
420,55770.959000,99.365,-12.142,-83.027,68.112,-342.684,-382.314,-2626.500,-1175.240,-98.220
421,55770.986000,63.143,25.296,-72.154,36.702,-363.699,-364.998,-2739.500,-2050.240,-118.220
422,55771.6000,-74.891,99.162,-121.575,21.888,-373.252,-351.927,-2746.500,-1898.240,-64.220
423,55771.26000,-125.797,157.850,-228.324,-13.167,-363.243,-366.086,-2670.500,391.760,270.780
424,55771.49000,-26.922,162.909,-248.093,-39.509,-328.154,-388.303,-2638.500,2379.760,335.780
425,55771.67000,30.837,148.743,-186.811,-68.790,-311.428,-400.602,-2733.500,2462.760,90.780
426,55771.111000,74.891,167.968,-179.892,-109.097,-283.005,-403.860,-2821.500,1711.760,-173.220
427,55771.125000,116.987,208.443,-224.371,-127.682,-274.124,-408.464,-2856.500,989.760,-217.220
428,55771.134000,96.428,231.715,-279.722,-165.152,-263.155,-396.985,-2821.500,622.760,-213.220
429,55771.140000,62.164,265.107,-269.838,-189.711,-258.099,-393.603,-2803.500,760.760,-142.220
430,55771.168000,53.354,256.000,-248.093,-224.275,-238.447,-385.139,-2758.500,1185.760,-21.220
431,55771.188000,119.924,307.605,-273.792,-239.135,-233.485,-377.006,-2622.500,858.760,-96.220
432,55771.210000,97.407,331.889,-272.803,-266.042,-219.721,-355.873,-2541.500,522.760,-109.220
433,55771.228000,72.933,332.901,-292.571,-297.753,-213.652,-335.630,-2537.500,571.760,-182.220
434,55771.250000,75.870,325.818,-291.583,-308.680,-216.467,-324.604,-2536.500,247.760,-265.220
435,55771.270000,74.891,336.949,-301.467,-329.731,-214.372,-296.669,-2397.500,19.760,-348.220
436,55771.290000,61.185,320.759,-317.282,-338.684,-215.268,-287.650,-2187.500,217.760,-290.220
437,55771.308000,76.849,299.510,-341.992,-360.636,-212.193,-264.623,-1981.500,321.760,-194.220
438,55771.344000,79.786,289.391,-371.645,-360.800,-211.234,-255.761,-1897.500,235.760,-161.220
439,55771.376000,72.933,295.462,-383.506,-372.870,-215.018,-234.869,-1688.500,-353.240,-184.220
440,55771.390000,45.522,284.332,-396.355,-382.021,-220.764,-212.058,-1328.500,-733.240,-123.220
441,55771.399000,19.090,279.273,-409.205,-385.059,-226.551,-203.138,-856.500,-676.240,-24.220
442,55771.416000,-0.489,272.190,-398.332,-387.085,-226.537,-199.164,-409.500,-364.240,4.780
443,55771.435000,15.174,266.119,-375.598,-389.024,-228.454,-199.127,-70.500,0.760,0.780
444,55771.459000,1.468,258.024,-348.911,-389.977,-227.476,-201.081,179.500,77.760,-72.220
445,55771.473000,9.300,261.059,-315.305,-384.019,-229.460,-205.122,464.500,-3.240,-176.220
446,55771.486000,26.922,276.237,-317.282,-377.992,-231.440,-213.101,617.500,-48.240,-180.220
447,55771.519000,41.606,279.273,-318.270,-379.706,-233.345,-225.867,911.500,-35.240,-147.220
448,55771.533000,64.122,291.415,-339.027,-369.799,-237.298,-230.960,1108.500,-229.240,-171.220
449,55771.554000,26.922,294.451,-349.900,-361.693,-243.161,-243.894,1308.500,-545.240,-234.220
450,55771.581000,17.132,298.498,-336.062,-343.871,-247.181,-254.049,1560.500,-349.240,-266.220
451,55771.599000,63.143,324.806,-361.761,-332.751,-255.970,-269.987,1860.500,-328.240,-231.220
452,55771.621000,53.354,342.008,-373.622,-321.787,-260.896,-279.035,2208.500,-495.240,-124.220
453,55771.640000,97.407,347.067,-348.911,-297.869,-268.829,-300.123,2458.500,-542.240,-30.220
454,55771.660000,75.870,349.091,-351.876,-283.996,-272.815,-308.239,2661.500,-683.240,-38.220
455,55771.683000,20.069,326.830,-324.201,-258.069,-280.762,-332.315,2757.500,-615.240,-32.220
456,55771.703000,31.816,315.700,-292.571,-223.440,-286.859,-351.626,2877.500,-288.240,-57.220
457,55771.725000,39.648,311.652,-290.595,-199.755,-295.773,-358.925,2942.500,-413.240,-77.220
458,55771.743000,46.501,301.534,-251.058,-162.233,-302.867,-375.332,2978.500,-480.240,-94.220
459,55771.765000,68.038,279.273,-193.730,-144.523,-311.733,-376.620,2986.500,-308.240,-15.220
460,55771.805000,70.975,240.822,-175.938,-107.113,-317.866,-387.119,3000.500,-389.240,-15.220
461,55771.819000,71.954,222.609,-169.019,-81.619,-325.837,-386.576,2976.500,-703.240,-80.220
462,55771.833000,53.354,200.348,-144.309,-47.299,-339.695,-384.214,2984.500,-750.240,-33.220
463,55771.856000,23.985,148.743,-137.390,-1.359,-351.731,-376.152,2966.500,-671.240,-19.220
464,55771.873000,18.111,122.435,-139.367,11.388,-354.749,-376.374,2852.500,-423.240,-28.220
465,55771.890000,57.270,103.209,-98.842,46.452,-363.789,-363.202,2711.500,-369.240,10.780
466,55771.910000,63.143,64.759,-80.062,61.105,-370.700,-358.531,2605.500,-657.240,41.780
467,55771.933000,23.985,34.403,-74.131,89.268,-383.552,-340.309,2435.500,-749.240,60.780
468,55771.955000,-19.090,8.095,-79.073,107.819,-392.435,-333.736,2284.500,-486.240,69.780
469,55771.972000,-23.985,-13.154,-61.282,128.151,-395.538,-320.310,2134.500,-49.240,98.780
470,55771.993000,5.384,-46.545,-52.386,134.828,-397.545,-309.597,1940.500,-42.240,96.780
471,55772.6000,12.237,-59.700,-40.525,155.326,-401.607,-305.032,1748.500,-119.240,86.780
472,55772.34000,9.300,-82.972,-31.629,169.798,-411.431,-288.541,1657.500,-324.240,92.780
473,55772.51000,-40.627,-105.233,-35.583,183.358,-409.627,-281.892,1472.500,-441.240,72.780
474,55772.74000,-63.143,-122.435,-28.664,186.191,-413.532,-274.062,1294.500,-53.240,48.780
475,55772.102000,-31.816,-131.542,-21.745,192.018,-412.619,-272.197,1124.500,183.760,46.780
476,55772.115000,-16.153,-145.708,-10.873,202.721,-413.689,-268.447,951.500,161.760,88.780
477,55772.143000,-23.006,-160.885,-10.873,200.686,-412.707,-264.475,731.500,104.760,127.780
478,55772.158000,-40.627,-164.933,-8.896,210.446,-415.701,-261.690,525.500,125.760,140.780
479,55772.178000,-41.606,-167.968,10.873,215.399,-414.775,-265.717,287.500,260.760,113.780
480,55772.195000,-24.964,-172.016,26.687,211.458,-413.773,-264.664,143.500,251.760,98.780
481,55772.218000,-7.342,-162.909,26.687,206.627,-414.693,-267.531,-151.500,-3.240,52.780
482,55772.240000,-14.195,-166.957,3.954,200.687,-414.643,-263.488,-399.500,-383.240,29.780
483,55772.268000,-50.417,-149.755,-4.942,196.904,-421.375,-267.351,-619.500,-409.240,9.780
484,55772.283000,-69.017,-136.601,2.965,193.897,-413.610,-267.307,-826.500,-39.240,-11.220
485,55772.305000,-44.543,-127.494,23.722,187.264,-414.503,-279.002,-1059.500,291.760,-25.220
486,55772.329000,5.384,-128.506,24.710,174.629,-408.575,-286.661,-1336.500,-16.240,-70.220
487,55772.345000,10.279,-95.115,-7.907,164.871,-411.388,-286.485,-1524.500,-366.240,-80.220
488,55772.366000,-18.111,-71.842,-26.687,149.345,-412.207,-293.101,-1672.500,-144.240,34.780
489,55772.384000,-25.943,-66.783,-14.826,141.656,-412.128,-300.840,-1767.500,77.760,83.780
490,55772.406000,-18.111,-47.557,2.965,112.496,-399.267,-318.060,-2022.500,443.760,186.780
491,55772.431000,20.069,-26.308,-22.734,102.850,-399.170,-325.765,-2221.500,417.760,173.780
492,55772.454000,16.153,13.154,-65.236,77.458,-387.321,-334.189,-2357.500,252.760,147.780
493,55772.469000,2.447,56.664,-100.819,56.171,-375.497,-353.516,-2545.500,547.760,177.780
494,55772.483000,27.901,84.996,-95.876,20.987,-370.335,-357.821,-2763.500,793.760,166.780
495,55772.505000,32.795,124.459,-134.425,-17.160,-356.436,-365.038,-2856.500,665.760,50.780
496,55772.523000,23.006,145.708,-209.544,-30.766,-349.531,-373.666,-2855.500,609.760,-12.220
497,55772.550000,46.501,162.909,-262.919,-74.888,-335.585,-374.870,-2841.500,705.760,-43.220
498,55772.570000,11.258,180.111,-264.896,-89.514,-333.513,-378.552,-2824.500,678.760,-53.220
499,55772.593000,24.964,202.372,-221.405,-123.956,-315.790,-375.994,-2790.500,957.760,2.780
500,55772.615000,74.891,270.166,-259.954,-143.511,-303.997,-382.553,-2770.500,1280.760,-27.220
501,55772.630000,95.449,294.451,-292.571,-175.104,-288.241,-374.137,-2784.500,1080.760,-78.220
502,55772.666000,44.543,302.545,-324.201,-215.572,-272.410,-361.626,-2882.500,663.760,-128.220
503,55772.694000,26.922,310.640,-309.375,-226.492,-268.449,-354.547,-2837.500,882.760,-113.220
504,55772.723000,26.922,327.842,-317.282,-260.127,-256.552,-339.199,-2754.500,979.760,-194.220
505,55772.725000,52.375,348.079,-322.224,-278.937,-249.620,-330.014,-2687.500,646.760,-360.220
506,55772.733000,51.396,325.818,-322.224,-300.854,-244.607,-309.943,-2656.500,555.760,-409.220
507,55772.755000,69.017,321.771,-355.830,-307.851,-243.585,-301.945,-2564.500,519.760,-456.220
508,55772.780000,88.597,320.759,-375.598,-330.789,-241.469,-277.914,-2350.500,242.760,-427.220
509,55772.798000,59.228,298.498,-390.425,-348.670,-242.292,-261.846,-1998.500,9.760,-224.220
510,55772.817000,58.249,294.451,-381.529,-351.812,-246.149,-248.003,-1594.500,-16.240,-84.220
511,55772.839000,24.964,276.237,-346.934,-359.883,-244.155,-235.065,-1252.500,-80.240,-43.220
512,55772.860000,32.795,264.095,-380.541,-358.064,-244.181,-227.221,-943.500,-220.240,-34.220
513,55772.878000,14.195,268.142,-390.425,-368.948,-246.026,-219.151,-557.500,-192.240,13.780
514,55772.900000,21.048,259.036,-377.575,-365.077,-247.032,-216.265,-204.500,-85.240,40.780
515,55772.923000,26.922,266.119,-375.598,-367.996,-243.132,-219.171,-44.500,47.760,23.780
516,55772.938000,-0.489,259.036,-338.039,-370.810,-245.035,-225.026,242.500,246.760,-28.220
517,55772.960000,53.354,262.071,-324.201,-361.899,-247.045,-230.104,532.500,397.760,-38.220
518,55772.980000,58.249,276.237,-334.085,-362.749,-244.125,-238.952,810.500,137.760,-2.220
519,55773.0,67.059,278.261,-333.097,-354.801,-240.317,-247.957,1070.500,-18.240,75.780
520,55773.23000,56.291,284.332,-336.062,-348.635,-242.290,-263.815,1313.500,-171.240,100.780
521,55773.65000,48.459,285.344,-342.981,-340.651,-244.288,-271.830,1553.500,-196.240,121.780
522,55773.74000,55.312,300.522,-345.946,-325.592,-248.272,-291.781,1756.500,-87.240,178.780
523,55773.88000,44.543,320.759,-332.108,-318.701,-243.492,-296.831,1846.500,24.760,186.780
524,55773.110000,80.765,311.652,-326.178,-303.600,-242.634,-321.710,2058.500,229.760,265.780
525,55773.127000,103.281,314.688,-328.154,-272.910,-247.729,-339.967,2261.500,-1.240,300.780
526,55773.148000,90.554,311.652,-325.189,-261.940,-245.880,-352.961,2466.500,-284.240,345.780
527,55773.170000,52.375,298.498,-301.467,-229.233,-250.021,-375.193,2608.500,-375.240,333.780
528,55773.193000,24.964,291.415,-278.734,-221.275,-252.989,-381.237,2693.500,-152.240,308.780
529,55773.215000,55.312,279.273,-248.093,-185.746,-254.260,-398.600,2765.500,173.760,387.780
530,55773.235000,133.629,242.846,-246.116,-166.012,-253.461,-408.795,2830.500,-403.240,354.780
531,55773.250000,132.650,232.727,-241.174,-130.626,-271.194,-409.400,2876.500,-1156.240,296.780
532,55773.268000,86.639,209.455,-210.533,-85.393,-297.725,-409.185,2907.500,-1357.240,258.780
533,55773.295000,31.816,183.146,-191.753,-64.843,-305.654,-405.601,2901.500,-1335.240,177.780
534,55773.321000,15.174,163.921,-185.822,-29.561,-319.522,-402.271,2881.500,-886.240,182.780
535,55773.330000,24.964,146.719,-158.147,-12.865,-324.510,-403.545,2838.500,-489.240,218.780
536,55773.348000,63.143,107.257,-118.610,21.255,-335.475,-391.338,2762.500,-553.240,230.780
537,55773.375000,65.101,71.842,-106.749,44.663,-342.468,-383.869,2629.500,-984.240,170.780
538,55773.395000,23.006,56.664,-88.958,76.715,-360.198,-361.773,2486.500,-1025.240,103.780
539,55773.414000,-3.426,24.285,-72.154,102.082,-376.888,-349.404,2319.500,-766.240,78.780
540,55773.439000,-24.964,5.059,-68.201,109.772,-376.966,-341.664,2240.500,-539.240,91.780
541,55773.448000,-27.901,-14.166,-65.236,137.076,-385.932,-332.292,2106.500,-28.240,191.780
542,55773.476000,-13.216,-36.427,-60.293,138.937,-379.180,-330.364,1976.500,289.760,296.780
543,55773.508000,-9.300,-60.711,-42.502,161.400,-384.226,-325.834,1823.500,270.760,341.780
544,55773.520000,-29.859,-81.960,-29.653,166.198,-389.116,-318.037,1659.500,213.760,314.780
545,55773.540000,-47.480,-98.150,-6.919,179.879,-387.305,-318.281,1450.500,381.760,269.780
546,55773.564000,-33.774,-126.482,2.965,179.800,-380.535,-317.303,1185.500,358.760,276.780
547,55773.581000,-8.321,-139.636,-29.653,194.453,-385.509,-313.619,962.500,116.760,245.780
548,55773.604000,-17.132,-139.636,-37.560,200.315,-386.531,-312.737,788.500,-13.240,216.780
549,55773.619000,-33.774,-160.885,-10.873,199.242,-387.495,-306.810,664.500,23.760,199.780
550,55773.636000,-23.006,-168.980,31.629,202.205,-394.296,-304.886,345.500,-26.240,143.780
551,55773.659000,-39.648,-164.933,-4.942,204.067,-395.287,-299.011,1.500,-402.240,56.780
552,55773.681000,-57.270,-165.945,-3.954,194.248,-399.071,-294.895,-210.500,-539.240,-43.220
553,55773.704000,-73.912,-166.957,1.977,194.240,-401.975,-292.922,-396.500,-326.240,-92.220
554,55773.726000,-59.228,-152.791,-2.965,190.412,-396.128,-300.737,-607.500,63.760,-103.220
555,55773.761000,-37.690,-130.530,4.942,184.583,-393.168,-304.575,-803.500,294.760,-174.220
556,55773.790000,-35.732,-118.387,14.826,183.787,-394.117,-314.405,-1015.500,302.760,-253.220
557,55773.793000,-10.279,-116.364,11.861,176.008,-382.428,-323.141,-1135.500,333.760,-270.220
558,55773.805000,5.384,-89.043,-10.873,163.381,-377.468,-330.799,-1388.500,196.760,-281.220
559,55773.823000,-23.006,-70.830,-4.942,157.579,-375.474,-335.621,-1574.500,-5.240,-274.220
560,55773.850000,-48.459,-56.664,29.653,142.043,-369.518,-345.197,-1779.500,217.760,-222.220
561,55773.868000,-14.195,-34.403,55.351,121.734,-357.703,-364.541,-2139.500,780.760,-214.220
562,55773.891000,72.933,-5.059,17.792,102.367,-342.027,-383.906,-2539.500,856.760,-288.220
563,55773.908000,86.639,53.628,-60.293,70.138,-342.698,-386.288,-2766.500,26.760,-442.220
564,55773.926000,28.880,89.043,-113.668,40.765,-340.496,-385.771,-2756.500,-530.240,-446.220
565,55773.946000,-8.321,96.126,-121.575,21.220,-335.477,-389.369,-2879.500,132.760,-320.220
566,55773.974000,48.459,122.435,-145.297,-9.107,-324.554,-394.752,-3001.500,488.760,-285.220
567,55773.991000,77.828,157.850,-174.950,-35.457,-324.310,-398.224,-3134.500,347.760,-339.220
568,55774.14000,38.669,191.241,-166.054,-72.805,-319.142,-390.678,-3138.500,-134.240,-372.220
569,55774.36000,14.195,237.787,-198.672,-97.304,-311.178,-392.223,-3189.500,449.760,-240.220
570,55774.74000,56.291,245.881,-253.035,-128.802,-294.449,-389.716,-3317.500,1220.760,-143.220
571,55774.88000,94.470,262.071,-267.861,-182.881,-284.296,-378.926,-3338.500,728.760,-252.220
572,55774.94000,-15.174,287.368,-233.266,-190.919,-274.557,-371.905,-3233.500,816.760,-140.220
573,55774.114000,52.375,323.794,-240.185,-232.331,-256.779,-362.333,-3106.500,1265.760,-135.220
574,55774.141000,121.881,379.447,-295.537,-249.191,-256.641,-349.237,-3075.500,884.760,-364.220
575,55774.164000,51.396,384.506,-315.305,-284.892,-259.251,-320.053,-3016.500,-139.240,-382.220
576,55774.181000,28.880,385.518,-337.050,-298.843,-252.365,-308.985,-2880.500,-39.240,-228.220
577,55774.204000,53.354,392.601,-381.529,-318.853,-257.051,-281.061,-2664.500,-7.240,-203.220
578,55774.224000,9.300,383.494,-351.876,-342.856,-254.931,-252.089,-2468.500,-163.240,-303.220
579,55774.244000,38.669,369.328,-363.737,-348.865,-256.822,-243.121,-2162.500,-240.240,-301.220
580,55774.264000,36.711,349.091,-390.425,-358.043,-259.666,-220.313,-1738.500,-100.240,-139.220
581,55774.280000,46.501,322.783,-390.425,-364.088,-253.815,-213.321,-1298.500,16.760,-15.220
582,55774.301000,24.964,302.545,-363.737,-368.209,-255.727,-200.448,-951.500,-36.240,65.780
583,55774.319000,-9.300,277.249,-336.062,-372.184,-256.663,-196.439,-801.500,51.760,63.780
584,55774.342000,19.090,257.012,-301.467,-378.151,-249.840,-194.372,-591.500,374.760,26.780
585,55774.361000,61.185,247.905,-312.340,-382.116,-253.678,-189.376,-371.500,142.760,-71.220
586,55774.389000,34.753,238.798,-319.259,-384.055,-259.467,-187.366,-92.500,-268.240,-114.220
587,55774.421000,13.216,254.988,-301.467,-375.249,-257.611,-188.508,166.500,-285.240,-106.220
588,55774.448000,-13.216,264.095,-270.826,-378.150,-255.647,-191.412,361.500,-5.240,-99.220
589,55774.448000,24.964,266.119,-251.058,-368.200,-258.630,-199.461,544.500,269.760,-54.220
590,55774.451000,54.333,275.225,-261.931,-367.073,-263.470,-205.382,762.500,85.760,-51.220
591,55774.484000,34.753,278.261,-282.687,-364.909,-261.541,-218.220,883.500,23.760,16.780
592,55774.501000,42.585,280.285,-293.560,-363.906,-256.709,-222.181,1100.500,-2.240,43.780
593,55774.524000,35.732,286.356,-309.375,-354.830,-259.677,-236.121,1279.500,-101.240,52.780
594,55774.544000,45.522,305.581,-354.842,-333.960,-268.557,-250.262,1473.500,-282.240,-4.220
595,55774.564000,59.228,329.866,-387.459,-330.869,-266.639,-260.163,1749.500,-428.240,-14.220
596,55774.586000,29.859,340.996,-382.517,-310.008,-270.680,-276.279,2076.500,-313.240,101.780
597,55774.603000,4.405,333.913,-355.830,-308.717,-274.543,-292.049,2284.500,118.760,246.780
598,55774.626000,16.153,355.162,-333.097,-281.867,-268.952,-320.095,2539.500,461.760,339.780
599,55774.649000,64.122,351.115,-300.479,-268.949,-264.217,-334.111,2792.500,161.760,328.780
600,55774.677000,93.491,327.842,-293.560,-234.276,-271.279,-355.390,2884.500,-175.240,306.780
601,55774.692000,90.554,330.877,-317.282,-199.671,-284.153,-369.770,3033.500,-819.240,257.780
602,55774.714000,41.606,321.771,-310.363,-181.883,-292.047,-375.982,3184.500,-915.240,216.780
603,55774.731000,15.174,296.474,-272.803,-135.580,-304.062,-388.600,3256.500,-570.240,170.780
604,55774.754000,35.732,272.190,-228.324,-120.850,-304.193,-391.814,3290.500,-445.240,157.780
605,55774.788000,65.101,245.881,-172.973,-77.690,-316.193,-392.564,3288.500,-722.240,101.780
606,55774.804000,57.270,205.407,-149.251,-53.164,-327.059,-391.016,3207.500,-976.240,21.780
607,55774.822000,26.922,183.146,-136.402,-13.068,-343.879,-381.861,3101.500,-854.240,-5.220
608,55774.844000,18.111,155.826,-104.772,16.289,-353.825,-377.447,3052.500,-731.240,24.780
609,55774.855000,14.195,120.411,-71.166,49.404,-361.879,-365.225,2888.500,-573.240,39.780
610,55774.886000,8.321,59.700,-39.537,85.551,-372.859,-356.992,2728.500,-472.240,74.780
611,55774.901000,12.237,15.178,-48.432,91.266,-374.857,-347.246,2564.500,-343.240,138.780
612,55774.919000,1.468,-2.024,-31.629,117.550,-384.784,-334.902,2389.500,-325.240,154.780
613,55774.941000,-29.859,-35.415,-14.826,127.215,-390.687,-325.221,2199.500,-262.240,147.780
614,55774.965000,-26.922,-65.771,-5.931,153.479,-394.807,-314.852,1983.500,-40.240,110.780
615,55774.984000,-13.216,-90.055,-17.792,154.344,-389.983,-310.935,1729.500,175.760,109.780
616,55775.2000,-20.069,-107.257,-27.676,172.824,-393.062,-303.383,1499.500,167.760,136.780
617,55775.25000,-10.279,-137.613,-16.803,182.557,-393.154,-300.602,1387.500,209.760,147.780
618,55775.56000,-1.468,-137.613,-11.861,195.252,-396.175,-297.869,1140.500,173.760,163.780
619,55775.60000,-36.711,-146.719,-0.988,198.093,-399.111,-291.025,896.500,25.760,129.780
620,55775.93000,-48.459,-162.909,17.792,199.072,-399.120,-291.042,657.500,138.760,112.780
621,55775.116000,-13.216,-165.945,19.768,201.045,-395.265,-294.035,374.500,225.760,62.780
622,55775.145000,-0.489,-161.897,27.676,202.006,-395.275,-293.068,87.500,-21.240,-17.220
623,55775.154000,-18.111,-162.909,7.907,204.846,-394.339,-288.197,-195.500,-327.240,-37.220
624,55775.165000,-34.753,-153.802,5.931,200.968,-398.173,-288.124,-403.500,-286.240,-8.220
625,55775.181000,-37.690,-157.850,18.780,200.042,-400.097,-290.074,-499.500,-201.240,6.780
626,55775.204000,-37.690,-134.577,24.710,190.326,-400.004,-293.840,-731.500,-64.240,-1.220
627,55775.221000,-12.237,-125.470,25.699,179.605,-397.000,-297.592,-964.500,112.760,-16.220
628,55775.247000,-17.132,-105.233,-11.861,166.001,-393.966,-304.246,-1220.500,6.760,-42.220
629,55775.268000,-25.943,-89.043,-29.653,167.135,-393.967,-313.126,-1397.500,45.760,-42.220
630,55775.294000,-17.132,-83.984,-32.618,145.711,-389.893,-320.627,-1578.500,184.760,-17.220
631,55775.306000,-6.363,-51.605,-26.687,134.090,-387.844,-328.299,-1767.500,425.760,38.780
632,55775.323000,9.300,-30.356,-23.722,112.724,-375.056,-343.688,-1976.500,549.760,86.780
633,55775.349000,9.300,-11.130,-34.595,84.518,-365.110,-357.967,-2232.500,527.760,106.780
634,55775.371000,33.774,16.190,-67.212,71.892,-360.149,-365.625,-2350.500,486.760,101.780
635,55775.386000,41.606,58.688,-101.807,37.721,-353.058,-372.904,-2525.500,294.760,45.780
636,55775.431000,7.342,86.008,-120.587,20.150,-349.992,-376.535,-2630.500,349.760,40.780
637,55775.463000,-5.384,89.043,-99.830,-17.893,-336.088,-389.661,-2798.500,793.760,-14.220
638,55775.463000,50.417,116.364,-119.598,-41.415,-324.261,-393.196,-3010.500,857.760,-92.220
639,55775.482000,69.017,172.016,-178.903,-78.668,-316.184,-392.546,-3144.500,296.760,-215.220
640,55775.501000,10.279,195.289,-215.475,-115.973,-313.917,-385.982,-3184.500,223.760,-251.220
641,55775.521000,-16.153,201.360,-213.498,-132.774,-303.128,-381.760,-3302.500,732.760,-291.220
642,55775.561000,7.342,229.692,-217.452,-176.021,-291.133,-376.086,-3409.500,918.760,-431.220
643,55775.565000,55.312,272.190,-253.035,-199.635,-288.023,-369.766,-3403.500,836.760,-513.220
644,55775.571000,17.132,279.273,-297.514,-235.314,-276.113,-349.459,-3324.500,526.760,-561.220
645,55775.589000,10.279,313.676,-306.409,-253.135,-272.093,-339.304,-3146.500,726.760,-505.220
646,55775.623000,51.396,362.245,-306.409,-275.998,-261.262,-324.145,-2940.500,725.760,-478.220
647,55775.645000,80.765,436.111,-302.456,-303.777,-261.034,-301.996,-2755.500,426.760,-533.220
648,55775.670000,99.365,457.360,-298.502,-312.851,-260.001,-287.070,-2558.500,133.760,-456.220
649,55775.683000,84.681,399.684,-348.911,-327.900,-262.792,-264.158,-2259.500,113.760,-265.220
650,55775.705000,77.828,346.055,-341.004,-343.765,-258.790,-254.038,-1905.500,172.760,-19.220
651,55775.725000,46.501,291.415,-356.819,-356.797,-254.821,-238.060,-1740.500,191.760,79.780
652,55775.748000,48.459,296.474,-361.761,-354.980,-250.975,-232.190,-1410.500,285.760,92.780
653,55775.771000,55.312,301.534,-349.900,-364.980,-253.801,-218.228,-1115.500,216.760,31.780
654,55775.789000,46.501,282.308,-353.853,-369.986,-248.924,-214.207,-807.500,171.760,55.780
655,55775.803000,53.354,270.166,-351.876,-377.945,-245.956,-208.163,-516.500,1.760,127.780
656,55775.835000,24.964,268.142,-334.085,-379.019,-243.049,-204.210,-237.500,-126.240,149.780
657,55775.849000,16.153,266.119,-324.201,-375.027,-245.984,-207.230,3.500,-110.240,76.780
658,55775.881000,25.943,258.024,-319.259,-370.152,-242.158,-208.305,245.500,-158.240,8.780
659,55775.884000,12.237,258.024,-321.236,-373.927,-247.922,-213.154,506.500,-80.240,10.780
660,55775.904000,23.985,267.130,-309.375,-367.951,-249.905,-218.180,622.500,-67.240,19.780
661,55775.925000,28.880,272.190,-307.398,-367.873,-250.869,-222.118,828.500,-172.240,18.780
662,55775.958000,47.480,280.285,-308.386,-363.838,-250.897,-229.080,1063.500,-454.240,-13.220
663,55775.959000,28.880,287.368,-310.363,-353.758,-256.777,-243.034,1300.500,-404.240,23.780
664,55775.990000,30.837,307.605,-327.166,-340.864,-258.819,-252.120,1497.500,-105.240,46.780
665,55776.8000,56.291,329.866,-356.819,-323.866,-257.014,-274.081,1781.500,50.760,90.780
666,55776.30000,67.059,317.723,-358.795,-324.671,-260.867,-281.938,2115.500,53.760,246.780
667,55776.53000,76.849,331.889,-356.819,-302.739,-256.200,-307.927,2446.500,-4.240,448.780
668,55776.84000,75.870,314.688,-320.247,-293.716,-257.236,-319.899,2574.500,-118.240,513.780
669,55776.98000,58.249,314.688,-327.166,-263.018,-263.299,-338.155,2743.500,-639.240,455.780
670,55776.126000,19.090,294.451,-314.317,-230.282,-280.021,-355.450,2847.500,-1005.240,300.780
671,55776.136000,12.237,288.379,-303.444,-209.602,-288.912,-358.759,2918.500,-925.240,156.780
672,55776.150000,21.048,274.213,-275.768,-173.049,-298.901,-374.161,2981.500,-675.240,54.780
673,55776.168000,31.816,252.964,-252.046,-161.237,-300.939,-377.321,3045.500,-546.240,27.780
674,55776.190000,39.648,237.787,-196.695,-119.887,-313.881,-385.913,3083.500,-569.240,4.780
675,55776.210000,55.312,203.383,-145.297,-96.376,-318.933,-385.339,3075.500,-634.240,57.780
676,55776.231000,36.711,175.051,-135.413,-56.133,-330.906,-387.021,2993.500,-771.240,53.780
677,55776.253000,23.006,146.719,-133.436,-38.396,-344.609,-387.319,2935.500,-789.240,39.780
678,55776.280000,27.901,119.399,-115.645,-6.241,-356.526,-374.092,2816.500,-769.240,1.780
679,55776.298000,23.006,97.138,-91.923,34.720,-368.522,-361.020,2668.500,-850.240,-99.220
680,55776.320000,15.174,60.711,-83.027,50.334,-375.442,-355.381,2516.500,-848.240,-152.220
681,55776.343000,20.069,22.261,-80.062,82.411,-386.394,-338.216,2357.500,-782.240,-150.220
682,55776.360000,16.153,4.047,-72.154,95.983,-397.173,-325.645,2193.500,-900.240,-178.220
683,55776.390000,-5.384,-16.190,-69.189,121.211,-413.871,-305.399,2055.500,-942.240,-153.220
684,55776.419000,-22.027,-40.474,-60.293,123.974,-415.843,-294.616,1935.500,-710.240,-92.220
685,55776.419000,-30.837,-61.723,-54.363,149.140,-421.897,-276.350,1871.500,-569.240,-35.220
686,55776.448000,-45.522,-72.854,-33.606,162.658,-424.936,-264.772,1746.500,-255.240,-4.220
687,55776.463000,-47.480,-104.221,-5.931,176.305,-426.999,-261.073,1593.500,122.760,42.780
688,55776.485000,-37.690,-136.601,-8.896,185.086,-428.048,-259.258,1353.500,300.760,59.780
689,55776.509000,-22.027,-148.743,-27.676,192.871,-429.090,-256.442,1097.500,150.760,-0.220
690,55776.524000,-35.732,-148.743,-13.838,194.706,-427.179,-250.570,907.500,12.760,-79.220
691,55776.545000,-50.417,-159.874,22.734,203.477,-423.389,-250.729,695.500,251.760,-78.220
692,55776.562000,-27.901,-176.063,30.641,205.442,-420.503,-252.736,381.500,487.760,-12.220
693,55776.583000,4.405,-174.040,6.919,206.455,-420.510,-254.723,77.500,254.760,2.780
694,55776.605000,7.342,-168.980,-5.931,208.473,-421.492,-257.711,-48.500,41.760,1.780
695,55776.628000,-17.132,-165.945,-18.780,207.400,-422.456,-251.784,-268.500,-263.240,10.780
696,55776.660000,-27.901,-156.838,-7.907,198.627,-420.439,-254.585,-439.500,-192.240,49.780
697,55776.679000,-23.985,-158.862,-1.977,190.868,-420.363,-258.385,-649.500,-108.240,51.780
698,55776.701000,-22.027,-144.696,-7.907,196.783,-423.318,-259.471,-893.500,-156.240,10.780
699,55776.710000,-14.195,-132.553,-18.780,185.102,-422.240,-263.203,-1134.500,-215.240,-28.220
700,55776.733000,-11.258,-115.352,-15.815,166.142,-421.380,-19.709,-1378.500,-201.240,-50.220
701,55776.755000,-0.489,-95.115,-9.884,155.937,-421.962,-273.517,-1619.500,-167.240,-29.220
702,55776.780000,16.153,-81.960,-4.942,141.373,-422.790,-279.165,-1865.500,-175.240,7.780
703,55776.800000,42.585,-58.688,-6.919,132.662,-423.673,-283.932,-1994.500,-341.240,14.780
704,55776.823000,20.069,-35.415,-18.780,108.242,-422.480,-286.455,-2219.500,-478.240,135.780
705,55776.845000,-28.880,-11.130,-42.502,92.681,-421.365,-292.087,-2397.500,-110.240,335.780
706,55776.860000,-48.459,6.071,-67.212,61.600,-408.484,-311.242,-2547.500,712.760,480.780
707,55776.880000,-18.111,25.296,-105.761,42.185,-406.362,-320.745,-2690.500,1117.760,415.780
708,55776.895000,10.279,60.711,-118.610,2.236,-388.565,-338.764,-2833.500,972.760,263.780
709,55776.920000,34.753,104.221,-147.274,-35.833,-377.566,-348.932,-2924.500,540.760,148.780
710,55776.944000,1.468,154.814,-166.054,-48.606,-373.582,-347.726,-2966.500,555.760,187.780
711,55776.967000,-16.153,175.051,-202.625,-90.677,-356.744,-355.862,-2971.500,692.760,214.780
712,55776.980000,-2.447,194.277,-242.162,-110.335,-350.764,-353.552,-2936.500,945.760,206.780
713,55777.3000,4.405,219.573,-240.185,-150.526,-332.981,-357.784,-2886.500,1002.760,182.780
714,55777.20000,-14.195,237.787,-225.359,-168.290,-320.247,-355.516,-2832.500,1266.760,197.780
715,55777.40000,-0.489,254.988,-212.510,-205.660,-297.657,-355.865,-2813.500,1380.760,178.780
716,55777.60000,52.375,287.368,-256.000,-236.350,-288.690,-339.582,-2787.500,903.760,-41.220
717,55777.92000,63.143,321.771,-248.093,-249.201,-283.742,-334.438,-2723.500,277.760,-170.220
718,55777.105000,9.300,328.854,-255.012,-274.997,-280.628,-315.280,-2636.500,537.760,-82.220
719,55777.125000,-16.153,326.830,-251.058,-294.812,-268.848,-307.068,-2555.500,1023.760,0.780
720,55777.148000,62.164,328.854,-276.757,-318.670,-261.881,-288.934,-2504.500,839.760,-53.220
721,55777.168000,110.134,357.186,-286.641,-321.813,-263.802,-276.078,-2415.500,-54.240,-237.220
722,55777.188000,73.912,377.423,-297.514,-343.832,-266.537,-246.152,-2224.500,-525.240,-180.220
723,55777.205000,15.174,345.043,-331.120,-352.951,-262.603,-230.244,-1963.500,82.760,-13.220
724,55777.237000,49.438,322.783,-340.015,-366.909,-262.493,-215.230,-1654.500,321.760,85.780
725,55777.239000,30.837,283.320,-370.656,-373.075,-258.585,-200.359,-1310.500,-7.240,162.780
726,55777.263000,5.384,294.451,-366.703,-376.116,-252.757,-197.358,-986.500,-166.240,183.780
727,55777.277000,-19.090,295.462,-360.772,-380.176,-257.569,-186.452,-661.500,-162.240,130.780
728,55777.301000,-22.027,282.308,-358.795,-384.150,-258.504,-182.443,-506.500,-53.240,98.780
729,55777.324000,8.321,277.249,-348.911,-380.289,-252.736,-182.518,-205.500,199.760,38.780
730,55777.346000,9.300,273.202,-334.085,-388.022,-251.691,-188.289,77.500,134.760,-15.220
731,55777.369000,14.195,280.285,-327.166,-385.060,-254.620,-188.338,355.500,-20.240,-20.220
732,55777.389000,14.195,282.308,-327.166,-378.159,-254.680,-191.413,630.500,-98.240,-13.220
733,55777.416000,23.985,286.356,-325.189,-374.098,-255.675,-199.360,901.500,-98.240,-28.220
734,55777.429000,35.732,292.427,-332.108,-362.113,-257.704,-212.367,1157.500,-201.240,-21.220
735,55777.457000,33.774,316.711,-335.073,-366.831,-263.457,-219.168,1413.500,-300.240,-24.220
736,55777.494000,23.985,308.617,-321.236,-352.821,-263.564,-237.136,1704.500,-129.240,49.780
737,55777.503000,42.585,305.581,-323.212,-337.909,-266.588,-249.210,1838.500,-33.240,106.780
738,55777.517000,62.164,323.794,-318.270,-322.859,-267.668,-270.148,2070.500,-96.240,190.780
739,55777.539000,51.396,330.877,-305.421,-307.740,-270.680,-294.039,2294.500,-350.240,215.780
740,55777.551000,28.880,321.771,-308.386,-292.880,-273.707,-303.159,2528.500,-490.240,264.780
741,55777.574000,23.006,323.794,-279.722,-265.015,-273.930,-330.232,2722.500,-263.240,376.780
742,55777.597000,35.732,307.605,-270.826,-257.066,-275.930,-336.277,2852.500,-72.240,571.780
743,55777.619000,42.585,294.451,-265.884,-232.189,-274.193,-361.330,2947.500,-114.240,699.780
744,55777.639000,70.975,262.071,-232.278,-209.536,-277.293,-368.619,3006.500,-451.240,693.780
745,55777.655000,77.828,218.561,-218.440,-180.905,-292.056,-375.999,2996.500,-818.240,523.780
746,55777.675000,32.795,187.194,-220.417,-163.062,-311.561,-379.245,2917.500,-1427.240,405.780
747,55777.696000,13.216,155.826,-240.185,-134.571,-322.459,-380.721,2805.500,-1446.240,181.780
748,55777.726000,9.300,143.684,-229.313,-91.434,-343.172,-375.553,2719.500,-1169.240,-77.220
749,55777.755000,9.300,111.304,-199.660,-77.733,-349.104,-372.835,2657.500,-970.240,-311.220
750,55777.774000,23.985,92.079,-180.880,-34.623,-368.851,-366.684,2534.500,-904.240,-522.220
751,55777.778000,41.606,86.008,-161.112,-16.082,-376.766,-360.111,2420.500,-945.240,-636.220
752,55777.790000,37.690,71.842,-136.402,23.902,-390.689,-346.036,2320.500,-982.240,-627.220
753,55777.818000,25.943,57.676,-119.598,41.394,-392.792,-338.467,2224.500,-993.240,-601.220
754,55777.835000,-4.405,34.403,-87.969,65.635,-406.577,-319.191,2167.500,-886.240,-592.220
755,55777.858000,-4.405,1.012,-89.946,101.634,-418.533,-302.094,2014.500,-639.240,-589.220
756,55777.880000,3.426,-12.142,-81.050,116.261,-422.541,-297.425,1875.500,-591.240,-613.220
757,55777.903000,3.426,-27.320,-51.398,141.356,-424.727,-277.193,1765.500,-629.240,-589.220
758,55777.934000,-4.405,-57.676,-33.606,147.159,-428.656,-271.385,1628.500,-603.240,-479.220
759,55777.954000,-24.964,-77.913,-34.595,167.397,-432.732,-252.049,1481.500,-392.240,-318.220
760,55777.969000,-25.943,-97.138,-12.849,178.160,-434.766,-251.252,1344.500,-72.240,-165.220
761,55777.991000,-20.069,-121.423,5.931,187.780,-431.960,-243.550,1151.500,86.760,-37.220
762,55778.11000,-23.985,-140.648,6.919,190.664,-433.926,-239.661,917.500,112.760,49.780
763,55778.31000,-23.006,-149.755,3.954,199.454,-437.878,-236.859,800.500,125.760,62.780
764,55778.49000,-35.732,-159.874,-4.942,204.242,-434.057,-233.010,578.500,81.760,60.780
765,55778.60000,-37.690,-165.945,-8.896,197.401,-433.026,-233.875,368.500,101.760,39.780
766,55778.98000,-27.901,-164.933,-1.977,203.229,-432.114,-232.010,159.500,98.760,34.780
767,55778.130000,-26.922,-174.040,8.896,202.372,-435.970,-236.913,-85.500,60.760,58.780
768,55778.149000,-28.880,-178.087,7.907,205.325,-437.932,-236.963,-382.500,36.760,38.780
769,55778.153000,-28.880,-161.897,-9.884,193.712,-434.914,-245.621,-642.500,-23.240,3.780
770,55778.175000,-28.880,-152.791,-22.734,185.849,-432.909,-244.499,-870.500,-14.240,-27.220
771,55778.193000,-15.174,-131.542,-14.826,181.094,-428.985,-254.264,-980.500,2.760,-31.220
772,55778.215000,-3.426,-114.340,-0.988,173.292,-427.944,-256.097,-1198.500,38.760,-5.220
773,55778.233000,-11.258,-103.209,-4.942,156.873,-424.877,-269.592,-1429.500,134.760,95.780
774,55778.255000,-10.279,-100.174,-41.514,150.111,-426.746,-273.408,-1617.500,220.760,164.780
775,55778.278000,9.300,-66.783,-46.456,136.618,-420.802,-287.943,-1755.500,219.760,167.780
776,55778.300000,5.384,-46.545,-33.606,117.125,-415.781,-294.495,-1932.500,319.760,188.780
777,55778.323000,9.300,-37.439,-39.537,99.745,-412.704,-308.958,-2164.500,338.760,242.780
778,55778.340000,21.048,-11.130,-79.073,62.725,-407.517,-320.123,-2301.500,235.760,275.780
779,55778.362000,20.069,18.213,-98.842,52.013,-403.544,-324.860,-2385.500,199.760,333.780
780,55778.380000,0.489,42.498,-96.865,13.996,-392.542,-337.983,-2445.500,415.760,368.780
781,55778.398000,12.237,50.593,-96.865,-5.522,-390.426,-341.578,-2644.500,648.760,434.780
782,55778.412000,45.522,66.783,-152.216,-40.758,-383.331,-343.916,-2790.500,306.760,427.780
783,55778.439000,0.489,158.862,-188.788,-62.399,-378.302,-339.601,-2809.500,35.760,423.780
784,55778.462000,-29.859,190.229,-188.788,-102.572,-366.325,-341.858,-2883.500,423.760,417.780
785,55778.481000,23.985,226.656,-216.463,-144.798,-349.497,-341.130,-2980.500,989.760,361.780
786,55778.499000,38.669,241.834,-250.069,-156.516,-344.549,-344.867,-2959.500,851.760,234.780
787,55778.519000,2.447,251.953,-245.127,-193.104,-330.691,-329.469,-2881.500,514.760,122.780
788,55778.540000,-0.489,254.988,-262.919,-212.787,-327.616,-324.202,-2848.500,507.760,123.780
789,55778.568000,-9.300,287.368,-280.710,-246.422,-313.783,-309.840,-2742.500,468.760,186.780
790,55778.600000,-10.279,322.783,-299.490,-253.393,-311.792,-303.813,-2605.500,412.760,248.780
791,55778.619000,-24.964,349.091,-315.305,-282.168,-309.621,-281.648,-2455.500,146.760,192.780
792,55778.628000,-62.164,355.162,-329.143,-287.058,-300.609,-508.981,-2282.500,-50.240,149.780
793,55778.650000,-66.080,365.281,-336.062,-315.127,-300.653,-247.604,-2092.500,173.760,120.780
794,55778.675000,-48.459,355.162,-350.888,-329.113,-291.834,-235.554,-1919.500,489.760,73.780
795,55778.690000,-2.447,333.913,-380.541,-341.990,-287.855,-228.439,-1706.500,385.760,-70.220
796,55778.710000,-12.237,322.783,-390.425,-346.208,-284.933,-212.617,-1577.500,223.760,-242.220
797,55778.730000,-44.543,277.249,-396.355,-351.152,-286.827,-208.589,-1236.500,174.760,-251.220
798,55778.755000,-11.258,262.071,-380.541,-347.343,-282.997,-204.723,-849.500,633.760,-149.220
799,55778.778000,18.111,262.071,-346.934,-360.029,-279.008,-208.441,-472.500,909.760,24.780
800,55778.798000,43.564,247.905,-339.027,-357.122,-272.261,-210.470,-163.500,625.760,135.780
801,55778.813000,34.753,247.905,-340.015,-355.199,-274.217,-207.548,70.500,-17.240,96.780
802,55778.835000,-0.489,249.929,-318.270,-355.130,-274.213,-211.487,286.500,-270.240,33.780
803,55778.853000,-13.216,242.846,-319.259,-353.995,-276.149,-219.380,508.500,-79.240,-5.220
804,55778.870000,-14.195,253.976,-321.236,-351.043,-274.239,-221.404,739.500,340.760,29.780
805,55778.898000,8.321,252.964,-314.317,-346.878,-271.356,-237.232,858.500,496.760,71.780
806,55778.930000,22.027,263.083,-309.375,-337.000,-266.600,-245.288,1077.500,529.760,135.780
807,55778.944000,8.321,279.273,-325.189,-332.680,-263.709,-269.979,1335.500,661.760,290.780
808,55778.958000,-15.174,279.273,-337.050,-321.638,-235.722,-300.725,1631.500,1531.760,667.780
809,55778.980000,75.870,275.225,-293.560,-313.598,-221.263,-320.574,1866.500,2284.760,1034.780
810,55779.4000,192.367,275.225,-269.838,-303.489,-200.040,-350.311,2009.500,1303.760,1237.780
811,55779.18000,202.157,272.190,-288.618,-297.507,-195.247,-359.283,2135.500,-467.240,1282.780
812,55779.35000,116.987,272.190,-303.444,-274.679,-206.081,-372.472,2262.500,-1231.240,1281.780
813,55779.69000,75.870,259.036,-302.456,-262.842,-205.214,-378.589,2326.500,-1215.240,1290.780
814,55779.86000,70.975,238.798,-292.571,-244.942,-212.134,-391.695,2413.500,-975.240,1281.780
815,55779.104000,68.038,214.514,-284.664,-236.819,-216.060,-406.601,2450.500,-855.240,1206.780
816,55779.124000,76.849,187.194,-255.012,-209.255,-225.011,-412.001,2432.500,-762.240,1091.780
817,55779.141000,99.365,157.850,-222.394,-182.556,-236.850,-422.304,2358.500,-909.240,928.780
818,55779.163000,88.597,116.364,-221.405,-170.743,-244.696,-422.504,2265.500,-1377.240,661.780
819,55779.184000,65.101,100.174,-221.405,-141.252,-267.217,-419.061,2155.500,-1590.240,336.780
820,55779.207000,66.080,80.949,-215.475,-119.635,-282.894,-416.472,2055.500,-1718.240,27.780
821,55779.219000,48.459,75.889,-215.475,-92.205,-309.275,-405.113,1988.500,-1648.240,-199.220
822,55779.251000,58.249,63.747,-203.614,-86.297,-319.005,-402.253,1970.500,-1506.240,-260.220
823,55779.269000,49.438,51.605,-187.799,-55.958,-342.511,-390.948,1956.500,-1387.240,-402.220
824,55779.285000,27.901,41.486,-168.031,-17.973,-363.193,-370.923,1940.500,-1247.240,-514.220
825,55779.309000,38.669,25.296,-168.031,1.634,-371.113,-369.292,1878.500,-1237.240,-622.220
826,55779.330000,43.564,34.403,-166.054,27.807,-389.757,-346.106,1841.500,-1370.240,-682.220
827,55779.358000,26.922,28.332,-141.344,39.508,-398.577,-339.411,1831.500,-1256.240,-622.220
828,55779.366000,-4.405,3.036,-117.622,66.727,-413.355,-322.156,1790.500,-843.240,-494.220
829,55779.414000,-19.090,-19.225,-107.737,77.387,-415.394,-315.451,1728.500,-390.240,-358.220
830,55779.443000,-5.384,-36.427,-87.969,101.625,-415.629,-303.081,1695.500,-218.240,-218.220
831,55779.443000,5.384,-66.783,-69.189,121.119,-422.587,-295.542,1595.500,-192.240,-161.220
832,55779.445000,0.489,-87.020,-56.340,129.849,-429.447,-287.813,1446.500,-432.240,-148.220
833,55779.464000,-10.279,-96.126,-33.606,145.264,-437.346,-270.356,1264.500,-716.240,-158.220
834,55779.486000,-32.795,-109.281,-34.595,146.070,-437.365,-260.526,1076.500,-834.240,-155.220
835,55779.504000,-70.975,-116.364,-21.745,155.709,-444.237,-248.875,896.500,-496.240,-113.220
836,55779.531000,-80.765,-135.589,-11.861,162.481,-445.272,-244.072,692.500,-62.240,-45.220
837,55779.549000,-64.122,-138.625,-14.826,162.437,-442.370,-243.090,520.500,100.760,16.780
838,55779.565000,-59.228,-130.530,-3.954,164.507,-443.350,-249.032,361.500,208.760,49.780
839,55779.583000,-58.249,-152.791,23.722,166.403,-442.403,-246.113,236.500,215.760,51.780
840,55779.610000,-34.753,-159.874,26.687,166.481,-443.367,-250.051,-74.500,154.760,46.780
841,55779.638000,-30.837,-142.672,17.792,160.567,-442.348,-247.979,-384.500,-69.240,64.780
842,55779.658000,-29.859,-122.435,10.873,155.736,-445.203,-249.859,-645.500,-298.240,93.780
843,55779.673000,-29.859,-114.340,10.873,154.758,-447.130,-248.855,-864.500,-312.240,164.780
844,55779.692000,-23.985,-109.281,7.907,141.136,-446.034,-253.538,-1083.500,-201.240,250.780
845,55779.712000,-12.237,-92.079,8.896,133.352,-448.864,-254.381,-1303.500,0.760,317.780
846,55779.739000,-15.174,-77.913,8.896,110.993,-445.747,-263.834,-1493.500,152.760,340.780
847,55779.757000,-33.774,-64.759,4.942,96.497,-440.764,-276.381,-1590.500,192.760,321.780
848,55779.795000,-3.426,-60.711,3.954,81.914,-437.721,-283.018,-1829.500,376.760,304.780
849,55779.798000,32.795,-32.379,-18.780,52.738,-428.733,-297.279,-2152.500,445.760,230.780
850,55779.816000,6.363,7.083,-74.131,40.018,-428.617,-297.054,-2414.500,191.760,180.780
851,55779.837000,2.447,28.332,-99.830,15.684,-421.613,-307.460,-2571.500,303.760,191.780
852,55779.863000,9.300,48.569,-94.888,-7.811,-412.688,-310.993,-2755.500,589.760,117.780
853,55779.878000,14.195,74.877,-137.390,-36.068,-404.680,-321.331,-2971.500,556.760,32.780
854,55779.912000,11.258,130.530,-201.637,-74.268,-386.913,-327.568,-3049.500,624.760,-6.220
855,55779.924000,-13.216,163.921,-224.371,-84.020,-382.951,-331.337,-3015.500,972.760,-19.220
856,55779.951000,-14.195,173.028,-201.637,-120.273,-360.363,-339.583,-3012.500,1291.760,-37.220
857,55779.969000,24.964,206.419,-241.174,-134.909,-353.451,-345.238,-3052.500,1566.760,-61.220
858,55779.994000,59.228,254.988,-277.745,-175.257,-333.742,-341.594,-2994.500,1179.760,-131.220
859,55780.9000,33.774,269.154,-292.571,-190.090,-331.681,-333.459,-2875.500,384.760,-137.220
860,55780.33000,-18.111,313.676,-306.409,-222.754,-324.633,-315.169,-2769.500,118.760,-73.220
861,55780.39000,-17.132,337.960,-324.201,-236.784,-314.848,-301.150,-2689.500,429.760,25.780
862,55780.71000,8.321,342.008,-350.888,-258.467,-314.661,-291.906,-2571.500,408.760,59.780
863,55780.87000,0.489,358.198,-353.853,-282.393,-309.633,-268.846,-2361.500,7.760,120.780
864,55780.100000,-26.922,353.138,-357.807,-302.198,-302.693,-258.659,-2235.500,-164.240,182.780
865,55780.125000,-39.648,340.996,-373.622,-314.294,-305.510,-236.784,-1982.500,-326.240,175.780
866,55780.167000,-49.438,313.676,-394.378,-321.281,-307.391,-227.798,-1733.500,-426.240,92.780
867,55780.184000,-62.164,287.368,-405.251,-325.498,-306.405,-210.989,-1422.500,-323.240,42.780
868,55780.193000,-83.702,274.213,-386.471,-336.314,-304.374,-208.831,-1028.500,276.760,108.780
869,55780.210000,-58.249,258.024,-361.761,-346.248,-297.518,-203.741,-657.500,914.760,215.780
870,55780.224000,-21.048,248.917,-338.039,-348.155,-289.754,-210.608,-359.500,980.760,235.780
871,55780.252000,19.090,236.775,-313.328,-350.132,-280.059,-214.522,-147.500,391.760,172.780
872,55780.274000,9.300,226.656,-324.201,-351.110,-281.986,-213.518,40.500,-169.240,80.780
873,55780.294000,-50.417,228.680,-339.027,-344.303,-283.018,-210.684,148.500,-198.240,31.780
874,55780.311000,-49.438,232.727,-351.876,-344.130,-283.008,-220.531,414.500,161.760,-36.220
875,55780.334000,-32.795,249.929,-359.784,-346.998,-279.106,-226.392,703.500,503.760,-42.220
876,55780.354000,2.447,259.036,-358.795,-339.923,-279.156,-239.315,985.500,548.760,42.780
877,55780.377000,45.522,275.225,-351.876,-330.824,-275.348,-258.185,1245.500,287.760,186.780
878,55780.390000,46.501,298.498,-365.714,-316.987,-271.593,-268.279,1620.500,-88.240,345.780
879,55780.435000,23.985,294.451,-373.622,-305.921,-272.642,-285.209,2017.500,-166.240,552.780
880,55780.449000,20.069,292.427,-383.506,-298.890,-271.726,-296.163,2325.500,-86.240,736.780
881,55780.467000,16.153,299.510,-394.378,-288.699,-268.888,-320.958,2542.500,-33.240,820.780
882,55780.485000,20.069,287.368,-396.355,-265.043,-267.156,-332.208,2640.500,-39.240,827.780
883,55780.500000,54.333,263.083,-388.448,-245.066,-270.215,-354.216,2769.500,-300.240,777.780
884,55780.523000,110.134,253.976,-352.865,-229.156,-280.990,-363.345,2813.500,-840.240,651.780
885,55780.545000,92.512,233.739,-313.328,-201.609,-289.942,-367.760,2804.500,-1506.240,477.780
886,55780.569000,55.312,208.443,-295.537,-166.213,-314.450,-365.404,2787.500,-1724.240,294.780
887,55780.592000,70.975,194.277,-274.780,-158.296,-326.131,-364.546,2806.500,-1481.240,178.780
888,55780.606000,59.228,165.945,-247.104,-115.063,-349.742,-363.314,2822.500,-1314.240,13.780
889,55780.624000,40.627,134.577,-240.185,-100.392,-358.587,-358.641,2796.500,-1233.240,-129.220
890,55780.642000,43.564,113.328,-222.394,-61.291,-375.400,-348.484,2762.500,-1241.240,-198.220
891,55780.664000,44.543,95.115,-199.660,-39.752,-390.113,-341.957,2677.500,-1354.240,-353.220
892,55780.682000,33.774,82.972,-169.019,-11.552,-412.643,-320.771,2589.500,-1404.240,-509.220
893,55780.704000,18.111,69.818,-138.378,22.518,-429.419,-302.650,2501.500,-1323.240,-621.220
894,55780.744000,10.279,48.569,-119.598,36.971,-433.437,-288.134,2397.500,-1263.240,-694.220
895,55780.777000,1.468,45.534,-106.749,75.811,-446.392,-265.179,2338.500,-1051.240,-724.220
896,55780.777000,-26.922,40.474,-79.073,91.382,-452.347,-257.572,2301.500,-550.240,-660.220
897,55780.794000,-24.964,-53.628,-36.571,121.533,-451.665,-248.262,2116.500,-24.240,-543.220
898,55780.814000,-6.363,-58.688,-28.664,127.335,-451.722,-244.427,1886.500,146.760,-415.220
899,55780.837000,-5.384,-74.877,-23.722,149.676,-452.904,-234.976,1804.500,80.760,-355.220
900,55780.854000,-20.069,-104.221,-16.803,165.099,-454.027,-221.465,1646.500,-94.240,-241.220
901,55780.879000,-20.069,-113.328,-7.907,177.785,-454.145,-219.721,1438.500,-220.240,-171.220
902,55780.898000,-32.795,-123.447,4.942,184.471,-459.056,-208.020,1264.500,-331.240,-109.220
903,55780.920000,-69.996,-136.601,16.803,186.273,-462.954,-197.218,1121.500,-360.240,-56.220
904,55780.938000,-74.891,-152.791,43.490,200.847,-465.029,-190.582,955.500,-19.240,-27.220
905,55780.960000,-59.228,-165.945,71.166,197.885,-462.100,-190.533,725.500,362.760,3.780
906,55780.975000,-38.669,-178.087,83.027,199.928,-460.177,-196.478,415.500,505.760,36.780
907,55780.992000,-9.300,-179.099,77.097,204.016,-462.139,-205.409,247.500,411.760,41.780
908,55781.13000,-21.048,-178.087,71.166,203.877,-460.211,-198.517,-87.500,0.760,31.780
909,55781.42000,-38.669,-179.099,70.178,199.981,-462.110,-198.446,-403.500,-280.240,39.780
910,55781.76000,-23.985,-178.087,63.259,189.243,-461.043,-200.226,-732.500,-290.240,93.780
911,55781.78000,-32.795,-139.636,45.467,188.308,-463.935,-201.191,-1037.500,-379.240,125.780
912,55781.99000,-61.185,-114.340,39.537,176.558,-462.861,-200.984,-1227.500,-202.240,180.780
913,55781.121000,-50.417,-112.316,37.560,167.014,-460.823,-215.584,-1386.500,338.760,217.780
914,55781.145000,-20.069,-117.375,17.792,153.375,-455.855,-221.256,-1607.500,533.760,201.780
915,55781.162000,0.489,-91.067,-7.907,144.844,-451.888,-238.829,-1833.500,395.760,168.780
916,55781.187000,-6.363,-60.711,-15.815,125.490,-448.794,-252.273,-1925.500,330.760,154.780
917,55781.207000,-20.069,-34.403,-11.861,108.975,-442.829,-261.832,-2119.500,435.760,139.780
918,55781.225000,-6.363,-34.403,-14.826,90.684,-431.996,-284.164,-2363.500,781.760,145.780
919,55781.244000,29.859,-3.036,-50.409,70.273,-425.994,-294.639,-2645.500,814.760,122.780
920,55781.267000,40.627,44.522,-111.691,41.045,-415.073,-306.932,-2822.500,479.760,87.780
921,55781.288000,-1.468,80.949,-151.228,22.591,-411.025,-316.455,-2901.500,432.760,89.780
922,55781.310000,-1.468,90.055,-155.181,-3.684,-402.065,-328.799,-3025.500,854.760,123.780
923,55781.325000,22.027,119.399,-200.649,-45.833,-380.393,-334.969,-3141.500,931.760,71.780
924,55781.343000,21.048,155.826,-246.116,-64.348,-377.316,-340.552,-3140.500,932.760,61.780
925,55781.357000,42.585,173.028,-267.861,-106.496,-359.515,-344.750,-3111.500,880.760,44.780
926,55781.375000,40.627,214.514,-273.792,-130.961,-351.549,-348.264,-3095.500,812.760,70.780
927,55781.405000,15.174,242.846,-288.618,-161.547,-340.641,-338.875,-3020.500,677.760,144.780
928,55781.429000,1.468,253.976,-300.479,-183.162,-334.643,-336.531,-2880.500,565.760,222.780
929,55781.452000,11.258,289.391,-290.595,-217.768,-317.897,-324.125,-2821.500,580.760,181.780
930,55781.481000,-8.321,296.474,-315.305,-229.796,-314.903,-309.149,-2788.500,566.760,28.780
931,55781.500000,-8.321,289.391,-333.097,-256.425,-308.867,-299.825,-2746.500,446.760,-113.220
932,55781.523000,-26.922,304.569,-332.108,-281.278,-303.827,-279.702,-2648.500,270.760,-184.220
933,55781.529000,-49.438,304.569,-326.178,-294.197,-302.755,-268.645,-2558.500,236.760,-195.220
934,55781.557000,-44.543,321.771,-329.143,-315.093,-298.716,-250.560,-2363.500,290.760,-262.220
935,55781.574000,-19.090,309.628,-341.004,-313.292,-296.806,-242.719,-2128.500,191.760,-382.220
936,55781.596000,-3.426,306.593,-358.795,-325.378,-304.462,-218.869,-1843.500,-122.240,-365.220
937,55781.619000,-11.258,292.427,-361.761,-338.237,-304.354,-210.766,-1499.500,-177.240,-147.220
938,55781.637000,-31.816,281.296,-337.050,-343.390,-300.453,-197.882,-1131.500,121.760,41.780
939,55781.659000,-2.447,264.095,-322.224,-347.425,-298.488,-191.906,-830.500,105.760,88.780
940,55781.679000,0.489,257.012,-323.212,-353.418,-294.570,-186.882,-583.500,-51.240,100.780
941,55781.703000,-13.216,241.834,-332.108,-355.366,-297.456,-185.860,-468.500,-99.240,88.780
942,55781.725000,-27.901,247.905,-336.062,-351.513,-294.591,-183.962,-230.500,-36.240,49.780
943,55781.750000,-29.859,245.881,-324.201,-348.552,-291.713,-186.972,24.500,156.760,47.780
944,55781.785000,-23.006,245.881,-306.409,-354.450,-290.693,-185.884,260.500,214.760,50.780
945,55781.785000,-19.090,257.012,-294.548,-353.271,-293.594,-195.746,453.500,97.760,30.780
946,55781.812000,-15.174,258.024,-293.560,-348.275,-293.633,-201.741,658.500,-31.240,8.780
947,55781.815000,-23.985,257.012,-296.525,-340.343,-293.698,-207.788,883.500,-3.240,-2.220
948,55781.837000,-36.711,260.047,-296.525,-337.174,-294.680,-220.641,1095.500,140.760,19.780
949,55781.855000,-20.069,261.059,-299.490,-334.117,-298.571,-225.613,1280.500,-9.240,-1.220
950,55781.880000,-17.132,260.047,-310.363,-321.119,-300.607,-240.607,1374.500,-147.240,-22.220
951,55781.902000,-32.795,270.166,-317.282,-313.205,-298.737,-246.656,1578.500,-201.240,-29.220
952,55781.924000,-51.396,272.190,-328.154,-303.056,-300.742,-266.522,1762.500,-31.240,-12.220
953,55781.940000,-26.922,282.308,-359.784,-286.291,-305.725,-271.735,1944.500,-72.240,-122.220
954,55781.964000,-30.837,276.237,-356.819,-265.265,-312.660,-295.726,2154.500,-117.240,-214.220
955,55781.992000,1.468,269.154,-352.865,-237.555,-316.763,-311.963,2331.500,16.760,-221.220
956,55782.7000,23.006,276.237,-341.004,-222.624,-325.594,-322.061,2499.500,-199.240,-241.220
957,55782.27000,27.901,264.095,-304.432,-195.996,-331.630,-331.385,2666.500,-592.240,-269.220
958,55782.47000,32.795,234.751,-287.629,-171.419,-338.621,-334.765,2715.500,-695.240,-221.220
959,55782.64000,0.489,225.644,-268.849,-141.871,-350.492,-340.196,2753.500,-836.240,-239.220
960,55782.90000,1.468,191.241,-237.220,-123.173,-362.270,-340.513,2763.500,-783.240,-292.220
961,55782.108000,9.300,168.980,-214.486,-84.974,-376.165,-336.251,2736.500,-905.240,-422.220
962,55782.130000,-1.468,155.826,-213.498,-44.886,-392.018,-327.097,2677.500,-1096.240,-563.220
963,55782.153000,-10.279,138.625,-200.649,-19.452,-400.961,-322.614,2636.500,-997.240,-637.220
964,55782.171000,6.363,127.494,-177.915,8.771,-412.843,-308.333,2623.500,-731.240,-612.220
965,55782.193000,20.069,106.245,-142.332,31.192,-418.859,-300.847,2615.500,-589.240,-551.220
966,55782.214000,22.027,75.889,-109.714,63.285,-425.940,-286.640,2548.500,-543.240,-482.220
967,55782.237000,17.132,41.486,-100.819,73.028,-430.870,-281.884,2504.500,-577.240,-446.220
968,55782.259000,6.363,19.225,-98.842,110.862,-440.915,-258.915,2383.500,-745.240,-408.220
969,55782.273000,-14.195,1.012,-79.073,128.210,-451.737,-238.535,2269.500,-739.240,-352.220
970,55782.295000,-30.837,-17.202,-54.363,136.817,-448.925,-228.846,2173.500,-523.240,-276.220
971,55782.315000,-31.816,-43.510,-21.745,161.081,-452.062,-216.474,2057.500,-207.240,-182.220
972,55782.344000,-36.711,-76.901,8.896,168.788,-454.076,-208.733,1861.500,28.760,-116.220
973,55782.358000,-38.669,-106.245,2.965,184.297,-455.194,-200.146,1601.500,162.760,-90.220
974,55782.359000,-39.648,-116.364,-17.792,187.172,-456.192,-196.257,1387.500,239.760,-101.220
975,55782.388000,-42.585,-129.518,-2.965,203.772,-458.281,-193.595,1315.500,314.760,-76.220
976,55782.415000,-35.732,-154.814,15.815,203.701,-450.542,-193.603,1136.500,471.760,-36.220
977,55782.433000,-25.943,-162.909,27.676,208.603,-451.554,-193.689,901.500,507.760,34.780
978,55782.453000,-23.985,-187.194,33.606,215.495,-448.710,-197.752,636.500,382.760,81.780
979,55782.475000,-21.048,-173.028,25.699,207.684,-448.638,-198.598,334.500,156.760,34.780
980,55782.493000,-22.027,-175.051,39.537,210.585,-448.666,-196.680,63.500,39.760,-1.220
981,55782.515000,-17.132,-174.040,44.479,213.503,-446.758,-196.734,-276.500,-80.240,-8.220
982,55782.538000,-20.069,-173.028,22.734,207.719,-450.572,-199.581,-583.500,-227.240,42.780
983,55782.552000,-19.090,-165.945,4.942,200.792,-451.482,-194.535,-831.500,-293.240,86.780
984,55782.579000,-18.111,-145.708,4.942,197.034,-453.373,-202.342,-935.500,-277.240,101.780
985,55782.602000,-7.342,-125.470,14.826,184.391,-452.285,-207.042,-1122.500,-186.240,136.780
986,55782.634000,6.363,-105.233,17.792,174.685,-453.160,-210.807,-1333.500,-137.240,216.780
987,55782.653000,14.195,-90.055,-4.942,155.201,-452.977,-215.385,-1554.500,-301.240,331.780
988,55782.667000,11.258,-77.913,-23.722,152.380,-457.783,-219.267,-1736.500,-466.240,451.780
989,55782.693000,-27.901,-67.794,-42.502,130.949,-460.486,-222.822,-1892.500,-332.240,557.780
990,55782.705000,-49.438,-36.427,-41.514,112.434,-457.409,-228.405,-2007.500,340.760,646.780
991,55782.734000,-26.922,-15.178,-35.583,86.368,-448.437,-252.566,-2204.500,920.760,690.780
992,55782.747000,23.006,1.012,-55.351,50.412,-441.319,-269.658,-2322.500,960.760,648.780
993,55782.764000,22.027,42.498,-87.969,32.885,-435.347,-277.231,-2533.500,673.760,642.780
994,55782.785000,-13.216,65.771,-119.598,-1.184,-422.442,-293.379,-2663.500,566.760,628.780
995,55782.807000,-37.690,92.079,-129.483,-17.690,-417.444,-302.937,-2766.500,1022.760,604.780
996,55782.824000,-26.922,117.375,-145.297,-56.740,-396.757,-318.022,-2880.500,1397.760,508.780
997,55782.847000,7.342,127.494,-197.683,-75.202,-391.741,-327.545,-2970.500,1222.760,389.780
998,55782.869000,21.048,167.968,-230.301,-113.525,-370.110,-328.862,-2998.500,867.760,249.780
999,55782.892000,-5.384,205.407,-240.185,-132.125,-367.037,-329.520,-2990.500,838.760,201.780
1000,55782.909000,-12.237,235.763,-240.185,-166.638,-343.511,-325.984,-3012.500,1118.760,161.780
