Sample, Time, ACCX, ACCY, ACCZ, MAGX, MAGY, MAGZ, GYRX, GYRY, GYRZ
0,55932.583000,-33.774,24.285,-241.174,30.847,-361.708,-366.866,13.500,-11.240,13.780
1,55932.612000,-33.774,25.296,-240.185,32.875,-367.530,-367.880,12.500,-0.240,16.780
2,55932.630000,-33.774,25.296,-239.197,30.865,-363.643,-366.864,9.500,19.760,17.780
3,55932.652000,-30.837,25.296,-239.197,34.762,-363.680,-365.949,-0.500,17.760,12.780
4,55932.675000,-29.859,25.296,-239.197,35.827,-365.620,-369.903,-10.500,-11.240,9.780
5,55932.690000,-30.837,25.296,-240.185,34.832,-365.612,-368.901,-15.500,-48.240,3.780
6,55932.710000,-35.732,25.296,-238.208,34.866,-365.610,-370.870,-10.500,-32.240,9.780
7,55932.735000,-34.753,25.296,-241.174,26.986,-365.541,-367.778,-8.500,11.760,20.780
8,55932.757000,-33.774,25.296,-240.185,29.013,-365.555,-371.751,-8.500,26.760,21.780
9,55932.780000,-34.753,23.273,-239.197,26.960,-364.575,-366.794,-13.500,11.760,16.780
10,55932.797000,-32.795,25.296,-241.174,30.918,-367.512,-367.845,-16.500,-4.240,8.780
11,55932.818000,-36.711,26.308,-240.185,29.861,-362.668,-365.863,-17.500,-18.240,-0.220
12,55932.831000,-37.690,26.308,-240.185,32.875,-367.530,-367.880,-16.500,14.760,-4.220
13,55932.861000,-35.732,25.296,-242.162,34.850,-369.482,-367.912,-20.500,31.760,-14.220
14,55932.881000,-31.816,27.320,-243.151,26.943,-366.512,-364.822,-26.500,-2.240,-21.220
15,55932.902000,-32.795,28.332,-243.151,29.939,-363.631,-369.801,-24.500,-27.240,-21.220
16,55932.922000,-34.753,27.320,-244.139,36.815,-366.596,-369.919,-18.500,-6.240,-21.220
17,55932.940000,-33.774,29.344,-244.139,28.970,-366.526,-368.796,-9.500,8.760,-18.220
18,55932.961000,-31.816,30.356,-243.151,33.835,-363.668,-368.885,-4.500,17.760,-9.220
19,55932.986000,-30.837,27.320,-243.151,28.995,-365.556,-370.767,-4.500,15.760,-5.220
20,55933.1000,-28.880,29.344,-246.116,27.956,-364.583,-367.796,-4.500,-8.240,-2.220
21,55933.23000,-31.816,26.308,-243.151,29.956,-365.566,-369.799,2.500,-22.240,0.780
22,55933.55000,-30.837,28.332,-244.139,28.900,-364.594,-365.844,6.500,-8.240,0.780
23,55933.70000,-31.816,26.308,-243.151,32.900,-364.625,-370.837,8.500,-10.240,-4.220
24,55933.92000,-33.774,26.308,-244.139,31.861,-361.715,-368.853,6.500,-25.240,-8.220
25,55933.112000,-34.753,26.308,-244.139,28.961,-365.558,-368.797,6.500,-24.240,-8.220
26,55933.123000,-31.816,23.273,-244.139,27.921,-362.649,-366.813,8.500,-16.240,-5.220
27,55933.150000,-34.753,26.308,-244.139,31.888,-366.553,-367.863,10.500,-20.240,-4.220
28,55933.170000,-35.732,26.308,-243.151,27.973,-364.582,-368.781,13.500,-15.240,-4.220
29,55933.182000,-34.753,25.296,-240.185,35.732,-364.657,-364.980,17.500,10.760,-4.220
30,55933.196000,-34.753,23.273,-238.208,32.814,-364.629,-365.913,12.500,20.760,-7.220
31,55933.229000,-31.816,25.296,-238.208,31.835,-362.685,-366.882,6.500,15.760,-14.220
32,55933.246000,-32.795,25.296,-238.208,28.916,-360.721,-368.802,-3.500,-15.240,-25.220
33,55933.268000,-32.795,24.285,-238.208,33.827,-364.636,-367.900,-7.500,-16.240,-29.220
34,55933.288000,-31.816,25.296,-237.220,31.914,-367.520,-368.847,-15.500,-7.240,-29.220
35,55933.313000,-32.795,24.285,-238.208,37.697,-363.706,-366.000,-24.500,-10.240,-24.220
36,55933.328000,-32.795,26.308,-239.197,36.814,-364.660,-370.906,-26.500,-5.240,-24.220
37,55933.349000,-32.795,26.308,-241.174,31.844,-365.588,-365.895,-23.500,9.760,-23.220
38,55933.396000,-29.859,24.285,-241.174,34.797,-365.614,-366.931,-19.500,10.760,-16.220
39,55933.399000,-32.795,25.296,-240.185,30.857,-364.612,-365.878,-18.500,3.760,-7.220
40,55933.415000,-30.837,25.296,-243.151,27.947,-361.680,-368.784,-17.500,10.760,-2.220
41,55933.437000,-29.859,27.320,-244.139,32.804,-361.726,-366.901,-23.500,-17.240,-5.220
42,55933.457000,-33.774,28.332,-245.127,31.887,-364.618,-368.850,-25.500,-39.240,-8.220
43,55933.482000,-37.690,29.344,-243.151,33.845,-366.571,-367.898,-21.500,-12.240,-14.220
44,55933.497000,-34.753,27.320,-245.127,26.995,-364.573,-368.763,-15.500,23.760,-15.220
45,55933.520000,-30.837,27.320,-246.116,34.849,-365.611,-369.886,-14.500,18.760,-18.220
46,55933.535000,-32.795,28.332,-244.139,31.869,-362.683,-368.852,-10.500,-17.240,-20.220
47,55933.552000,-34.753,28.332,-246.116,32.866,-364.626,-368.867,-3.500,-21.240,-16.220
48,55933.575000,-36.711,26.308,-246.116,36.745,-362.728,-367.954,6.500,6.760,-9.220
49,55933.617000,-33.774,27.320,-245.127,30.909,-364.609,-368.833,14.500,30.760,-2.220
50,55933.621000,-31.816,28.332,-242.162,35.757,-361.752,-367.937,16.500,26.760,-7.220
51,55933.638000,-31.816,28.332,-241.174,36.770,-361.759,-369.924,15.500,1.760,-11.220
52,55933.658000,-30.837,26.308,-240.185,29.948,-364.599,-369.800,11.500,-15.240,-11.220
53,55933.675000,-33.774,27.320,-239.197,35.836,-366.587,-369.902,10.500,-14.240,-8.220
54,55933.704000,-32.795,26.308,-239.197,32.848,-362.692,-368.869,8.500,13.760,-7.220
55,55933.724000,-31.816,26.308,-239.197,30.899,-361.705,-369.820,6.500,22.760,-9.220
56,55933.745000,-30.837,25.296,-238.208,31.862,-365.587,-366.879,-1.500,4.760,-12.220
57,55933.762000,-29.859,25.296,-236.232,35.775,-361.751,-368.922,-6.500,-16.240,-13.220
58,55933.783000,-34.753,27.320,-238.208,34.848,-363.675,-370.872,-7.500,0.760,-9.220
59,55933.806000,-30.837,24.285,-238.208,31.853,-364.620,-366.880,-12.500,15.760,-7.220
60,55933.828000,-28.880,26.308,-236.232,34.858,-366.578,-369.885,-21.500,-13.240,-9.220
61,55933.841000,-28.880,25.296,-235.243,34.779,-363.679,-366.933,-36.500,-54.240,-10.220
62,55933.855000,-25.943,24.285,-235.243,32.857,-365.595,-367.882,-46.500,-90.240,-14.220
63,55933.887000,-33.774,28.332,-236.232,28.874,-365.563,-363.873,-58.500,-111.240,-9.220
64,55933.905000,-36.711,28.332,-236.232,34.789,-366.582,-365.946,-53.500,-72.240,-2.220
65,55933.927000,-40.627,27.320,-240.185,32.831,-364.628,-366.898,-50.500,-8.240,5.780
66,55933.947000,-38.669,30.356,-243.151,30.900,-365.577,-367.847,-40.500,46.760,6.780
67,55933.963000,-37.690,28.332,-244.139,25.955,-363.600,-365.793,-35.500,49.760,2.780
68,55933.991000,-34.753,27.320,-249.081,26.951,-363.608,-366.795,-35.500,19.760,-7.220
69,55934.12000,-33.774,29.344,-251.058,30.821,-360.742,-365.882,-30.500,-21.240,-22.220
70,55934.41000,-36.711,32.379,-251.058,35.758,-365.624,-365.964,-21.500,-22.240,-25.220
71,55934.50000,-39.648,31.368,-251.058,30.830,-361.709,-365.881,-14.500,-4.240,-23.220
72,55934.87000,-35.732,31.368,-249.081,29.869,-363.635,-365.862,-1.500,27.760,-19.220
73,55934.106000,-31.816,31.368,-246.116,31.905,-364.617,-369.835,4.500,14.760,-15.220
74,55934.125000,-34.753,31.368,-245.127,35.827,-365.620,-369.903,10.500,3.760,-16.220
75,55934.143000,-33.774,31.368,-240.185,28.977,-363.622,-370.769,8.500,-7.240,-19.220
76,55934.165000,-36.711,28.332,-240.185,34.805,-362.709,-368.904,8.500,-13.240,-23.220
77,55934.167000,-32.795,30.356,-238.208,34.822,-362.708,-369.889,6.500,14.760,-25.220
78,55934.185000,-30.837,29.344,-235.243,29.896,-364.602,-366.846,3.500,10.760,-23.220
79,55934.217000,-31.816,28.332,-234.255,28.961,-365.558,-368.797,-3.500,4.760,-16.220
80,55934.235000,-33.774,29.344,-238.208,27.955,-360.711,-369.769,-9.500,5.760,-13.220
81,55934.255000,-32.795,27.320,-239.197,30.908,-360.737,-370.806,-14.500,10.760,-7.220
82,55934.277000,-31.816,29.344,-242.162,31.852,-360.748,-368.854,-21.500,3.760,-9.220
83,55934.297000,-32.795,30.356,-245.127,31.930,-363.647,-371.805,-22.500,-4.240,-14.220
84,55934.325000,-34.753,32.379,-246.116,33.913,-364.631,-372.824,-15.500,14.760,-14.220
85,55934.342000,-31.816,31.368,-248.093,39.715,-362.753,-369.975,-2.500,39.760,-8.220
86,55934.366000,-105.239,2.024,-74.131,32.866,-364.626,-368.867,2.500,38.760,-7.220
87,55934.398000,69.996,-121.423,-188.788,27.949,-371.359,-363.850,-423.500,-1395.240,554.780
88,55934.417000,-132.650,18.213,-229.313,19.875,-391.627,-339.072,-484.500,-1998.240,164.780
89,55934.440000,-130.692,61.723,-251.058,22.744,-401.337,-330.251,-87.500,-1104.240,-162.220
90,55934.443000,-94.470,15.178,-242.162,17.834,-399.358,-330.167,60.500,-104.240,-83.220
91,55934.468000,-114.050,24.285,-258.965,20.846,-392.605,-338.104,48.500,531.760,-106.220
92,55934.487000,-69.017,17.202,-276.757,23.918,-386.816,-348.994,88.500,1210.760,-119.220
93,55934.501000,-27.901,73.866,-260.942,26.936,-371.352,-361.863,-27.500,1186.760,-89.220
94,55934.517000,7.342,53.628,-260.942,24.086,-365.513,-369.695,79.500,745.760,6.780
95,55934.541000,-8.321,28.332,-260.942,28.926,-363.624,-367.814,49.500,168.760,-36.220
96,55934.564000,-19.090,37.439,-256.988,28.908,-363.625,-366.829,53.500,-102.240,-41.220
97,55934.583000,-31.816,33.391,-254.023,24.051,-365.515,-367.726,54.500,-150.240,-32.220
98,55934.606000,-39.648,34.403,-249.081,27.913,-365.553,-364.841,69.500,-88.240,-14.220
99,55934.623000,-33.774,33.391,-243.151,32.814,-366.565,-364.926,94.500,3.760,-9.220
100,55934.646000,-31.816,30.356,-240.185,30.935,-365.575,-369.816,98.500,32.760,-1.220
101,55934.678000,-27.901,30.356,-239.197,29.913,-364.601,-367.831,89.500,14.760,4.780
102,55934.707000,-28.880,30.356,-237.220,31.809,-363.654,-364.912,75.500,-35.240,6.780
103,55934.737000,-31.816,29.344,-235.243,36.807,-369.500,-367.947,70.500,-30.240,8.780
104,55934.756000,-33.774,28.332,-236.232,31.844,-363.652,-366.881,73.500,8.760,18.780
105,55934.756000,-30.837,28.332,-237.220,34.814,-365.613,-367.916,72.500,21.760,23.780
106,55934.778000,-31.816,28.332,-236.232,32.875,-367.530,-367.880,68.500,23.760,25.780
107,55934.796000,26.922,-275.225,-220.417,25.040,-374.234,-363.795,-108.500,-386.240,295.780
108,55934.818000,-85.660,-12.142,-195.707,16.166,-378.030,-357.727,-356.500,-911.240,-20.220
109,55934.842000,-116.008,24.285,-246.116,21.050,-379.042,-356.828,116.500,-20.240,-115.220
110,55934.856000,-53.354,31.368,-228.324,23.023,-375.188,-359.821,165.500,282.760,-97.220
111,55934.879000,-60.207,12.142,-245.127,29.871,-369.443,-362.902,187.500,449.760,-67.220
112,55934.896000,-25.943,15.178,-260.942,27.922,-368.456,-363.853,-3.500,361.760,-73.220
113,55934.918000,-35.732,27.320,-264.896,31.887,-364.618,-368.850,-158.500,230.760,-152.220
114,55934.941000,-12.237,98.150,-264.896,29.974,-365.565,-370.784,-46.500,177.760,-72.220
115,55934.958000,-26.922,21.249,-265.884,28.960,-363.622,-369.784,16.500,-24.240,-20.220
116,55934.976000,-36.711,35.415,-261.931,28.016,-361.676,-372.723,20.500,22.760,-19.220
117,55934.999000,-23.985,36.427,-257.977,33.844,-362.700,-369.871,49.500,22.760,13.780
118,55935.21000,-27.901,31.368,-254.023,34.848,-361.739,-371.859,70.500,-11.240,19.780
119,55935.41000,-28.880,31.368,-251.058,29.861,-362.668,-365.863,86.500,-22.240,21.780
120,55935.63000,-32.795,30.356,-248.093,31.887,-362.682,-369.837,94.500,2.760,28.780
121,55935.83000,-30.837,30.356,-244.139,33.879,-364.633,-370.854,99.500,21.760,31.780
122,55935.101000,-29.859,29.344,-237.220,31.965,-365.581,-372.788,96.500,9.760,32.780
123,55935.123000,-30.837,25.296,-237.220,33.792,-362.703,-366.917,91.500,6.760,31.780
124,55935.156000,-30.837,26.308,-238.208,41.707,-364.705,-370.992,86.500,17.760,40.780
125,55935.189000,-32.795,24.285,-236.232,40.702,-363.729,-369.991,81.500,31.760,48.780
126,55935.189000,-32.795,24.285,-237.220,39.767,-362.750,-372.929,66.500,50.760,47.780
127,55935.211000,54.333,-104.221,-102.795,21.134,-371.294,-365.698,-298.500,-1354.240,1273.780
128,55935.229000,-44.543,-52.617,-202.625,22.002,-380.021,-354.875,-40.500,-1037.240,-29.220
129,55935.246000,-138.524,19.225,-245.127,26.878,-380.066,-353.976,129.500,99.760,-63.220
130,55935.266000,-82.723,18.213,-242.162,25.906,-371.346,-358.892,234.500,450.760,-80.220
131,55935.288000,-22.027,-2.024,-248.093,36.764,-370.470,-364.992,188.500,708.760,-12.220
132,55935.311000,-12.237,-11.130,-256.988,26.977,-360.702,-369.752,100.500,596.760,-25.220
133,55935.332000,-27.901,84.996,-260.942,29.972,-359.758,-373.744,-272.500,196.760,-90.220
134,55935.362000,-13.216,65.771,-262.919,33.852,-359.795,-371.844,-108.500,25.760,-102.220
135,55935.371000,-40.627,17.202,-262.919,28.950,-358.784,-371.758,-24.500,-137.240,-46.220
136,55935.392000,-33.774,40.474,-263.907,34.814,-365.613,-367.916,-20.500,-47.240,-59.220
137,55935.411000,-27.901,33.391,-258.965,32.926,-361.719,-373.794,33.500,19.760,-20.220
138,55935.428000,-26.922,32.379,-251.058,36.753,-361.760,-368.939,67.500,24.760,-0.220
139,55935.451000,-25.943,30.356,-249.081,30.943,-362.671,-371.789,87.500,-3.240,16.780
140,55935.471000,-32.795,27.320,-244.139,32.848,-362.692,-368.869,90.500,-12.240,22.780
141,55935.491000,-29.859,25.296,-240.185,33.843,-360.764,-370.858,88.500,22.760,32.780
142,55935.512000,-28.880,24.285,-239.197,34.883,-363.673,-372.842,77.500,16.760,34.780
143,55935.564000,-28.880,26.308,-239.197,36.797,-364.661,-369.921,70.500,-13.240,26.780
144,55935.574000,-34.753,24.285,-238.208,35.863,-367.553,-370.886,70.500,-31.240,19.780
145,55935.574000,-33.774,24.285,-238.208,37.757,-360.799,-370.927,64.500,-6.240,19.780
146,55935.593000,-30.837,26.308,-240.185,32.848,-362.692,-368.869,57.500,2.760,20.780
147,55935.616000,-31.816,25.296,-238.208,35.757,-361.752,-367.937,54.500,-1.240,22.780
148,55935.634000,59.228,225.644,-199.660,39.698,-366.626,-367.017,130.500,-500.240,173.780
149,55935.655000,-38.669,-128.506,-214.486,32.730,-374.313,-356.056,-478.500,-825.240,703.780
150,55935.687000,-115.029,37.439,-246.116,31.796,-379.141,-356.033,-71.500,-547.240,-99.220
151,55935.710000,-42.585,31.368,-230.301,26.936,-373.288,-360.877,77.500,131.760,-45.220
152,55935.722000,-62.164,17.202,-239.197,29.872,-373.314,-360.928,81.500,187.760,-21.220
153,55935.749000,-47.480,11.130,-256.000,31.870,-366.554,-366.878,96.500,382.760,-56.220
154,55935.768000,-39.648,-43.510,-259.954,38.729,-369.520,-366.012,-30.500,364.760,-95.220
155,55935.788000,-36.711,62.735,-256.988,34.909,-364.639,-373.826,-182.500,418.760,-143.220
156,55935.806000,3.426,76.901,-256.000,37.895,-358.856,-379.792,23.500,189.760,-10.220
157,55935.823000,-26.922,8.095,-255.012,31.929,-359.776,-373.779,-2.500,30.760,-43.220
158,55935.866000,-28.880,36.427,-255.012,31.895,-359.778,-371.809,-4.500,-4.240,-49.220
159,55935.870000,-26.922,28.332,-253.035,34.882,-359.801,-374.815,22.500,-12.240,-25.220
160,55935.896000,-30.837,29.344,-247.104,39.749,-360.815,-372.931,38.500,4.760,-24.220
161,55935.907000,-27.901,27.320,-243.151,32.855,-357.852,-371.828,50.500,14.760,-13.220
162,55935.930000,-29.859,25.296,-239.197,42.684,-358.906,-373.970,51.500,27.760,-7.220
163,55935.945000,-24.964,25.296,-239.197,35.844,-361.747,-372.861,41.500,-1.240,-2.220
164,55935.965000,-25.943,23.273,-237.220,38.744,-357.904,-372.917,36.500,-37.240,-2.220
165,55935.982000,-32.795,23.273,-232.278,36.856,-359.818,-375.835,33.500,-5.240,-2.220
166,55936.24000,-29.859,21.249,-233.266,42.692,-357.938,-374.956,27.500,22.760,-1.220
167,55936.41000,-23.985,22.261,-235.243,38.753,-358.872,-372.916,10.500,19.760,-4.220
168,55936.56000,81.744,507.953,-223.382,42.634,-366.652,-367.069,-265.500,-756.240,284.780
169,55936.73000,-43.564,-127.494,-213.498,28.833,-374.277,-356.971,-342.500,-1002.240,0.780
170,55936.93000,-122.860,36.427,-240.185,34.739,-376.264,-358.058,-46.500,-85.240,-109.220
171,55936.116000,-62.164,19.225,-237.220,31.863,-371.394,-363.919,12.500,419.760,-164.220
172,55936.136000,-66.080,31.368,-246.116,34.874,-360.770,-373.830,130.500,725.760,-96.220
173,55936.156000,-16.153,4.047,-258.965,35.808,-357.877,-372.865,-218.500,509.760,-86.220
174,55936.194000,-6.363,56.664,-248.093,36.890,-357.880,-378.791,-148.500,30.760,-153.220
175,55936.212000,-16.153,79.937,-268.849,34.838,-356.900,-373.833,-44.500,-11.240,-51.220
176,55936.231000,-23.006,15.178,-268.849,32.943,-361.718,-374.779,-55.500,-121.240,-47.220
177,55936.235000,-37.690,40.474,-261.931,35.852,-358.843,-374.834,-9.500,-5.240,-29.220
178,55936.260000,-26.922,30.356,-261.931,35.851,-356.907,-375.820,24.500,45.760,-7.220
179,55936.277000,-25.943,31.368,-258.965,35.851,-356.907,-375.820,47.500,40.760,-5.220
180,55936.308000,-20.069,30.356,-254.023,41.732,-361.799,-373.950,57.500,-23.240,2.780
181,55936.317000,-25.943,31.368,-249.081,36.865,-358.850,-376.820,70.500,-36.240,12.780
182,55936.341000,-27.901,29.344,-246.116,37.826,-360.796,-374.866,79.500,12.760,25.780
183,55936.362000,-27.901,30.356,-242.162,38.813,-357.900,-376.856,83.500,46.760,43.780
184,55936.381000,-23.985,27.320,-238.208,40.770,-357.918,-376.891,82.500,44.760,47.780
185,55936.401000,-23.985,24.285,-238.208,39.773,-354.039,-377.862,75.500,7.760,45.780
186,55936.418000,-26.922,25.296,-239.197,37.843,-356.923,-377.824,63.500,-21.240,42.780
187,55936.446000,58.249,-266.119,-175.938,33.896,-362.697,-372.826,-270.500,-149.240,-59.220
188,55936.484000,-121.881,55.652,-206.579,23.993,-376.165,-358.852,-464.500,-1253.240,38.780
189,55936.484000,-80.765,16.190,-236.232,31.796,-381.077,-355.047,-26.500,-509.240,-29.220
190,55936.497000,-116.008,19.225,-243.151,36.670,-377.251,-356.122,85.500,98.760,-146.220
191,55936.525000,-81.744,-2.024,-265.884,35.822,-378.203,-362.997,316.500,953.760,-109.220
192,55936.547000,24.964,-42.498,-247.104,31.921,-360.744,-372.793,265.500,1190.760,-21.220
193,55936.571000,-5.384,140.648,-253.035,28.057,-352.962,-379.625,-440.500,647.760,-77.220
194,55936.590000,1.468,30.356,-280.710,28.083,-353.929,-380.609,-33.500,146.760,-37.220
195,55936.610000,-24.964,26.308,-269.838,29.989,-355.885,-376.702,-49.500,-152.240,-51.220
196,55936.627000,-28.880,42.498,-261.931,33.876,-354.955,-375.788,-37.500,-152.240,-39.220
197,55936.645000,-30.837,32.379,-262.919,33.920,-355.920,-377.756,8.500,-59.240,10.780
198,55936.679000,-26.922,36.427,-258.965,33.954,-355.918,-379.726,52.500,45.760,29.780
199,55936.692000,-20.069,34.403,-251.058,29.953,-352.016,-376.706,84.500,45.760,45.780
200,55936.715000,-24.964,32.379,-247.104,31.954,-354.935,-377.723,101.500,-14.240,53.780
201,55936.737000,-31.816,29.344,-243.151,35.911,-355.936,-379.760,103.500,-15.240,55.780
202,55936.757000,-26.922,27.320,-239.197,31.062,-354.921,-382.629,101.500,23.760,60.780
203,55936.777000,-26.922,27.320,-232.278,35.886,-358.841,-376.803,89.500,21.760,57.780
204,55936.792000,-31.816,25.296,-230.301,38.848,-359.834,-377.839,72.500,-1.240,38.780
205,55936.806000,-30.837,25.296,-229.313,34.837,-353.029,-375.807,54.500,5.760,19.780
206,55936.825000,-33.774,24.285,-229.313,30.984,-355.893,-377.704,31.500,8.760,8.780
207,55936.872000,-31.816,25.296,-232.278,37.877,-356.921,-379.794,7.500,13.760,2.780
208,55936.886000,-32.795,25.296,-230.301,35.842,-355.940,-375.821,-10.500,1.760,-9.220
209,55936.900000,-36.711,23.273,-235.243,42.788,-358.900,-379.878,-28.500,3.760,-19.220
210,55936.922000,-32.795,23.273,-245.127,33.903,-355.921,-376.771,-37.500,7.760,-27.220
211,55936.937000,-37.690,22.261,-256.000,33.911,-356.888,-376.770,-46.500,-33.240,-49.220
212,55936.960000,-41.606,25.296,-270.826,33.937,-355.919,-378.741,-42.500,-51.240,-78.220
213,55936.980000,-43.564,28.332,-289.606,33.928,-354.952,-378.742,-17.500,-47.240,-115.220
214,55937.8000,-41.606,31.368,-312.340,36.882,-358.849,-377.805,35.500,4.760,-142.220
215,55937.24000,-36.711,33.391,-335.073,40.778,-356.950,-377.876,115.500,41.760,-179.220
216,55937.49000,-44.543,32.379,-353.853,40.760,-353.079,-378.865,215.500,181.760,-171.220
217,55937.70000,-18.111,35.415,-361.761,55.516,-358.048,-381.089,308.500,281.760,-187.220
218,55937.85000,26.922,46.545,-353.853,65.249,-356.204,-379.295,395.500,156.760,-218.220
219,55937.102000,43.564,42.498,-347.923,70.159,-356.247,-380.366,542.500,-294.240,-220.220
220,55937.125000,52.375,41.486,-344.958,76.846,-365.030,-366.692,680.500,-626.240,-178.220
221,55937.142000,49.438,40.474,-328.154,84.684,-371.876,-363.869,819.500,-762.240,-67.220
222,55937.156000,47.480,34.403,-299.490,90.332,-377.749,-348.211,965.500,-736.240,93.780
223,55937.192000,57.270,27.320,-271.815,101.980,-384.637,-339.549,1080.500,-706.240,266.780
224,55937.221000,58.249,22.261,-238.208,104.841,-395.314,-329.742,1156.500,-642.240,468.780
225,55937.238000,62.164,10.119,-209.544,109.458,-403.118,-310.126,1186.500,-642.240,682.780
226,55937.246000,68.038,1.012,-175.938,112.335,-411.859,-302.291,1173.500,-725.240,892.780
227,55937.268000,69.017,-5.059,-151.228,111.205,-425.409,-286.504,1144.500,-779.240,997.780
228,55937.291000,50.417,-10.119,-113.668,111.129,-434.124,-277.632,1044.500,-829.240,1179.780
229,55937.314000,48.459,-18.213,-76.108,94.254,-441.730,-259.604,876.500,-878.240,1312.780
230,55937.331000,37.690,-29.344,-52.386,92.239,-450.427,-251.683,651.500,-966.240,1409.780
231,55937.354000,22.027,-37.439,-33.606,70.464,-460.892,-231.596,387.500,-990.240,1479.780
232,55937.378000,19.090,-37.439,-19.768,49.659,-470.399,-211.528,121.500,-1058.240,1526.780
233,55937.393000,-11.258,-35.415,-18.780,29.043,-476.023,-204.265,-136.500,-1066.240,1527.780
234,55937.416000,-38.669,-36.427,-21.745,11.259,-483.616,-190.160,-383.500,-885.240,1498.780
235,55937.438000,-43.564,-21.249,-26.687,-7.462,-484.422,-181.952,-614.500,-730.240,1453.780
236,55937.453000,-61.185,1.012,-38.548,-36.947,-481.259,-175.527,-708.500,-590.240,1447.780
237,55937.466000,-81.744,12.142,-56.340,-49.677,-480.176,-175.303,-878.500,-155.240,1491.780
238,55937.485000,-65.101,35.415,-80.062,-82.972,-476.971,-174.718,-1069.500,241.760,1531.780
239,55937.512000,-58.249,73.866,-115.645,-110.364,-466.074,-180.153,-1205.500,355.760,1587.780
240,55937.539000,-79.786,96.126,-162.100,-132.906,-456.193,-182.719,-1278.500,560.760,1655.780
241,55937.553000,-100.344,137.613,-242.162,-164.187,-444.291,-190.055,-1278.500,824.760,1681.780
242,55937.576000,-114.050,151.779,-288.618,-176.892,-434.496,-195.748,-1228.500,1145.760,1729.780
243,55937.609000,-75.870,168.980,-332.108,-208.166,-413.883,-208.017,-1126.500,1442.760,1758.780
244,55937.627000,-67.059,193.265,-372.633,-219.971,-403.133,-209.790,-998.500,1401.760,1698.780
245,55937.646000,-66.080,198.324,-381.529,-254.215,-380.559,-221.024,-905.500,1211.760,1685.780
246,55937.650000,-75.870,196.300,-383.506,-264.090,-368.861,-221.847,-711.500,1060.760,1683.780
247,55937.669000,-82.723,194.277,-405.251,-287.614,-343.484,-232.290,-522.500,1094.760,1700.780
248,55937.701000,-72.933,196.300,-410.193,-310.176,-323.924,-238.804,-318.500,1157.760,1698.780
249,55937.718000,-54.333,200.348,-399.320,-315.998,-312.253,-247.575,-127.500,1135.760,1642.780
250,55937.738000,-48.459,197.312,-392.402,-323.910,-289.925,-254.352,62.500,1012.760,1581.780
251,55937.760000,-34.753,187.194,-389.436,-338.608,-278.178,-259.028,249.500,852.760,1545.780
252,55937.781000,-35.732,184.158,-385.483,-346.449,-257.781,-268.758,421.500,563.760,1508.780
253,55937.797000,-69.996,194.277,-396.355,-342.599,-247.174,-270.808,520.500,413.760,1505.780
254,55937.815000,-85.660,190.229,-389.436,-348.388,-229.693,-284.508,760.500,412.760,1524.780
255,55937.847000,-84.681,197.312,-387.459,-347.405,-211.312,-294.391,983.500,505.760,1459.780
256,55937.876000,-104.260,195.289,-372.633,-352.187,-204.486,-304.159,1219.500,539.760,1363.780
257,55937.898000,-97.407,173.028,-350.888,-342.233,-189.079,-322.074,1404.500,709.760,1263.780
258,55937.916000,-88.597,163.921,-326.178,-339.145,-177.482,-336.909,1528.500,781.760,1106.780
259,55937.930000,-86.639,148.743,-302.456,-327.216,-162.092,-355.842,1632.500,818.760,943.780
260,55937.952000,-74.891,134.577,-286.641,-317.313,-152.495,-367.842,1725.500,927.760,763.780
261,55937.967000,-69.017,119.399,-265.884,-295.591,-136.225,-387.935,1776.500,950.760,584.780
262,55937.995000,-60.207,116.364,-243.151,-274.770,-120.910,-411.948,1805.500,971.760,507.780
263,55938.17000,-47.480,103.209,-219.429,-268.842,-108.378,-421.912,1862.500,1007.760,353.780
264,55938.37000,-39.648,89.043,-194.718,-244.209,-96.976,-438.112,1880.500,978.760,193.780
265,55938.55000,-29.859,74.877,-170.996,-224.555,-89.406,-447.329,1872.500,943.760,42.780
266,55938.77000,-15.174,59.700,-151.228,-196.986,-81.902,-461.608,1813.500,789.760,-113.220
267,55938.102000,-11.258,49.581,-127.506,-189.012,-77.125,-472.584,1719.500,610.760,-293.220
268,55938.115000,-21.048,35.415,-106.749,-162.561,-67.685,-479.954,1595.500,576.760,-471.220
269,55938.129000,-18.111,18.213,-90.934,-137.989,-55.318,-493.201,1439.500,724.760,-650.220
270,55938.142000,-10.279,12.142,-75.120,-125.304,-51.564,-493.430,1280.500,877.760,-832.220
271,55938.175000,2.447,1.012,-50.409,-109.591,-41.056,-502.580,1191.500,910.760,-927.220
272,55938.184000,12.237,-8.095,-21.745,-97.921,-29.552,-504.769,982.500,917.760,-1127.220
273,55938.211000,30.837,-17.202,-6.919,-83.291,-15.170,-509.967,729.500,871.760,-1325.220
274,55938.231000,56.291,-20.237,-8.896,-86.331,-11.277,-505.980,446.500,629.760,-1513.220
275,55938.259000,69.017,-21.249,-14.826,-82.401,-7.440,-509.007,186.500,219.760,-1740.220
276,55938.276000,62.164,-11.130,-26.687,-75.481,-9.435,-512.081,-42.500,-84.240,-1935.220
277,55938.299000,51.396,0.000,-45.467,-78.407,-12.311,-511.041,-204.500,-60.240,-2082.220
278,55938.326000,61.185,0.000,-68.201,-82.382,-11.311,-508.019,-331.500,98.760,-2225.220
279,55938.349000,74.891,6.071,-92.911,-86.287,-12.243,-507.949,-395.500,158.760,-2350.220
280,55938.368000,100.344,28.332,-124.541,-84.339,-13.229,-506.997,-533.500,155.760,-2407.220
281,55938.388000,136.566,48.569,-158.147,-98.055,-13.105,-505.770,-640.500,-54.240,-2572.220
282,55938.403000,153.208,54.640,-192.741,-113.621,-26.509,-503.510,-756.500,-480.240,-2741.220
283,55938.429000,158.103,77.913,-247.104,-115.522,-40.038,-499.523,-789.500,-898.240,-2903.220
284,55938.446000,160.061,131.542,-316.293,-124.211,-60.278,-495.408,-688.500,-862.240,-2868.220
285,55938.454000,161.040,158.862,-374.610,-124.210,-66.085,-492.448,-515.500,-319.240,-2664.220
286,55938.471000,199.220,174.040,-415.135,-127.092,-71.863,-492.390,-263.500,-28.240,-2424.220
287,55938.504000,225.652,183.146,-410.193,-116.231,-80.666,-493.556,30.500,5.760,-2147.220
288,55938.520000,229.568,172.016,-399.320,-112.274,-79.732,-496.581,172.500,31.760,-1983.220
289,55938.541000,258.937,174.040,-403.274,-107.390,-82.680,-494.695,456.500,-46.240,-1696.220
290,55938.564000,272.642,160.885,-391.413,-98.477,-92.433,-495.826,678.500,-489.240,-1521.220
291,55938.586000,260.895,147.731,-385.483,-78.730,-108.088,-498.125,829.500,-886.240,-1359.220
292,55938.609000,252.084,148.743,-380.541,-56.099,-125.708,-496.536,971.500,-1042.240,-1210.220
293,55938.644000,239.358,149.755,-354.842,-45.273,-134.513,-495.733,1115.500,-983.240,-1080.220
294,55938.662000,230.547,129.518,-334.085,-9.922,-152.249,-494.369,1223.500,-1014.240,-993.220
295,55938.680000,261.874,116.364,-333.097,3.840,-161.081,-493.618,1356.500,-1239.240,-905.220
296,55938.698000,235.442,104.221,-308.386,28.378,-188.400,-484.175,1505.500,-1310.240,-746.220
297,55938.716000,232.505,97.138,-275.768,35.237,-191.366,-483.309,1569.500,-1216.240,-637.220
298,55938.732000,240.337,89.043,-251.058,68.449,-208.126,-472.063,1642.500,-1005.240,-395.220
299,55938.754000,246.210,78.925,-225.359,96.857,-228.708,-463.682,1672.500,-1036.240,-152.220
300,55938.779000,222.715,68.806,-206.579,108.568,-242.367,-455.013,1679.500,-1267.240,81.780
301,55938.796000,187.472,61.723,-181.869,134.819,-261.975,-435.765,1684.500,-1358.240,335.780
302,55938.805000,167.893,42.498,-148.263,146.495,-275.636,-425.127,1676.500,-1211.240,602.780
303,55938.839000,168.872,25.296,-127.506,169.803,-298.122,-403.855,1596.500,-1196.240,817.780
304,55938.841000,149.293,12.142,-108.726,169.685,-309.743,-391.041,1487.500,-1385.240,996.780
305,55938.871000,113.071,-5.059,-86.981,184.196,-338.923,-366.652,1372.500,-1399.240,1184.780
306,55938.892000,81.744,-32.379,-71.166,178.202,-363.074,-346.829,1308.500,-1307.240,1266.780
307,55938.916000,55.312,-46.545,-70.178,177.987,-369.862,-331.066,1139.500,-1152.240,1364.780
308,55938.937000,39.648,-58.688,-69.189,170.026,-391.092,-312.196,943.500,-1034.240,1404.780
309,55938.960000,24.964,-64.759,-68.201,160.148,-399.719,-302.166,743.500,-947.240,1406.780
310,55938.982000,11.258,-64.759,-51.398,146.341,-414.120,-288.123,541.500,-780.240,1396.780
311,55939.19000,-9.300,-68.806,-35.583,140.377,-422.783,-278.163,308.500,-565.240,1413.780
312,55939.37000,-8.321,-67.794,-31.629,125.719,-430.391,-274.941,68.500,-308.240,1416.780
313,55939.46000,-8.321,-64.759,-33.606,111.060,-434.128,-273.693,-157.500,-138.240,1429.780
314,55939.69000,-3.426,-59.700,-35.583,89.596,-442.640,-272.319,-274.500,-70.240,1434.780
315,55939.83000,-8.321,-38.451,-43.490,64.059,-439.511,-267.933,-505.500,-2.240,1433.780
316,55939.102000,-21.048,-28.332,-54.363,43.641,-440.284,-274.462,-713.500,74.760,1474.780
317,55939.127000,-23.985,-17.202,-66.224,16.312,-440.031,-277.916,-927.500,231.760,1502.780
318,55939.136000,-9.300,9.107,-81.050,0.655,-436.017,-279.613,-1160.500,213.760,1477.780
319,55939.164000,-6.363,50.593,-99.830,-31.652,-435.725,-278.057,-1382.500,25.760,1428.780
320,55939.186000,-27.901,83.984,-123.552,-54.202,-432.619,-276.677,-1523.500,-83.240,1411.780
321,55939.205000,-35.732,105.233,-152.216,-89.532,-428.433,-272.119,-1626.500,-29.240,1418.780
322,55939.227000,-52.375,133.565,-194.718,-123.946,-417.484,-267.586,-1685.500,165.760,1426.780
323,55939.247000,-61.185,147.731,-223.382,-139.691,-409.603,-266.332,-1702.500,318.760,1449.780
324,55939.265000,-72.933,165.945,-261.931,-173.058,-396.724,-266.741,-1709.500,661.760,1510.780
325,55939.287000,-55.312,192.253,-313.328,-187.721,-384.974,-273.386,-1624.500,1085.760,1573.780
326,55939.310000,-35.732,210.466,-359.784,-224.044,-360.454,-278.679,-1489.500,1300.760,1657.780
327,55939.319000,7.342,218.561,-406.239,-242.681,-351.577,-280.329,-1281.500,1041.760,1695.780
328,55939.351000,-1.468,227.668,-425.019,-273.245,-328.084,-278.831,-1015.500,677.760,1736.780
329,55939.383000,-26.922,220.585,-452.695,-295.028,-305.641,-275.519,-705.500,584.760,1802.780
330,55939.403000,-31.816,220.585,-480.371,-298.008,-298.842,-276.458,-343.500,590.760,1849.780
331,55939.416000,-24.964,225.644,-480.371,-314.787,-277.405,-279.140,11.500,457.760,1930.780
332,55939.434000,-30.837,227.668,-480.371,-326.584,-263.750,-282.885,190.500,358.760,1974.780
333,55939.454000,-72.933,219.573,-480.371,-339.379,-242.345,-289.575,565.500,340.760,2047.780
334,55939.467000,-82.723,213.502,-480.371,-338.403,-230.739,-295.512,939.500,567.760,1982.780
335,55939.492000,-83.702,195.289,-465.544,-338.288,-207.503,-314.246,1251.500,597.760,1837.780
336,55939.520000,-83.702,188.206,-453.683,-330.265,-193.044,-333.110,1506.500,548.760,1652.780
337,55939.535000,-108.176,188.206,-423.042,-322.345,-180.528,-345.078,1736.500,846.760,1503.780
338,55939.557000,-123.839,174.040,-379.552,-309.407,-153.530,-371.919,1907.500,1464.760,1359.780
339,55939.580000,-88.597,147.731,-330.131,-306.441,-136.132,-382.821,1987.500,1691.760,1140.780
340,55939.600000,-55.312,127.494,-279.722,-283.640,-110.187,-413.772,1970.500,1570.760,856.780
341,55939.632000,-53.354,121.423,-233.266,-268.965,-98.706,-419.952,1977.500,1224.760,723.780
342,55939.646000,-67.059,110.292,-192.741,-243.287,-79.565,-444.056,1945.500,1176.760,495.780
343,55939.655000,-71.954,92.079,-147.274,-232.483,-69.014,-452.135,1876.500,1396.760,307.780
344,55939.682000,-56.291,75.889,-113.668,-209.966,-45.988,-465.358,1737.500,1390.760,110.780
345,55939.700000,-39.648,63.747,-85.992,-176.572,-31.765,-480.732,1574.500,1078.760,-114.220
346,55939.722000,-20.069,39.462,-68.201,-174.616,-25.976,-483.727,1380.500,604.760,-378.220
347,55939.750000,-26.922,20.237,-65.236,-156.891,-27.097,-489.946,1195.500,287.760,-647.220
348,55939.769000,-41.606,9.107,-77.097,-143.131,-26.251,-494.128,1031.500,240.760,-880.220
349,55939.782000,-50.417,2.024,-69.189,-126.412,-20.590,-502.307,961.500,307.760,-985.220
350,55939.799000,0.489,-11.130,-74.131,-123.521,-15.779,-502.363,831.500,400.760,-1184.220
351,55939.824000,9.300,5.059,-74.131,-111.728,-13.947,-506.512,686.500,288.760,-1434.220
352,55939.846000,10.279,18.213,-69.189,-97.120,-12.149,-503.819,548.500,177.760,-1674.220
353,55939.862000,24.964,19.225,-62.270,-93.172,-10.247,-506.845,420.500,318.760,-1847.220
354,55939.888000,53.354,26.308,-53.375,-91.207,-5.425,-509.838,267.500,462.760,-1991.220
355,55939.906000,75.870,29.344,-49.421,-93.191,-4.440,-508.820,90.500,396.760,-2135.220
356,55939.926000,100.344,34.403,-49.421,-84.385,-2.585,-509.962,-106.500,276.760,-2265.220
357,55939.944000,121.881,40.474,-91.923,-92.248,-0.580,-508.841,-285.500,33.760,-2416.220
358,55939.966000,108.176,60.711,-124.541,-102.041,-3.395,-506.696,-359.500,-31.240,-2466.220
359,55939.989000,147.335,65.771,-156.170,-106.950,-5.287,-504.638,-431.500,107.760,-2480.220
360,55940.16000,167.893,96.126,-202.625,-104.040,-6.283,-502.719,-445.500,230.760,-2440.220
361,55940.34000,193.346,112.316,-231.290,-113.842,-6.195,-501.561,-417.500,278.760,-2355.220
362,55940.54000,234.463,126.482,-264.896,-116.796,-4.234,-501.511,-351.500,99.760,-2278.220
363,55940.76000,252.084,129.518,-313.328,-123.504,-15.778,-503.348,-268.500,-273.240,-2231.220
364,55940.91000,264.811,144.696,-351.876,-124.550,-21.581,-496.432,-187.500,-665.240,-2181.220
365,55940.120000,258.937,157.850,-377.575,-121.419,-42.890,-496.462,-17.500,-793.240,-2042.220
366,55940.131000,251.105,171.004,-394.378,-121.321,-51.596,-497.438,235.500,-648.240,-1900.220
367,55940.159000,265.790,160.885,-395.367,-114.428,-52.624,-499.528,384.500,-140.240,-1823.220
368,55940.191000,314.738,144.696,-370.656,-102.617,-54.662,-502.688,643.500,176.760,-1615.220
369,55940.205000,349.002,153.802,-352.865,-90.875,-52.833,-503.882,828.500,-118.240,-1405.220
370,55940.224000,328.444,140.648,-332.108,-69.172,-66.570,-507.203,982.500,-648.240,-1134.220
371,55940.241000,305.927,122.435,-321.236,-58.336,-78.278,-505.412,1100.500,-894.240,-819.220
372,55940.264000,305.927,126.482,-306.409,-39.489,-98.759,-509.660,1207.500,-1182.240,-623.220
373,55940.279000,281.453,115.352,-291.583,-30.619,-109.482,-507.835,1317.500,-1536.240,-488.220
374,55940.306000,252.084,98.150,-281.699,-4.089,-136.818,-500.397,1386.500,-1654.240,-378.220
375,55940.326000,235.442,95.115,-276.757,29.343,-170.020,-493.074,1413.500,-1701.240,-320.220
376,55940.341000,202.157,91.067,-256.000,43.997,-178.866,-487.416,1469.500,-1656.240,-142.220
377,55940.359000,181.598,73.866,-236.232,68.526,-203.282,-478.961,1519.500,-1363.240,59.780
378,55940.381000,189.430,62.735,-217.452,74.364,-211.081,-473.149,1540.500,-1281.240,186.780
379,55940.402000,188.451,58.688,-192.741,101.787,-242.301,-458.831,1525.500,-1555.240,249.780
380,55940.421000,149.293,42.498,-171.985,114.363,-251.136,-446.245,1505.500,-1655.240,346.780
381,55940.444000,126.776,19.225,-163.089,128.970,-279.343,-427.766,1452.500,-1346.240,487.780
382,55940.457000,123.839,8.095,-153.205,145.488,-298.859,-411.299,1381.500,-1157.240,608.780
383,55940.502000,124.818,-1.012,-130.471,151.302,-313.434,-400.556,1282.500,-1202.240,737.780
384,55940.521000,109.155,-18.213,-123.552,164.807,-333.895,-379.113,1224.500,-1231.240,807.780
385,55940.530000,83.702,-23.273,-121.575,166.619,-342.633,-366.337,1112.500,-1158.240,953.780
386,55940.556000,75.870,-34.403,-110.703,158.658,-361.927,-348.454,1017.500,-986.240,1117.780
387,55940.570000,73.912,-45.534,-100.819,160.557,-372.595,-339.615,915.500,-902.240,1244.780
388,55940.592000,50.417,-42.498,-91.923,151.704,-393.811,-325.651,805.500,-856.240,1348.780
389,55940.615000,39.648,-51.605,-80.062,136.753,-405.308,-303.715,650.500,-778.240,1463.780
390,55940.637000,27.901,-53.628,-74.131,128.900,-410.078,-299.632,468.500,-731.240,1551.780
391,55940.655000,11.258,-53.628,-72.154,110.244,-427.335,-286.484,299.500,-634.240,1603.780
392,55940.677000,-4.405,-59.700,-75.120,99.482,-433.044,-283.334,124.500,-585.240,1608.780
393,55940.700000,-8.321,-57.676,-79.073,82.659,-438.711,-269.247,33.500,-601.240,1584.780
394,55940.717000,-42.585,-51.605,-76.108,69.039,-445.358,-269.983,-141.500,-473.240,1564.780
395,55940.732000,-53.354,-47.557,-75.120,39.598,-445.096,-264.540,-348.500,-165.240,1537.780
396,55940.760000,-53.354,-27.320,-79.073,17.049,-441.990,-263.160,-523.500,76.760,1488.780
397,55940.784000,-73.912,-14.166,-85.992,-5.318,-441.777,-270.640,-681.500,448.760,1450.780
398,55940.787000,-80.765,-11.130,-85.992,-32.641,-430.877,-280.014,-901.500,865.760,1409.780
399,55940.817000,-49.438,-10.119,-95.876,-49.198,-425.882,-286.618,-1194.500,872.760,1294.780
400,55940.833000,-24.964,27.320,-110.703,-80.487,-414.949,-292.969,-1445.500,540.760,1162.780
401,55940.854000,-20.069,57.676,-134.425,-91.199,-412.912,-296.719,-1549.500,410.760,1101.780
402,55940.875000,-35.732,77.913,-167.042,-120.704,-400.071,-294.244,-1699.500,374.760,1095.780
403,55940.892000,-36.711,98.150,-188.788,-139.296,-397.966,-294.902,-1799.500,449.760,1078.780
404,55940.915000,-11.258,158.862,-280.710,-172.792,-386.062,-287.432,-1767.500,433.760,1092.780
405,55940.937000,-21.048,167.968,-318.270,-198.340,-374.222,-286.994,-1653.500,463.760,1122.780
406,55940.955000,-8.321,184.158,-340.015,-209.263,-360.582,-284.847,-1520.500,682.760,1205.780
407,55940.982000,11.258,193.265,-363.737,-242.683,-343.834,-284.276,-1339.500,727.760,1355.780
408,55941.0,9.300,187.194,-383.506,-259.510,-334.014,-278.083,-1106.500,477.760,1507.780
409,55941.22000,-8.321,196.300,-410.193,-283.143,-323.162,-274.724,-872.500,60.760,1617.780
410,55941.45000,-24.964,207.431,-438.857,-290.211,-314.401,-266.733,-747.500,-149.240,1634.780
411,55941.64000,-78.807,206.419,-450.718,-309.022,-303.597,-259.522,-458.500,-482.240,1610.780
412,55941.79000,-112.092,198.324,-456.649,-324.844,-292.817,-255.317,-120.500,-401.240,1566.780
413,55941.122000,-105.239,190.229,-448.741,-327.868,-286.988,-253.301,184.500,-55.240,1456.780
414,55941.124000,-103.281,195.289,-434.903,-335.732,-279.176,-255.140,448.500,-61.240,1299.780
415,55941.155000,-116.008,188.206,-425.019,-340.504,-277.189,-262.934,717.500,-196.240,1167.780
416,55941.171000,-132.650,182.134,-412.170,-339.494,-265.581,-270.841,981.500,-134.240,1057.780
417,55941.197000,-147.335,177.075,-393.390,-333.615,-262.730,-272.917,1223.500,117.760,937.780
418,55941.207000,-138.524,168.980,-363.737,-328.544,-252.118,-288.771,1427.500,482.760,819.780
419,55941.229000,-125.797,153.802,-329.143,-320.503,-237.658,-308.619,1509.500,643.760,767.780
420,55941.250000,-107.197,137.613,-299.490,-318.279,-234.757,-325.397,1611.500,904.760,671.780
421,55941.274000,-98.386,121.423,-275.768,-305.320,-221.309,-346.316,1675.500,953.760,589.780
422,55941.297000,-105.239,108.269,-236.232,-297.312,-212.659,-361.234,1704.500,993.760,486.780
423,55941.312000,-97.407,97.138,-221.405,-273.590,-199.308,-382.343,1685.500,1113.760,354.780
424,55941.338000,-64.122,86.008,-201.637,-267.600,-191.612,-393.287,1632.500,1057.760,141.780
425,55941.357000,-53.354,79.937,-169.019,-245.858,-185.020,-409.431,1575.500,768.760,-58.220
426,55941.377000,-59.228,58.688,-159.135,-224.135,-176.493,-425.577,1490.500,653.760,-205.220
427,55941.395000,-48.459,49.581,-155.181,-216.187,-170.750,-435.568,1409.500,682.760,-328.220
428,55941.412000,-28.880,41.486,-131.459,-196.551,-161.246,-444.787,1375.500,686.760,-392.220
429,55941.435000,-24.964,28.332,-110.703,-179.743,-161.387,-454.929,1288.500,519.760,-534.220
430,55941.462000,-27.901,8.095,-103.784,-157.178,-160.620,-459.267,1168.500,357.760,-669.220
431,55941.477000,-21.048,1.012,-101.807,-154.208,-158.709,-462.275,1016.500,235.760,-840.220
432,55941.505000,-27.901,2.024,-87.969,-138.448,-158.846,-468.460,869.500,281.760,-1001.220
433,55941.515000,-29.859,-3.036,-71.166,-124.613,-149.284,-481.514,728.500,542.760,-1109.220
434,55941.542000,-13.216,-18.213,-57.328,-112.933,-144.554,-480.742,548.500,785.760,-1202.220
435,55941.562000,13.216,-32.379,-53.375,-98.189,-135.005,-489.874,332.500,755.760,-1319.220
436,55941.599000,35.732,-30.356,-59.305,-91.375,-131.198,-489.999,210.500,635.760,-1394.220
437,55941.611000,49.438,-24.285,-57.328,-86.466,-129.305,-492.057,-21.500,331.760,-1575.220
438,55941.625000,59.228,-10.119,-64.247,-78.604,-129.375,-494.165,-226.500,111.760,-1730.220
439,55941.642000,57.270,-2.024,-73.143,-78.621,-127.440,-494.167,-408.500,112.760,-1805.220
440,55941.665000,75.870,2.024,-82.039,-86.510,-126.404,-491.075,-601.500,105.760,-1912.220
441,55941.685000,94.470,32.379,-97.853,-90.353,-132.172,-491.985,-762.500,-171.240,-2012.220
442,55941.705000,88.597,39.462,-109.714,-93.305,-136.018,-488.975,-899.500,-329.240,-2005.220
443,55941.729000,98.386,34.403,-147.274,-102.110,-143.681,-484.872,-1062.500,-429.240,-1955.220
444,55941.744000,126.776,56.664,-169.019,-107.033,-159.125,-474.923,-1214.500,-897.240,-1908.220
445,55941.766000,128.734,84.996,-194.718,-116.850,-168.717,-467.846,-1261.500,-1175.240,-1872.220
446,55941.786000,85.660,108.269,-247.104,-126.534,-188.948,-462.729,-1265.500,-1244.240,-1706.220
447,55941.803000,74.891,108.269,-310.363,-130.515,-200.531,-452.801,-1219.500,-865.240,-1539.220
448,55941.832000,80.765,118.387,-347.923,-137.353,-211.115,-447.745,-1068.500,-616.240,-1414.220
449,55941.850000,77.828,127.494,-377.575,-141.324,-225.601,-436.829,-915.500,-645.240,-1326.220
450,55941.870000,50.417,133.565,-392.402,-145.202,-229.435,-436.756,-760.500,-534.240,-1340.220
451,55941.890000,34.753,138.625,-407.228,-141.285,-239.150,-431.891,-584.500,-318.240,-1399.220
452,55941.907000,43.564,147.731,-426.008,-139.319,-242.071,-430.938,-379.500,-215.240,-1424.220
453,55941.930000,68.038,157.850,-426.008,-126.597,-249.930,-427.216,-171.500,-280.240,-1448.220
454,55941.959000,77.828,160.885,-431.938,-127.496,-254.756,-429.164,-65.500,-318.240,-1443.220
455,55941.972000,70.975,149.755,-426.008,-113.796,-260.688,-426.446,160.500,-221.240,-1391.220
456,55942.1000,82.723,149.755,-414.147,-89.297,-266.715,-425.888,393.500,-59.240,-1312.220
457,55942.20000,126.776,149.755,-395.367,-84.265,-274.495,-429.905,580.500,-271.240,-1278.220
458,55942.40000,135.587,127.494,-364.726,-61.826,-282.447,-422.418,720.500,-714.240,-1194.220
459,55942.55000,116.987,120.411,-355.830,-51.945,-289.306,-424.553,867.500,-630.240,-971.220
460,55942.74000,132.650,108.269,-336.062,-26.468,-295.342,-424.012,1053.500,-237.240,-736.220
461,55942.96000,154.187,94.103,-320.247,-21.497,-296.350,-428.037,1216.500,-155.240,-581.220
462,55942.122000,161.040,81.960,-311.351,5.850,-300.474,-423.594,1276.500,-233.240,-432.220
463,55942.140000,152.229,72.854,-299.490,30.271,-311.346,-416.137,1371.500,-460.240,-343.220
464,55942.158000,139.503,64.759,-283.676,44.906,-314.385,-412.455,1455.500,-591.240,-155.220
465,55942.180000,122.860,61.723,-265.884,66.384,-324.263,-404.948,1527.500,-563.240,36.780
466,55942.202000,124.818,42.498,-231.290,69.268,-326.228,-401.059,1608.500,-389.240,222.780
467,55942.215000,125.797,26.308,-215.475,92.607,-337.097,-387.677,1620.500,-397.240,392.780
468,55942.237000,114.050,22.261,-190.764,99.458,-342.967,-384.838,1593.500,-542.240,551.780
469,55942.255000,88.597,8.095,-165.066,112.026,-354.706,-370.279,1548.500,-615.240,720.780
470,55942.269000,75.870,-1.012,-138.378,116.834,-362.498,-361.495,1464.500,-533.240,861.780
471,55942.287000,77.828,-15.178,-109.714,125.470,-372.267,-346.870,1401.500,-508.240,923.780
472,55942.320000,62.164,-30.356,-80.062,131.353,-388.774,-339.079,1236.500,-620.240,1019.780
473,55942.337000,50.417,-44.522,-66.224,124.324,-395.497,-325.164,1018.500,-796.240,1107.780
474,55942.360000,33.774,-48.569,-66.224,117.254,-410.934,-304.348,791.500,-992.240,1167.780
475,55942.386000,12.237,-54.640,-66.224,115.221,-419.631,-295.441,594.500,-1096.240,1203.780
476,55942.409000,-7.342,-50.593,-65.236,105.293,-436.005,-278.511,433.500,-1026.240,1231.780
477,55942.434000,-20.069,-56.664,-68.201,91.456,-437.824,-269.404,289.500,-796.240,1283.780
478,55942.434000,-17.132,-54.640,-68.201,73.794,-449.281,-260.218,135.500,-574.240,1339.780
479,55942.465000,-20.069,-47.557,-74.131,50.199,-453.914,-250.935,-18.500,-452.240,1390.780
480,55942.501000,-30.837,-39.462,-79.073,41.377,-457.706,-247.821,-89.500,-369.240,1420.780
481,55942.505000,-43.564,-32.379,-84.015,20.846,-459.454,-247.456,-235.500,-163.240,1471.780
482,55942.524000,-47.480,-29.344,-90.934,4.194,-457.368,-247.164,-386.500,117.760,1501.780
483,55942.566000,-45.522,-24.285,-101.807,-22.157,-453.252,-252.609,-579.500,372.760,1490.780
484,55942.570000,-39.648,-9.107,-120.587,-29.942,-452.211,-255.426,-801.500,411.760,1424.780
485,55942.584000,-35.732,9.107,-130.471,-68.123,-442.186,-258.700,-1006.500,298.760,1338.780
486,55942.615000,-37.690,31.368,-145.297,-94.665,-434.209,-255.286,-1196.500,137.760,1246.780
487,55942.632000,-51.396,60.711,-170.008,-106.382,-431.198,-258.036,-1334.500,125.760,1178.780
488,55942.656000,-61.185,80.949,-183.846,-135.878,-421.259,-254.572,-1418.500,205.760,1136.780
489,55942.677000,-59.228,105.233,-195.707,-143.707,-417.317,-256.407,-1452.500,411.760,1101.780
490,55942.692000,-50.417,124.459,-208.556,-175.160,-405.425,-253.896,-1497.500,536.760,1043.780
491,55942.715000,-36.711,140.648,-227.336,-188.878,-397.558,-256.616,-1545.500,721.760,1019.780
492,55942.731000,-35.732,150.767,-276.757,-217.440,-380.856,-254.161,-1597.500,875.760,1080.780
493,55942.757000,-23.985,193.265,-334.085,-241.984,-364.184,-257.684,-1482.500,1006.760,1127.780
494,55942.782000,-10.279,197.312,-345.946,-252.802,-354.410,-259.473,-1282.500,991.760,1194.780
495,55942.802000,2.447,183.146,-392.402,-274.566,-339.709,-253.198,-1095.500,661.760,1246.780
496,55942.840000,14.195,216.538,-452.695,-288.363,-328.943,-252.967,-758.500,171.760,1381.780
497,55942.840000,-17.132,227.668,-469.498,-300.385,-317.238,-242.923,-542.500,-64.240,1570.780
498,55942.860000,-58.249,228.680,-475.429,-310.214,-314.247,-241.768,-132.500,-327.240,1614.780
499,55942.875000,-84.681,236.775,-480.371,-327.067,-303.462,-234.592,280.500,-523.240,1637.780
500,55942.908000,-119.924,230.704,-470.486,-329.027,-291.829,-240.477,716.500,-502.240,1674.780
501,55942.917000,-139.503,222.609,-436.880,-338.847,-287.870,-240.308,1069.500,-420.240,1636.780
502,55942.936000,-152.229,213.502,-414.147,-340.651,-278.165,-254.070,1356.500,-332.240,1535.780
503,55942.964000,-166.914,193.265,-370.656,-338.669,-273.342,-258.049,1531.500,-180.240,1375.780
504,55942.979000,-169.851,182.134,-350.888,-336.516,-262.702,-274.835,1647.500,17.760,1181.780
505,55942.996000,-162.998,166.957,-315.305,-327.546,-261.805,-284.839,1701.500,119.760,953.780
506,55943.17000,-156.145,147.731,-283.676,-316.516,-253.176,-304.733,1707.500,160.760,834.780
507,55943.37000,-153.208,130.530,-251.058,-314.499,-250.287,-309.695,1692.500,276.760,595.780
508,55943.64000,-146.356,108.269,-216.463,-304.404,-246.487,-329.567,1603.500,393.760,347.780
509,55943.90000,-124.818,84.996,-192.741,-279.682,-246.695,-344.771,1437.500,300.760,10.780
510,55943.115000,-100.344,74.877,-182.857,-271.706,-251.597,-350.813,1284.500,-55.240,-329.220
511,55943.135000,-93.491,75.889,-176.927,-255.884,-258.505,-356.992,1189.500,-303.240,-598.220
512,55943.144000,-114.050,62.735,-165.066,-251.856,-265.310,-360.008,1142.500,-162.240,-685.220
513,55943.166000,-110.134,61.723,-155.181,-231.991,-267.407,-376.108,1131.500,366.760,-665.220
514,55943.184000,-76.849,44.522,-133.436,-215.298,-262.715,-382.316,1133.500,853.760,-688.220
515,55943.206000,-49.438,29.344,-111.691,-203.350,-255.067,-398.288,1119.500,932.760,-735.220
516,55943.229000,-44.543,16.190,-100.819,-178.751,-247.539,-410.545,1045.500,788.760,-862.220
517,55943.273000,-44.543,0.000,-96.865,-168.845,-249.557,-416.625,929.500,554.760,-962.220
518,55943.286000,-39.648,-4.047,-87.969,-147.180,-247.809,-425.870,775.500,526.760,-1029.220
519,55943.286000,-37.690,-14.166,-73.143,-139.336,-242.072,-429.953,618.500,597.760,-1100.220
520,55943.304000,-19.090,-22.261,-53.375,-131.380,-235.360,-440.931,428.500,681.760,-1202.220
521,55943.326000,11.258,-21.249,-45.467,-120.618,-229.651,-444.082,181.500,689.760,-1362.220
522,55943.346000,32.795,-24.285,-56.340,-106.904,-223.967,-448.269,-73.500,517.760,-1518.220
523,55943.374000,34.753,-21.249,-68.201,-96.079,-226.965,-450.426,-196.500,408.760,-1577.220
524,55943.389000,45.522,-22.261,-69.189,-106.852,-223.964,-451.223,-403.500,382.760,-1648.220
525,55943.414000,66.080,-5.059,-82.039,-100.939,-217.240,-457.242,-599.500,492.760,-1676.220
526,55943.435000,78.807,3.036,-94.888,-98.983,-213.386,-459.250,-740.500,500.760,-1679.220
527,55943.453000,83.702,2.024,-100.819,-100.041,-206.606,-458.255,-863.500,443.760,-1626.220
528,55943.482000,105.239,10.119,-113.668,-100.959,-207.562,-461.191,-1023.500,362.760,-1558.220
529,55943.501000,109.155,29.344,-137.390,-107.878,-207.504,-457.131,-1193.500,202.760,-1468.220
530,55943.524000,111.113,53.628,-161.112,-118.667,-206.439,-455.957,-1331.500,64.760,-1432.220
531,55943.549000,89.576,70.830,-193.730,-127.586,-207.333,-448.907,-1411.500,-85.240,-1428.220
532,55943.559000,90.554,82.972,-242.162,-131.455,-214.071,-447.846,-1414.500,-66.240,-1420.220
533,55943.575000,81.744,96.126,-295.537,-142.332,-211.075,-442.735,-1352.500,5.760,-1387.220
534,55943.596000,69.017,108.269,-329.143,-155.060,-211.928,-441.524,-1234.500,290.760,-1267.220
535,55943.624000,91.533,106.245,-369.668,-159.018,-208.991,-440.473,-1094.500,432.760,-1175.220
536,55943.637000,87.618,124.459,-392.402,-167.920,-209.884,-434.408,-935.500,126.760,-1182.220
537,55943.654000,62.164,130.530,-403.274,-163.980,-210.886,-435.461,-753.500,-167.240,-1188.220
538,55943.681000,49.438,135.589,-423.042,-169.927,-217.613,-427.472,-570.500,-158.240,-1187.220
539,55943.699000,53.354,143.684,-435.892,-165.960,-221.517,-428.522,-339.500,-65.240,-1213.220
540,55943.721000,53.354,147.731,-436.880,-159.074,-227.385,-427.653,-73.500,-17.240,-1226.220
541,55943.739000,78.807,149.755,-426.008,-148.241,-231.350,-429.808,38.500,-7.240,-1248.220
542,55943.755000,103.281,146.719,-418.100,-139.389,-238.203,-428.973,226.500,-134.240,-1306.220
543,55943.786000,120.902,145.708,-405.251,-132.478,-245.037,-429.087,415.500,-380.240,-1329.220
544,55943.802000,122.860,138.625,-387.459,-114.846,-249.068,-428.410,615.500,-440.240,-1232.220
545,55943.821000,130.692,139.636,-376.587,-94.158,-256.990,-432.704,826.500,-224.240,-1032.220
546,55943.844000,160.061,132.553,-348.911,-75.435,-263.927,-436.965,1021.500,-58.240,-787.220
547,55943.866000,196.283,114.340,-326.178,-70.541,-267.843,-435.078,1159.500,-387.240,-596.220
548,55943.889000,207.052,101.186,-308.386,-45.088,-282.592,-428.620,1245.500,-901.240,-423.220
549,55943.931000,195.304,93.091,-295.537,-32.340,-291.418,-425.882,1283.500,-1140.240,-247.220
550,55943.945000,153.208,84.996,-284.664,-8.930,-306.154,-414.466,1373.500,-1256.240,-144.220
551,55943.954000,132.650,79.937,-275.768,0.866,-316.889,-409.704,1457.500,-970.240,76.780
552,55943.971000,140.482,76.901,-253.035,21.365,-326.758,-402.180,1514.500,-792.240,264.780
553,55943.989000,138.524,63.747,-228.324,38.861,-344.347,-386.717,1545.500,-888.240,432.780
554,55944.21000,118.945,56.664,-198.672,48.639,-351.212,-382.944,1543.500,-942.240,602.780
555,55944.30000,105.239,36.427,-170.008,52.340,-361.906,-365.277,1504.500,-963.240,760.780
556,55944.47000,87.618,14.166,-145.297,60.171,-375.528,-358.509,1412.500,-1010.240,888.780
557,55944.61000,68.038,-1.012,-126.517,66.843,-392.054,-339.903,1298.500,-967.240,997.780
558,55944.80000,48.459,-20.237,-103.784,61.848,-397.823,-330.947,1228.500,-919.240,1038.780
559,55944.112000,36.711,-42.498,-88.958,55.807,-409.394,-315.076,1035.500,-937.240,1079.780
560,55944.137000,23.985,-49.581,-81.050,56.591,-425.868,-295.381,826.500,-1026.240,1078.780
561,55944.175000,8.321,-54.640,-83.027,53.579,-430.686,-288.431,658.500,-1076.240,1089.780
562,55944.180000,-11.258,-58.688,-84.015,35.839,-441.180,-275.307,519.500,-945.240,1097.780
563,55944.205000,-33.774,-57.676,-76.108,34.741,-446.985,-265.436,378.500,-655.240,1115.780
564,55944.219000,-37.690,-63.747,-75.120,21.874,-449.781,-255.361,212.500,-363.240,1133.780
565,55944.256000,-31.816,-54.640,-82.039,11.189,-452.583,-258.122,49.500,-161.240,1145.780
566,55944.256000,-22.027,-44.522,-78.085,-6.519,-449.524,-253.874,-174.500,-54.240,1149.780
567,55944.284000,-8.321,-33.391,-84.015,-13.350,-455.268,-251.778,-293.500,-53.240,1156.780
568,55944.299000,-21.048,-8.095,-125.529,-37.849,-449.240,-252.336,-535.500,-127.240,1210.780
569,55944.315000,-37.690,7.083,-149.251,-63.411,-447.080,-245.980,-688.500,-155.240,1302.780
570,55944.336000,-64.122,19.225,-154.193,-81.093,-444.988,-242.716,-743.500,-56.240,1355.780
571,55944.359000,-63.143,33.391,-160.124,-100.647,-442.873,-244.341,-818.500,224.760,1380.780
572,55944.376000,-52.375,49.581,-187.799,-122.237,-432.034,-245.941,-893.500,388.760,1390.780
573,55944.390000,-51.396,69.818,-195.707,-146.709,-426.973,-247.483,-942.500,308.760,1373.780
574,55944.419000,-70.975,81.960,-196.695,-157.570,-416.234,-247.303,-965.500,262.760,1360.780
575,55944.439000,-77.828,89.043,-216.463,-184.069,-409.222,-245.858,-1014.500,314.760,1395.780
576,55944.466000,-69.996,103.209,-237.220,-208.665,-394.489,-245.440,-1037.500,496.760,1412.780
577,55944.485000,-65.101,123.447,-248.093,-226.385,-380.784,-246.127,-1064.500,741.760,1436.780
578,55944.507000,-43.564,132.553,-293.560,-253.899,-364.087,-247.629,-1041.500,822.760,1477.780
579,55944.525000,-42.585,155.826,-341.004,-261.824,-357.246,-245.528,-960.500,380.760,1404.780
580,55944.543000,-70.975,163.921,-380.541,-280.599,-348.376,-239.299,-798.500,-65.240,1236.780
581,55944.565000,-101.323,168.980,-426.008,-284.653,-344.477,-233.325,-576.500,-10.240,1163.780
582,55944.587000,-112.092,171.004,-447.753,-312.114,-331.649,-235.808,-281.500,418.760,1218.780
583,55944.610000,-93.491,174.040,-446.764,-319.064,-309.330,-241.618,32.500,716.760,1304.780
584,55944.632000,-92.512,177.075,-445.776,-325.916,-299.589,-246.430,181.500,749.760,1390.780
585,55944.670000,-84.681,179.099,-423.042,-326.873,-283.125,-256.277,454.500,681.760,1400.780
586,55944.684000,-89.576,182.134,-408.216,-335.654,-280.139,-259.078,729.500,437.760,1364.780
587,55944.701000,-116.987,168.980,-399.320,-337.477,-264.628,-274.816,988.500,348.760,1371.780
588,55944.715000,-114.050,156.838,-396.355,-339.375,-257.831,-281.681,1180.500,539.760,1313.780
589,55944.727000,-116.987,159.874,-366.703,-336.289,-236.555,-301.450,1349.500,789.760,1191.780
590,55944.759000,-120.902,132.553,-342.981,-327.280,-219.202,-322.303,1487.500,1007.760,1102.780
591,55944.780000,-98.386,122.435,-316.293,-321.264,-210.536,-335.217,1557.500,985.760,947.780
592,55944.797000,-87.618,113.328,-289.606,-307.335,-198.065,-355.168,1601.500,775.760,715.780
593,55944.822000,-97.407,108.269,-263.907,-304.245,-190.339,-368.029,1614.500,718.760,593.780
594,55944.841000,-101.323,97.138,-234.255,-284.489,-176.956,-386.115,1641.500,769.760,373.780
595,55944.861000,-90.554,84.996,-203.614,-274.497,-173.162,-400.078,1649.500,922.760,143.780
596,55944.884000,-81.744,73.866,-169.019,-252.853,-159.800,-414.259,1609.500,1062.760,-36.220
597,55944.899000,-56.291,54.640,-138.378,-242.024,-144.408,-426.282,1513.500,1124.760,-192.220
598,55944.926000,-37.690,48.569,-112.680,-215.416,-138.830,-440.542,1413.500,966.760,-375.220
599,55944.943000,-39.648,33.391,-102.795,-198.549,-134.129,-456.597,1293.500,836.760,-508.220
600,55944.965000,-45.522,23.273,-93.900,-184.896,-123.609,-459.804,1172.500,924.760,-597.220
601,55944.986000,-41.606,4.047,-87.969,-169.149,-109.228,-472.897,1050.500,1092.760,-708.220
602,55945.17000,-37.690,-1.012,-88.958,-163.314,-103.476,-473.992,979.500,1188.760,-769.220
603,55945.31000,-16.153,-11.130,-86.981,-143.679,-86.228,-487.157,837.500,1196.760,-908.220
604,55945.60000,4.405,-21.249,-83.027,-142.728,-81.398,-488.164,690.500,939.760,-1097.220
605,55945.66000,11.258,-20.237,-84.015,-130.883,-79.564,-495.267,546.500,636.760,-1329.220
606,55945.85000,24.964,-14.166,-78.085,-120.174,-69.985,-497.437,396.500,367.760,-1588.220
607,55945.102000,25.943,-7.083,-86.981,-114.258,-74.876,-497.536,239.500,257.760,-1783.220
608,55945.122000,42.585,0.000,-94.888,-110.337,-68.136,-501.551,84.500,265.760,-1910.220
609,55945.147000,61.185,10.119,-87.969,-103.531,-69.168,-498.717,-53.500,299.760,-1996.220
610,55945.167000,66.080,26.308,-83.027,-101.576,-61.443,-502.698,-171.500,373.760,-2004.220
611,55945.190000,80.765,34.403,-86.981,-108.460,-59.447,-501.594,-225.500,555.760,-1990.220
612,55945.210000,109.155,44.522,-85.004,-106.548,-52.692,-502.620,-319.500,636.760,-1977.220
613,55945.230000,118.945,52.617,-95.876,-105.641,-46.897,-501.659,-414.500,602.760,-1944.220
614,55945.251000,135.587,62.735,-116.633,-109.600,-40.089,-502.581,-505.500,619.760,-1877.220
615,55945.274000,137.545,65.771,-138.378,-119.517,-29.360,-500.449,-576.500,769.760,-1826.220
616,55945.291000,143.419,64.759,-164.077,-127.390,-22.516,-501.303,-644.500,821.760,-1843.220
617,55945.315000,193.346,68.806,-200.649,-134.387,-21.495,-493.304,-665.500,276.760,-1993.220
618,55945.338000,232.505,87.020,-250.069,-141.201,-25.302,-493.179,-647.500,-565.240,-2136.220
619,55945.356000,223.694,100.174,-301.467,-147.888,-48.460,-490.080,-607.500,-801.240,-2148.220
620,55945.375000,192.367,117.375,-361.761,-152.812,-60.032,-482.104,-479.500,-641.240,-2027.220
621,55945.394000,183.556,135.589,-401.297,-145.876,-63.961,-485.176,-271.500,-2.240,-1829.220
622,55945.416000,275.579,138.625,-403.274,-145.840,-67.831,-485.172,2.500,87.760,-1695.220
623,55945.434000,274.600,152.791,-397.344,-143.760,-75.585,-488.153,226.500,-501.240,-1639.220
624,55945.455000,240.337,149.755,-393.390,-134.784,-94.046,-488.290,437.500,-860.240,-1572.220
625,55945.471000,227.610,136.601,-382.517,-121.085,-98.042,-486.559,632.500,-676.240,-1424.220
626,55945.500000,271.663,125.470,-361.761,-106.240,-110.749,-489.760,805.500,-421.240,-1246.220
627,55945.516000,291.243,130.530,-343.969,-101.162,-125.301,-492.786,964.500,-707.240,-1064.220
628,55945.544000,276.558,123.447,-325.189,-75.692,-136.178,-489.286,1039.500,-927.240,-985.220
629,55945.556000,242.294,109.281,-317.282,-51.096,-154.783,-487.731,1193.500,-1186.240,-780.220
630,55945.576000,232.505,90.055,-302.456,-43.179,-162.593,-488.846,1329.500,-1010.240,-540.220
631,55945.606000,258.937,91.067,-295.537,-18.600,-181.199,-486.306,1398.500,-912.240,-327.220
632,55945.620000,248.168,86.008,-262.919,-1.002,-191.039,-480.699,1479.500,-1211.240,-189.220
633,55945.657000,213.904,68.806,-237.220,29.398,-215.508,-472.348,1531.500,-1408.240,-40.220
634,55945.676000,196.283,56.664,-225.359,33.296,-221.352,-468.472,1550.500,-1319.240,176.780
635,55945.685000,191.388,46.545,-196.695,58.684,-249.656,-451.168,1556.500,-1284.240,405.780
636,55945.706000,180.620,45.534,-168.031,77.273,-274.023,-438.671,1514.500,-1546.240,555.780
637,55945.720000,154.187,37.439,-144.309,92.854,-286.752,-428.103,1488.500,-1665.240,615.780
638,55945.739000,114.050,20.237,-118.610,98.680,-315.845,-410.451,1418.500,-1682.240,741.780
639,55945.759000,98.386,0.000,-100.819,100.415,-327.490,-391.764,1306.500,-1457.240,879.780
640,55945.786000,101.323,-5.059,-83.027,111.080,-348.888,-375.192,1151.500,-1344.240,994.780
641,55945.804000,90.554,-20.237,-57.328,108.018,-361.451,-361.341,973.500,-1474.240,1096.780
642,55945.841000,65.101,-36.427,-47.444,103.912,-385.624,-337.613,755.500,-1623.240,1166.780
643,55945.845000,38.669,-41.486,-55.351,94.965,-411.685,-315.766,546.500,-1643.240,1234.780
644,55945.866000,14.195,-48.569,-59.305,92.811,-420.389,-299.966,389.500,-1483.240,1294.780
645,55945.889000,2.447,-50.593,-58.317,74.942,-431.859,-278.963,252.500,-1354.240,1349.780
646,55945.906000,-9.300,-50.593,-57.328,70.009,-442.463,-270.988,182.500,-1094.240,1389.780
647,55945.926000,-17.132,-42.498,-69.189,41.505,-452.859,-257.674,50.500,-878.240,1466.780
648,55945.949000,-25.943,-35.415,-83.027,33.617,-455.695,-252.608,-60.500,-679.240,1530.780
649,55945.966000,-36.711,-25.296,-90.934,4.185,-456.401,-247.165,-181.500,-343.240,1587.780
650,55945.989000,-50.417,-16.190,-89.946,-22.313,-453.261,-243.746,-321.500,54.760,1576.780
651,55946.9000,-58.249,-16.190,-99.830,-40.800,-455.022,-248.339,-496.500,395.760,1531.780
652,55946.30000,-52.375,-5.059,-115.645,-58.467,-445.186,-250.007,-704.500,479.760,1463.780
653,55946.65000,-45.522,13.154,-125.529,-77.934,-441.131,-257.543,-936.500,419.760,1378.780
654,55946.77000,-53.354,43.510,-133.436,-106.374,-428.293,-260.008,-1047.500,440.760,1356.780
655,55946.104000,-51.396,65.771,-156.170,-113.164,-425.324,-264.814,-1239.500,565.760,1364.780
656,55946.117000,-41.606,94.103,-180.880,-147.536,-411.469,-264.222,-1387.500,636.760,1360.780
657,55946.137000,-53.354,126.482,-209.544,-178.981,-394.737,-264.670,-1453.500,761.760,1404.780
658,55946.160000,-59.228,142.672,-239.197,-196.553,-387.800,-270.274,-1434.500,1080.760,1519.780
659,55946.184000,-36.711,156.838,-270.826,-230.001,-360.406,-273.652,-1364.500,1216.760,1572.780
660,55946.199000,-15.174,167.968,-303.444,-245.694,-352.522,-275.352,-1270.500,998.760,1570.780
661,55946.215000,-15.174,182.134,-354.842,-273.288,-329.055,-275.876,-1091.500,615.760,1561.780
662,55946.242000,-47.480,197.312,-408.216,-287.049,-320.222,-276.627,-837.500,647.760,1574.780
663,55946.260000,-75.870,193.265,-448.741,-302.944,-299.767,-273.417,-701.500,835.760,1569.780
664,55946.282000,-74.891,186.182,-480.371,-313.677,-284.181,-283.089,-399.500,1209.760,1529.780
665,55946.305000,-46.501,186.182,-480.371,-326.541,-262.780,-285.840,-63.500,1197.760,1466.780
666,55946.322000,-29.859,193.265,-480.371,-333.353,-238.518,-300.515,320.500,855.760,1441.780
667,55946.345000,-57.270,202.372,-480.371,-331.494,-227.894,-300.560,738.500,907.760,1523.780
668,55946.362000,-54.333,205.407,-480.371,-332.297,-203.678,-323.217,1113.500,1079.760,1613.780
669,55946.371000,-37.690,197.312,-450.718,-332.231,-190.123,-334.063,1376.500,997.760,1612.780
670,55946.404000,-21.048,184.158,-400.309,-329.128,-168.847,-354.816,1564.500,645.760,1479.780
671,55946.421000,-36.711,159.874,-367.691,-318.297,-163.133,-361.906,1725.500,547.760,1306.780
672,55946.444000,-63.143,142.672,-341.004,-304.334,-146.789,-385.799,1799.500,744.760,1220.780
673,55946.466000,-65.101,124.459,-305.421,-284.616,-119.857,-408.822,1908.500,1159.760,1069.780
674,55946.487000,-40.627,111.304,-263.907,-269.863,-109.339,-418.939,1949.500,1265.760,898.780
675,55946.519000,-16.153,88.032,-209.544,-244.184,-92.135,-442.056,1956.500,967.760,678.780
676,55946.536000,-27.901,77.913,-175.938,-227.473,-87.442,-449.249,1961.500,708.760,459.780
677,55946.564000,-31.816,55.652,-154.193,-210.670,-74.033,-466.297,1933.500,661.760,261.780
678,55946.572000,-32.795,41.486,-129.483,-189.110,-68.420,-471.608,1843.500,681.760,34.780
679,55946.589000,-23.985,34.403,-108.726,-160.632,-57.057,-483.938,1716.500,757.760,-189.220
680,55946.615000,-17.132,16.190,-84.015,-137.082,-45.652,-494.213,1655.500,757.760,-300.220
681,55946.639000,-12.237,-1.012,-59.305,-130.252,-39.908,-496.309,1502.500,729.760,-504.220
682,55946.652000,-4.405,-10.119,-41.514,-106.736,-28.505,-504.614,1296.500,702.760,-673.220
683,55946.670000,6.363,-19.225,-25.699,-97.905,-23.744,-508.714,1069.500,698.760,-849.220
684,55946.696000,14.195,-31.368,-20.757,-81.317,-13.251,-511.973,835.500,613.760,-1040.220
685,55946.709000,20.069,-41.486,-17.792,-71.542,-8.501,-514.120,590.500,485.760,-1244.220
686,55946.722000,35.732,-40.474,-17.792,-66.719,-4.678,-512.241,326.500,278.760,-1481.220
687,55946.754000,42.585,-30.356,-22.734,-64.710,-8.564,-513.257,59.500,-8.240,-1703.220
688,55946.776000,41.606,-16.190,-49.421,-71.542,-6.565,-515.107,-148.500,-151.240,-1885.220
689,55946.794000,48.459,-7.083,-67.212,-68.666,-11.435,-509.246,-223.500,-129.240,-1973.220
690,55946.816000,44.543,-6.071,-78.085,-69.576,-9.486,-514.154,-324.500,51.760,-2154.220
691,55946.834000,72.933,1.012,-99.830,-80.461,-5.523,-509.044,-443.500,224.760,-2353.220
692,55946.857000,113.071,28.332,-121.575,-89.250,-7.378,-508.886,-587.500,77.760,-2606.220
693,55946.875000,126.776,53.628,-160.124,-97.050,-16.017,-505.785,-724.500,-294.240,-2803.220
694,55946.902000,126.776,72.854,-198.672,-103.819,-26.597,-504.668,-853.500,-397.240,-2859.220
695,55946.922000,142.440,116.364,-242.162,-112.640,-36.196,-498.594,-892.500,-476.240,-2856.220
696,55946.950000,152.229,148.743,-272.803,-125.305,-49.628,-494.417,-787.500,-468.240,-2758.220
697,55946.988000,155.166,156.838,-302.456,-125.243,-56.400,-494.410,-643.500,-383.240,-2610.220
698,55946.988000,184.535,169.992,-330.131,-128.149,-67.019,-490.408,-564.500,-131.240,-2534.220
699,55947.2000,212.925,166.957,-344.958,-134.047,-65.999,-489.320,-421.500,-129.240,-2371.220
700,55947.20000,230.547,163.921,-348.911,-133.931,-78.575,-489.308,-290.500,-416.240,-2218.220
701,55947.42000,234.463,163.921,-366.703,-131.928,-89.237,-486.377,-148.500,-827.240,-2099.220
702,55947.56000,222.715,172.016,-382.517,-119.973,-112.562,-486.562,64.500,-921.240,-1945.220
703,55947.84000,219.778,174.040,-385.483,-116.948,-122.263,-486.604,295.500,-524.240,-1728.220
704,55947.92000,256.000,165.945,-396.355,-108.141,-126.214,-484.786,503.500,-208.240,-1432.220
705,55947.125000,295.159,172.016,-391.413,-89.409,-132.183,-490.033,724.500,-237.240,-1062.220
706,55947.142000,290.264,162.909,-355.830,-80.594,-133.230,-490.187,835.500,-313.240,-853.220
707,55947.165000,268.727,149.755,-339.027,-67.733,-141.081,-494.344,1057.500,-390.240,-453.220
708,55947.185000,264.811,138.625,-330.131,-50.136,-147.050,-490.710,1233.500,-437.240,-173.220
709,55947.207000,246.210,132.553,-310.363,-26.538,-154.032,-494.073,1387.500,-520.240,14.780
710,55947.229000,229.568,113.328,-289.606,-1.025,-165.874,-492.541,1504.500,-590.240,186.780
711,55947.248000,210.967,107.257,-261.931,8.777,-167.898,-492.712,1595.500,-561.240,385.780
712,55947.267000,195.304,75.889,-245.127,33.295,-181.668,-489.192,1626.500,-600.240,583.780
713,55947.291000,191.388,72.854,-237.220,46.961,-189.538,-483.518,1645.500,-938.240,650.780
714,55947.332000,185.514,66.783,-210.533,66.555,-214.880,-472.022,1652.500,-1447.240,664.780
715,55947.351000,137.545,66.783,-186.811,88.042,-227.661,-463.527,1658.500,-1504.240,680.780
716,55947.355000,108.176,52.617,-160.124,103.661,-253.939,-448.021,1649.500,-1233.240,769.780
717,55947.372000,109.155,28.332,-136.402,120.144,-273.456,-429.585,1567.500,-1020.240,856.780
718,55947.391000,112.092,4.047,-119.598,125.110,-287.047,-426.704,1424.500,-1091.240,931.780
719,55947.414000,108.176,0.000,-107.737,130.734,-305.505,-403.155,1256.500,-1240.240,988.780
720,55947.436000,101.323,-11.130,-85.992,139.579,-319.134,-398.373,1075.500,-1349.240,1055.780
721,55947.456000,74.891,-21.249,-79.073,139.394,-342.374,-375.700,910.500,-1291.240,1159.780
722,55947.479000,64.122,-33.391,-69.189,129.587,-354.869,-367.637,749.500,-1133.240,1246.780
723,55947.496000,53.354,-40.474,-59.305,121.607,-372.228,-349.755,588.500,-963.240,1345.780
724,55947.514000,37.690,-57.676,-56.340,119.637,-385.762,-341.829,492.500,-862.240,1377.780
725,55947.536000,36.711,-57.676,-54.363,103.810,-393.373,-327.757,298.500,-783.240,1400.780
726,55947.556000,17.132,-58.688,-55.351,85.109,-405.792,-314.614,86.500,-759.240,1428.780
727,55947.579000,11.258,-63.747,-58.317,75.370,-414.412,-312.463,-151.500,-731.240,1447.780
728,55947.599000,8.321,-56.664,-69.189,54.598,-421.981,-295.351,-373.500,-747.240,1456.780
729,55947.621000,-10.279,-43.510,-85.004,35.038,-424.706,-294.017,-569.500,-651.240,1465.780
730,55947.644000,-31.816,-21.249,-96.865,11.460,-429.338,-285.719,-752.500,-451.240,1452.780
731,55947.666000,-52.375,-2.024,-113.668,-5.148,-430.153,-286.408,-927.500,-246.240,1432.780
732,55947.681000,-56.291,11.130,-122.564,-31.636,-429.916,-282.002,-1009.500,-60.240,1414.780
733,55947.699000,-50.417,26.308,-135.413,-63.912,-419.943,-287.349,-1188.500,329.760,1405.780
734,55947.712000,-44.543,43.510,-168.031,-85.500,-416.847,-285.002,-1374.500,493.760,1389.780
735,55947.740000,-51.396,67.794,-187.799,-119.793,-407.827,-286.375,-1476.500,253.760,1369.780
736,55947.759000,-66.080,94.103,-195.707,-135.554,-401.883,-283.150,-1533.500,129.760,1314.780
737,55947.806000,-70.975,124.459,-237.220,-162.980,-392.924,-285.628,-1596.500,335.760,1326.780
738,55947.821000,-33.774,162.909,-276.757,-180.793,-386.000,-277.446,-1553.500,749.760,1403.780
739,55947.830000,-24.964,184.158,-299.490,-211.166,-366.369,-284.807,-1443.500,996.760,1446.780
740,55947.855000,-23.985,187.194,-346.934,-244.509,-344.776,-291.133,-1287.500,1221.760,1592.780
741,55947.872000,3.426,205.407,-374.610,-260.335,-324.318,-291.862,-1188.500,1377.760,1665.780
742,55947.890000,23.985,209.455,-412.170,-283.903,-299.911,-299.349,-916.500,1455.760,1864.780
743,55947.912000,43.564,211.478,-423.042,-294.844,-280.465,-299.178,-624.500,1285.760,2034.780
744,55947.929000,33.774,209.455,-451.707,-317.469,-252.198,-306.687,-350.500,955.760,2141.780
745,55947.956000,16.153,214.514,-480.371,-331.266,-239.496,-307.442,-43.500,665.760,2246.780
746,55947.979000,-7.342,216.538,-480.371,-346.002,-212.265,-318.042,340.500,626.760,2304.780
747,55947.994000,-29.859,203.383,-480.371,-339.334,-179.428,-325.090,727.500,899.760,2348.780
748,55948.16000,-12.237,181.123,-475.429,-349.098,-162.884,-334.781,1024.500,1089.760,2309.780
749,55948.29000,-1.468,164.933,-451.707,-346.205,-131.940,-348.650,1247.500,922.760,2152.780
750,55948.47000,-16.153,144.696,-430.950,-337.289,-117.495,-362.607,1352.500,843.760,2044.780
751,55948.75000,-40.627,126.482,-401.297,-326.447,-88.552,-382.522,1560.500,1014.760,1846.780
752,55948.97000,-20.069,104.221,-358.795,-323.472,-72.122,-393.423,1739.500,1350.760,1613.780
753,55948.112000,4.405,97.138,-313.328,-296.878,-46.219,-417.551,1886.500,1382.760,1347.780
754,55948.130000,10.279,89.043,-282.687,-287.048,-19.204,-434.492,1997.500,1179.760,1100.780
755,55948.160000,12.237,78.925,-251.058,-257.592,-9.786,-445.853,2064.500,1013.760,881.780
756,55948.180000,1.468,73.866,-216.463,-222.275,6.353,-460.279,2110.500,1009.760,684.780
757,55948.197000,-6.363,57.676,-186.811,-215.403,16.939,-467.305,2083.500,994.760,484.780
758,55948.235000,-0.489,41.486,-153.205,-178.085,30.160,-482.747,1971.500,723.760,215.780
759,55948.264000,-0.489,25.296,-122.564,-169.288,34.918,-484.877,1895.500,521.760,62.780
760,55948.266000,1.468,11.130,-105.761,-140.766,37.572,-495.229,1674.500,103.760,-253.220
761,55948.282000,-9.300,7.083,-101.807,-130.849,30.716,-499.335,1455.500,-251.240,-552.220
762,55948.303000,-32.795,3.036,-88.958,-111.236,27.636,-500.663,1282.500,-210.240,-804.220
763,55948.329000,-37.690,-3.036,-73.143,-93.432,25.551,-510.820,1141.500,52.760,-1036.220
764,55948.345000,-26.922,-13.154,-46.456,-83.752,29.328,-507.058,1014.500,281.760,-1277.220
765,55948.360000,-0.489,-20.237,-20.757,-68.071,32.091,-510.292,843.500,321.760,-1527.220
766,55948.377000,23.006,-24.285,-6.919,-69.103,37.904,-510.280,627.500,156.760,-1755.220
767,55948.400000,40.627,-32.379,-6.919,-64.139,32.056,-511.346,369.500,28.760,-1958.220
768,55948.414000,48.459,-32.379,-12.849,-64.105,32.058,-513.315,237.500,-144.240,-2047.220
769,55948.439000,58.249,-26.308,-31.629,-64.103,26.251,-510.355,-11.500,-184.240,-2205.220
770,55948.459000,64.122,-12.142,-58.317,-65.022,29.167,-515.264,-180.500,-187.240,-2331.220
771,55948.500000,83.702,-18.213,-68.201,-71.817,19.553,-513.164,-351.500,-372.240,-2482.220
772,55948.546000,110.134,0.000,-96.865,-81.486,7.066,-512.978,-541.500,-811.240,-2635.220
773,55948.548000,112.092,41.486,-158.147,-83.379,-9.367,-508.003,-609.500,-1006.240,-2687.220
774,55948.556000,93.491,54.640,-193.730,-92.069,-21.863,-507.835,-665.500,-758.240,-2662.220
775,55948.562000,121.881,72.854,-205.591,-99.887,-26.631,-505.722,-716.500,-798.240,-2710.220
776,55948.587000,179.641,100.174,-229.313,-112.445,-53.608,-500.546,-735.500,-1066.240,-2738.220
777,55948.609000,176.704,120.411,-284.664,-116.171,-79.695,-497.496,-709.500,-1426.240,-2655.220
778,55948.627000,138.524,135.589,-341.004,-116.187,-83.568,-494.538,-568.500,-747.240,-2327.220
779,55948.650000,161.040,144.696,-371.645,-119.140,-81.606,-494.488,-359.500,229.760,-1949.220
780,55948.667000,225.652,137.613,-381.529,-116.082,-87.433,-498.473,-124.500,284.760,-1665.220
781,55948.681000,256.979,137.613,-379.552,-110.263,-87.490,-495.623,69.500,-172.240,-1559.220
782,55948.700000,263.832,140.648,-380.541,-106.331,-93.332,-493.717,259.500,-601.240,-1480.220
783,55948.743000,216.841,131.542,-391.413,-98.361,-105.010,-495.813,477.500,-573.240,-1302.220
784,55948.758000,222.715,133.565,-369.668,-81.656,-110.964,-497.086,726.500,-37.240,-1051.220
785,55948.774000,265.790,121.423,-334.085,-69.872,-106.229,-502.222,834.500,209.760,-949.220
786,55948.792000,297.117,99.162,-299.490,-43.418,-108.403,-503.672,1009.500,205.760,-810.220
787,55948.815000,292.222,86.008,-280.710,-43.373,-113.240,-503.667,1099.500,-406.240,-690.220
788,55948.836000,304.948,84.996,-256.988,-18.828,-133.784,-498.171,1129.500,-1029.240,-547.220
789,55948.854000,292.222,67.794,-231.290,-8.875,-148.382,-500.299,1128.500,-1757.240,-448.220
790,55948.879000,250.126,55.652,-240.185,12.748,-185.353,-486.856,1105.500,-2465.240,-366.220
791,55948.904000,205.094,63.747,-253.035,25.465,-207.731,-475.241,1131.500,-2581.240,-181.220
792,55948.924000,172.788,48.569,-235.243,45.052,-241.784,-458.812,1202.500,-2075.240,122.780
793,55948.941000,160.061,45.534,-230.301,64.639,-273.902,-443.370,1259.500,-1616.240,389.780
794,55948.964000,144.398,39.462,-208.556,65.542,-282.626,-434.515,1287.500,-1462.240,503.780
795,55948.986000,123.839,26.308,-189.776,81.107,-301.164,-420.002,1319.500,-1224.240,723.780
796,55949.1000,111.113,11.130,-170.008,89.855,-309.959,-412.271,1326.500,-941.240,920.780
797,55949.24000,101.323,4.047,-151.228,97.567,-329.394,-395.649,1271.500,-767.240,1070.780
798,55949.32000,92.512,-3.036,-129.483,93.654,-333.230,-393.606,1186.500,-700.240,1202.780
799,55949.65000,69.996,-16.190,-113.668,95.528,-348.739,-380.823,1095.500,-563.240,1345.780
800,55949.87000,55.312,-32.379,-94.888,90.595,-357.408,-373.835,961.500,-253.240,1487.780
801,55949.122000,46.501,-48.569,-85.004,90.631,-365.149,-371.858,760.500,30.760,1650.780
802,55949.150000,48.459,-50.593,-84.015,75.894,-365.987,-367.658,641.500,97.760,1764.780
803,55949.150000,41.606,-53.628,-68.201,67.141,-371.712,-367.496,427.500,17.760,1782.780
804,55949.172000,9.300,-62.735,-50.409,51.486,-377.377,-364.259,220.500,-183.240,1734.780
805,55949.185000,-18.111,-65.771,-52.386,35.700,-376.274,-357.090,-37.500,-311.240,1631.780
806,55949.210000,-15.174,-64.759,-54.363,10.322,-382.814,-356.634,-319.500,-358.240,1479.780
807,55949.235000,-17.132,-55.652,-66.224,-13.290,-389.383,-345.379,-619.500,-501.240,1305.780
808,55949.255000,-21.048,-33.391,-89.946,-19.229,-393.205,-339.363,-873.500,-589.240,1170.780
809,55949.275000,-21.048,-19.225,-95.876,-51.615,-391.949,-333.869,-1097.500,-574.240,1092.780
810,55949.296000,-11.258,2.024,-95.876,-68.351,-399.547,-323.720,-1327.500,-531.240,1014.780
811,55949.314000,-4.405,27.320,-102.795,-94.908,-401.250,-314.388,-1440.500,-536.240,990.780
812,55949.330000,4.405,39.462,-127.506,-106.824,-399.217,-305.319,-1613.500,-768.240,991.780
813,55949.347000,-2.447,79.937,-167.042,-143.363,-407.618,-281.036,-1713.500,-1112.240,997.780
814,55949.361000,-46.501,115.352,-202.625,-149.538,-402.743,-266.166,-1707.500,-906.240,1127.780
815,55949.389000,-74.891,129.518,-224.371,-185.811,-402.417,-261.586,-1628.500,-107.240,1352.780
816,55949.411000,-51.396,145.708,-237.220,-213.439,-384.759,-257.180,-1506.500,476.760,1467.780
817,55949.439000,-16.153,168.980,-269.838,-234.032,-377.799,-257.809,-1370.500,462.760,1502.780
818,55949.471000,-8.321,187.194,-310.363,-261.727,-364.016,-247.490,-1222.500,169.760,1586.780
819,55949.485000,-22.027,199.336,-350.888,-272.674,-355.217,-241.400,-1052.500,-33.240,1701.780
820,55949.499000,-35.732,222.609,-374.610,-301.411,-334.654,-231.071,-920.500,-103.240,1765.780
821,55949.521000,-56.291,235.763,-393.390,-313.205,-330.678,-229.883,-601.500,-100.240,1947.780
822,55949.541000,-80.765,237.787,-426.996,-333.066,-308.255,-224.635,-221.500,7.760,2120.780
823,55949.561000,-76.849,240.822,-451.707,-349.904,-289.725,-222.390,156.500,12.760,2178.780
824,55949.586000,-86.639,246.893,-447.753,-364.637,-276.044,-226.083,530.500,-29.240,2218.780
825,55949.604000,-88.597,242.846,-426.996,-375.501,-253.690,-231.824,885.500,-35.240,2204.780
826,55949.626000,-100.344,234.751,-416.124,-375.435,-242.071,-241.683,1215.500,-36.240,2102.780
827,55949.646000,-139.503,217.549,-404.263,-378.272,-222.681,-257.407,1471.500,225.760,1937.780
828,55949.661000,-133.629,184.158,-396.355,-379.140,-213.955,-268.231,1672.500,347.760,1654.780
829,55949.679000,-144.398,168.980,-370.656,-372.053,-196.581,-291.019,1765.500,526.760,1496.780
830,55949.697000,-157.124,142.672,-343.969,-361.935,-178.261,-319.769,1932.500,724.760,1152.780
831,55949.720000,-165.935,112.316,-312.340,-352.032,-166.729,-332.755,1990.500,1082.760,847.780
832,55949.742000,-139.503,90.055,-294.548,-331.168,-150.443,-359.724,1943.500,1280.760,563.780
833,55949.760000,-104.260,97.138,-280.710,-317.350,-142.818,-370.806,1910.500,1125.760,256.780
834,55949.787000,-82.723,90.055,-258.965,-297.418,-137.168,-394.792,1864.500,827.760,-43.220
835,55949.805000,-79.786,87.020,-229.313,-291.445,-129.473,-404.752,1829.500,785.760,-287.220
836,55949.827000,-94.470,87.020,-203.614,-261.860,-119.079,-423.992,1791.500,1086.760,-421.220
837,55949.852000,-76.849,69.818,-173.961,-240.181,-103.780,-441.129,1748.500,1232.760,-465.220
838,55949.884000,-20.069,59.700,-125.529,-221.427,-99.100,-453.280,1617.500,1302.760,-543.220
839,55949.890000,-4.405,51.605,-109.714,-198.838,-85.750,-465.508,1496.500,1121.760,-645.220
840,55949.913000,-9.300,29.344,-92.911,-190.977,-81.947,-469.590,1391.500,780.760,-763.220
841,55949.945000,-11.258,8.095,-79.073,-166.333,-79.256,-481.842,1269.500,551.760,-943.220
842,55949.964000,-24.964,-6.071,-77.097,-158.533,-72.553,-483.957,1120.500,409.760,-1156.220
843,55949.983000,-22.027,-8.095,-70.178,-138.834,-69.820,-493.169,917.500,496.760,-1342.220
844,55949.991000,-1.468,-5.059,-66.224,-129.112,-61.202,-494.336,721.500,671.760,-1538.220
845,55950.5000,2.447,-14.166,-62.270,-114.306,-58.424,-503.461,534.500,758.760,-1722.220
846,55950.24000,15.174,-17.202,-53.375,-103.736,-44.982,-499.726,431.500,811.760,-1816.220
847,55950.50000,42.585,-6.071,-51.398,-105.659,-41.091,-503.634,222.500,805.760,-2036.220
848,55950.71000,69.996,12.142,-77.097,-100.794,-38.233,-503.724,27.500,571.760,-2269.220
849,55950.90000,70.975,25.296,-92.911,-97.859,-36.324,-504.762,-123.500,239.760,-2471.220
850,55950.112000,65.101,37.439,-102.795,-103.747,-36.272,-503.674,-251.500,157.760,-2590.220
851,55950.135000,69.996,59.700,-124.541,-102.724,-39.182,-504.673,-345.500,303.760,-2642.220
852,55950.157000,84.681,75.889,-150.239,-104.778,-32.394,-502.676,-369.500,550.760,-2648.220
853,55950.175000,90.554,77.913,-153.205,-103.967,-19.830,-499.751,-388.500,866.760,-2636.220
854,55950.198000,131.671,101.186,-164.077,-105.890,-17.874,-502.673,-415.500,989.760,-2676.220
855,55950.220000,188.451,134.577,-182.857,-119.695,-8.077,-501.456,-394.500,843.760,-2721.220
856,55950.240000,180.620,141.660,-207.568,-115.781,-10.048,-500.538,-336.500,390.760,-2678.220
857,55950.262000,176.704,154.814,-231.290,-120.717,-7.102,-499.470,-293.500,359.760,-2506.220
858,55950.285000,206.073,175.051,-240.185,-126.615,-6.082,-498.382,-192.500,570.760,-2300.220
859,55950.302000,227.610,166.957,-250.069,-122.780,0.653,-497.473,-60.500,556.760,-2124.220
860,55950.320000,248.168,160.885,-271.815,-125.671,-4.157,-497.417,39.500,352.760,-1965.220
861,55950.349000,263.832,163.921,-286.641,-124.683,-7.070,-496.446,133.500,61.760,-1836.220
862,55950.357000,284.390,167.968,-291.583,-120.629,-12.905,-501.433,243.500,-270.240,-1789.220
863,55950.380000,286.348,168.980,-323.212,-117.675,-18.738,-499.510,308.500,-408.240,-1753.220
864,55950.422000,285.369,165.945,-333.097,-107.811,-25.598,-500.661,474.500,-311.240,-1681.220
865,55950.436000,330.402,155.826,-335.073,-102.893,-22.737,-503.705,649.500,-40.240,-1451.220
866,55950.445000,357.813,154.814,-318.270,-85.174,-30.634,-505.978,824.500,-81.240,-1163.220
867,55950.462000,365.644,139.636,-302.456,-74.271,-36.532,-511.086,982.500,-409.240,-820.220
868,55950.487000,337.254,130.530,-292.571,-57.549,-42.486,-513.344,1109.500,-656.240,-448.220
869,55950.511000,317.675,122.435,-274.780,-35.932,-56.227,-511.741,1217.500,-671.240,-97.220
870,55950.535000,324.528,110.292,-237.220,-21.131,-64.097,-514.947,1281.500,-1014.240,148.780
871,55950.551000,296.138,106.245,-231.290,-7.254,-87.441,-513.197,1341.500,-1379.240,362.780
872,55950.576000,254.042,94.103,-223.382,11.357,-97.288,-509.577,1370.500,-1332.240,479.780
873,55950.594000,241.315,77.913,-210.533,26.196,-118.706,-507.845,1401.500,-1122.240,692.780
874,55950.622000,251.105,68.806,-173.961,42.897,-143.051,-499.252,1412.500,-1161.240,869.780
875,55950.636000,227.610,52.617,-161.112,64.480,-158.730,-494.693,1380.500,-1448.240,1018.780
876,55950.651000,195.304,42.498,-161.112,77.285,-184.975,-486.029,1342.500,-1478.240,1156.780
877,55950.680000,181.598,34.403,-140.355,81.175,-195.659,-479.194,1286.500,-1405.240,1292.780
878,55950.699000,173.767,15.178,-119.598,88.942,-228.642,-458.619,1190.500,-1518.240,1365.780
879,55950.714000,162.019,7.083,-111.691,100.714,-243.266,-452.904,1073.500,-1721.240,1433.780
880,55950.735000,127.755,0.000,-106.749,106.551,-279.133,-432.292,950.500,-1709.240,1513.780
881,55950.751000,94.470,-6.071,-99.830,95.790,-290.650,-426.181,892.500,-1592.240,1555.780
882,55950.777000,74.891,-15.178,-91.923,92.784,-318.697,-407.390,769.500,-1266.240,1630.780
883,55950.795000,69.996,-34.403,-86.981,87.767,-337.049,-390.544,611.500,-1055.240,1652.780
884,55950.815000,67.059,-49.581,-87.969,76.946,-349.538,-380.494,415.500,-1104.240,1623.780
885,55950.863000,46.501,-41.486,-95.876,58.220,-364.863,-364.393,237.500,-1195.240,1595.780
886,55950.863000,23.006,-34.403,-90.934,57.271,-379.371,-358.453,70.500,-1088.240,1588.780
887,55950.876000,5.384,-34.403,-85.992,32.603,-386.903,-342.256,-111.500,-923.240,1575.780
888,55950.894000,-1.468,-28.332,-83.027,16.006,-396.429,-338.998,-299.500,-802.240,1573.780
889,55950.920000,-0.489,-22.261,-80.062,-8.620,-401.055,-326.744,-406.500,-776.240,1612.780
890,55950.944000,1.468,-14.166,-78.085,-40.110,-411.427,-310.423,-653.500,-833.240,1642.780
891,55950.960000,-52.375,35.415,-128.494,-49.002,-415.224,-303.370,-833.500,-1088.240,1660.780
892,55950.980000,-86.639,50.593,-141.344,-84.547,-419.761,-282.062,-905.500,-1209.240,1614.780
893,55951.3000,-111.113,63.747,-155.181,-94.373,-428.385,-274.987,-977.500,-1053.240,1516.780
894,55951.15000,-117.966,80.949,-166.054,-123.061,-424.273,-258.733,-1063.500,-641.240,1403.780
895,55951.43000,-106.218,87.020,-177.915,-136.813,-422.216,-256.523,-1134.500,-156.240,1390.780
896,55951.59000,-82.723,105.233,-196.695,-173.228,-408.348,-250.973,-1199.500,179.760,1394.780
897,55951.80000,-65.101,121.423,-214.486,-199.675,-401.334,-252.482,-1205.500,279.760,1352.780
898,55951.102000,-66.080,125.470,-236.232,-206.769,-391.607,-243.508,-1195.500,297.760,1326.780
899,55951.127000,-73.912,124.459,-260.942,-235.226,-380.706,-244.002,-1161.500,385.760,1301.780
900,55951.147000,-65.101,140.648,-288.618,-250.970,-372.825,-242.748,-1107.500,597.760,1279.780
901,55951.170000,-55.312,158.862,-323.212,-274.606,-354.230,-243.336,-988.500,832.760,1334.780
902,55951.205000,-45.522,175.051,-341.992,-285.468,-341.555,-244.143,-818.500,1024.760,1409.780
903,55951.219000,-27.901,180.111,-355.830,-301.180,-322.058,-250.779,-608.500,1051.760,1506.780
904,55951.244000,-15.174,183.146,-387.459,-320.885,-301.562,-253.408,-374.500,704.760,1567.780
905,55951.257000,-51.396,199.336,-418.100,-329.720,-292.772,-256.215,-115.500,413.760,1638.780
906,55951.280000,-79.786,201.360,-435.892,-341.588,-271.378,-259.968,199.500,582.760,1682.780
907,55951.304000,-72.933,187.194,-436.880,-350.415,-257.749,-265.735,353.500,715.760,1670.780
908,55951.319000,-60.207,175.051,-433.915,-355.297,-232.538,-279.460,597.500,759.760,1572.780
909,55951.337000,-69.996,182.134,-444.788,-350.397,-227.743,-282.506,857.500,673.760,1456.780
910,55951.346000,-89.576,185.170,-424.031,-351.199,-207.398,-303.189,1149.500,862.760,1370.780
911,55951.375000,-78.807,167.968,-393.390,-353.081,-194.793,-313.999,1418.500,1282.760,1318.780
912,55951.395000,-54.333,157.850,-359.784,-344.040,-163.887,-343.729,1593.500,1500.760,1243.780
913,55951.416000,-36.711,149.755,-326.178,-327.265,-141.768,-363.741,1717.500,1442.760,1140.780
914,55951.437000,-31.816,135.589,-291.583,-319.240,-131.182,-380.631,1793.500,1236.760,1007.780
915,55951.460000,-40.627,119.399,-259.954,-300.482,-108.111,-402.648,1842.500,1135.760,853.780
916,55951.469000,-51.396,98.150,-235.243,-289.635,-98.526,-412.696,1856.500,1087.760,767.780
917,55951.490000,-50.417,80.949,-212.510,-264.051,-80.359,-430.890,1843.500,1193.760,576.780
918,55951.516000,-38.669,72.854,-193.730,-258.132,-66.859,-440.855,1814.500,1168.760,372.780
919,55951.542000,-39.648,66.783,-174.950,-231.613,-49.671,-456.111,1807.500,1151.760,174.780
920,55951.557000,-48.459,53.628,-155.181,-205.131,-26.678,-472.357,1796.500,1232.760,-20.220
921,55951.587000,-51.396,41.486,-129.483,-188.464,-17.148,-479.555,1764.500,1390.760,-208.220
922,55951.599000,-32.795,24.285,-110.703,-158.170,-0.004,-487.002,1701.500,1482.760,-422.220
923,55951.621000,-13.216,4.047,-97.853,-153.246,13.504,-495.965,1578.500,1389.760,-685.220
924,55951.644000,5.384,5.059,-88.958,-127.958,33.590,-498.405,1502.500,1292.760,-823.220
925,55951.668000,19.090,-1.012,-67.212,-120.141,42.229,-502.491,1361.500,1055.760,-1094.220
926,55951.695000,33.774,-1.012,-57.328,-100.643,51.726,-503.832,1181.500,839.760,-1322.220
927,55951.709000,42.585,-1.012,-64.247,-89.969,63.238,-505.018,1003.500,700.760,-1519.220
928,55951.729000,59.228,-8.095,-55.351,-79.268,69.912,-505.216,784.500,605.760,-1724.220
929,55951.746000,73.912,-8.095,-52.386,-72.410,72.754,-507.309,536.500,402.760,-1937.220
930,55951.764000,91.533,-3.036,-61.282,-79.312,72.814,-504.234,315.500,102.760,-2165.220
931,55951.787000,101.323,6.071,-69.189,-81.199,70.900,-507.151,157.500,-246.240,-2370.220
932,55951.808000,101.323,21.249,-79.073,-77.283,65.057,-504.260,15.500,-436.240,-2551.220
933,55951.835000,120.902,22.261,-86.981,-84.918,53.524,-509.034,-64.500,-508.240,-2644.220
934,55951.857000,147.335,39.462,-114.656,-93.598,32.317,-504.918,-209.500,-771.240,-2851.220
935,55951.885000,144.398,62.735,-157.158,-95.396,18.793,-506.839,-277.500,-1032.240,-2968.220
936,55951.896000,138.524,77.913,-183.846,-106.008,4.381,-507.619,-329.500,-948.240,-2970.220
937,55951.916000,170.830,114.340,-222.394,-104.976,-3.368,-506.644,-271.500,-689.240,-2872.220
938,55951.931000,198.241,133.565,-271.815,-106.782,-17.860,-507.579,-117.500,-406.240,-2705.220
939,55951.959000,230.547,143.684,-303.444,-103.845,-23.694,-504.671,32.500,-193.240,-2448.220
940,55951.971000,263.832,146.719,-311.351,-98.874,-26.638,-507.709,154.500,-126.240,-2132.220
941,55951.999000,311.801,136.601,-340.015,-100.831,-28.556,-506.688,274.500,-223.240,-1846.220
942,55952.26000,332.359,137.613,-350.888,-95.770,-43.110,-508.729,354.500,-586.240,-1689.220
943,55952.41000,317.675,133.565,-339.027,-81.973,-55.812,-507.974,534.500,-719.240,-1335.220
944,55952.59000,298.096,126.482,-345.946,-74.983,-63.609,-512.026,701.500,-604.240,-1043.220
945,55952.81000,299.075,116.364,-317.282,-61.265,-71.476,-509.306,847.500,-701.240,-869.220
946,55952.101000,267.748,106.245,-305.421,-50.377,-85.117,-509.483,969.500,-982.240,-703.220
947,55952.121000,259.916,95.115,-288.618,-24.794,-98.891,-510.904,1079.500,-848.240,-453.220
948,55952.149000,287.327,81.960,-263.907,-16.887,-105.733,-512.020,1166.500,-752.240,-212.220
949,55952.167000,272.642,76.901,-247.104,2.765,-120.425,-509.397,1223.500,-1103.240,18.780
950,55952.181000,235.442,66.783,-235.243,25.276,-143.859,-497.955,1250.500,-1231.240,144.780
951,55952.204000,222.715,48.569,-222.394,37.107,-153.640,-498.153,1285.500,-1143.240,404.780
952,55952.232000,217.820,42.498,-198.672,59.651,-173.201,-490.653,1297.500,-1057.240,584.780
953,55952.242000,198.241,27.320,-177.915,63.586,-184.850,-485.787,1296.500,-1191.240,693.780
954,55952.265000,184.535,22.261,-166.054,79.283,-210.156,-475.206,1272.500,-1295.240,760.780
955,55952.277000,159.082,14.166,-160.124,85.157,-221.824,-469.389,1230.500,-1287.240,877.780
956,55952.300000,147.335,5.059,-142.332,99.736,-243.257,-452.887,1161.500,-1066.240,1025.780
957,55952.326000,133.629,-9.107,-121.575,111.526,-263.687,-445.196,1070.500,-843.240,1186.780
958,55952.340000,127.755,-20.237,-100.819,112.437,-269.507,-438.314,934.500,-717.240,1323.780
959,55952.360000,116.008,-24.285,-92.911,112.398,-287.899,-426.478,855.500,-709.240,1391.780
960,55952.382000,98.386,-30.356,-80.062,103.595,-299.434,-420.402,703.500,-728.240,1525.780
961,55952.404000,77.828,-37.439,-76.108,95.701,-314.853,-408.431,550.500,-752.240,1620.780
962,55952.425000,59.228,-52.617,-68.201,93.773,-323.545,-405.433,397.500,-690.240,1679.780
963,55952.472000,45.522,-65.771,-62.270,78.025,-337.926,-392.340,180.500,-668.240,1653.780
964,55952.486000,35.732,-58.688,-67.212,64.365,-353.286,-386.174,-68.500,-793.240,1574.780
965,55952.490000,19.090,-61.723,-64.247,44.719,-361.823,-376.956,-291.500,-900.240,1494.780
966,55952.519000,-2.447,-65.771,-62.270,20.191,-375.155,-365.677,-545.500,-891.240,1394.780
967,55952.533000,0.489,-50.593,-76.108,8.364,-378.925,-358.572,-807.500,-896.240,1286.780
968,55952.561000,-14.195,-22.261,-92.911,-19.204,-388.364,-343.307,-901.500,-942.240,1249.780
969,55952.575000,-23.985,-5.059,-106.749,-28.036,-393.125,-339.207,-1042.500,-836.240,1206.780
970,55952.598000,-31.816,10.119,-111.691,-57.476,-396.735,-331.791,-1170.500,-508.240,1181.780
971,55952.613000,-31.816,29.344,-127.506,-75.220,-391.742,-326.561,-1309.500,-206.240,1196.780
972,55952.630000,-20.069,54.640,-147.274,-105.754,-384.703,-318.153,-1406.500,-102.240,1225.780
973,55952.657000,-21.048,70.830,-166.054,-140.131,-383.431,-310.655,-1509.500,-142.240,1257.780
974,55952.675000,-29.859,103.209,-188.788,-150.003,-379.475,-307.532,-1589.500,-30.240,1308.780
975,55952.698000,-34.753,133.565,-217.452,-186.418,-367.543,-300.995,-1569.500,201.760,1445.780
976,55952.717000,-27.901,149.755,-242.162,-206.136,-362.534,-294.745,-1545.500,313.760,1585.780
977,55952.735000,-9.300,161.897,-277.745,-238.577,-349.666,-292.217,-1473.500,370.760,1632.780
978,55952.752000,-21.048,182.134,-308.386,-249.585,-339.903,-283.174,-1362.500,355.760,1745.780
979,55952.775000,-16.153,195.289,-350.888,-286.999,-314.412,-282.542,-1143.500,399.760,1871.780
980,55952.792000,-27.901,198.324,-398.332,-310.782,-294.857,-275.253,-875.500,400.760,1962.780
981,55952.819000,-40.627,194.277,-461.591,-317.694,-286.087,-276.125,-571.500,363.760,1986.780
982,55952.876000,-46.501,206.419,-480.371,-335.554,-264.647,-272.881,-211.500,326.760,1953.780
983,55952.876000,-55.312,208.443,-480.371,-350.339,-250.969,-273.620,189.500,263.760,1924.780
984,55952.895000,-93.491,209.455,-480.371,-358.190,-229.605,-283.350,574.500,494.760,1877.780
985,55952.912000,-90.554,203.383,-480.371,-352.269,-221.913,-290.355,760.500,659.760,1827.780
986,55952.922000,-71.954,196.300,-480.371,-357.116,-196.700,-306.050,1106.500,788.760,1683.780
987,55952.940000,-77.828,189.217,-466.533,-349.146,-178.373,-323.933,1421.500,651.760,1486.780
988,55952.966000,-94.470,181.123,-434.903,-346.074,-168.713,-336.796,1707.500,660.760,1276.780
989,55952.984000,-113.071,165.945,-387.459,-328.189,-149.500,-362.731,1925.500,1080.760,1079.780
990,55953.1000,-95.449,147.731,-335.073,-321.206,-132.132,-379.611,2057.500,1416.760,892.780
991,55953.29000,-68.038,136.601,-285.652,-295.572,-108.155,-403.719,2135.500,1410.760,692.780
992,55953.44000,-57.270,128.506,-237.220,-277.840,-100.565,-414.871,2165.500,1282.760,486.780
993,55953.66000,-49.438,107.257,-194.718,-254.074,-88.180,-437.948,2142.500,1108.760,270.780
994,55953.89000,-47.480,91.067,-159.135,-472.050,-65.857,-457.745,2109.500,1040.760,159.780
995,55953.106000,-47.480,69.818,-122.564,-207.832,-61.483,-467.347,1992.500,940.760,-63.220
996,55953.127000,-41.606,51.605,-102.795,-185.209,-50.066,-480.558,1810.500,853.760,-289.220
997,55953.150000,-28.880,42.498,-88.958,-165.649,-45.405,-482.879,1618.500,747.760,-509.220
998,55953.176000,-29.859,31.368,-86.981,-148.975,-32.971,-492.048,1428.500,736.760,-681.220
999,55953.196000,-16.153,-24.285,-74.131,-138.247,-29.199,-492.243,1223.500,817.760,-872.220
1000,55953.219000,11.258,-23.273,-71.166,-119.632,-18.720,-499.475,998.500,595.760,-1119.220
