Sample, Time, ACCX, ACCY, ACCZ, MAGX, MAGY, MAGZ, GYRX, GYRY, GYRZ
0,55872.941000,-4.405,27.320,-243.151,-2.075,-329.446,-402.746,-6.500,-9.240,-13.220
1,55872.964000,-6.363,26.308,-242.162,-2.152,-330.418,-397.821,-7.500,-2.240,-13.220
2,55872.986000,-4.405,25.296,-241.174,-1.105,-328.487,-402.764,-7.500,-0.240,-14.220
3,55873.4000,-3.426,25.296,-243.151,2.784,-331.428,-399.876,-11.500,-7.240,-9.220
4,55873.25000,-6.363,25.296,-242.162,2.819,-333.362,-400.859,-11.500,-7.240,-8.220
5,55873.46000,-6.363,27.320,-243.151,5.693,-332.424,-397.958,-7.500,1.760,-8.220
6,55873.80000,-4.405,25.296,-243.151,5.684,-329.521,-398.945,-9.500,-0.240,-9.220
7,55873.98000,-3.426,26.308,-241.174,4.731,-328.542,-400.899,-14.500,-9.240,-11.220
8,55873.120000,-5.384,26.308,-241.174,0.826,-329.474,-400.828,-18.500,-6.240,-6.220
9,55873.139000,-4.405,26.308,-243.151,4.723,-329.511,-399.913,-19.500,-6.240,-9.220
10,55873.165000,-4.405,27.320,-245.127,8.655,-331.481,-399.980,-20.500,-9.240,-11.220
11,55873.179000,-6.363,26.308,-244.139,4.828,-333.376,-403.848,-23.500,-13.240,-11.220
12,55873.200000,-6.363,25.296,-245.127,0.827,-331.410,-399.842,-21.500,-15.240,-11.220
13,55873.235000,-8.321,28.332,-245.127,0.783,-330.444,-397.873,-22.500,-11.240,-11.220
14,55873.238000,-7.342,26.308,-246.116,-1.139,-330.425,-399.808,-17.500,-11.240,-10.220
15,55873.259000,-6.363,26.308,-248.093,3.823,-332.401,-402.847,-13.500,-2.240,-8.220
16,55873.285000,-6.363,29.344,-247.104,8.620,-333.419,-397.024,-12.500,-8.240,-11.220
17,55873.305000,-8.321,27.320,-245.127,5.763,-332.420,-401.897,-5.500,-11.240,-12.220
18,55873.325000,-7.342,27.320,-246.116,0.826,-329.474,-400.828,-3.500,8.760,-13.220
19,55873.345000,-4.405,26.308,-245.127,-2.171,-326.547,-398.810,-3.500,9.760,-11.220
20,55873.360000,-6.363,27.320,-244.139,-1.121,-332.360,-399.806,-6.500,-8.240,-9.220
21,55873.383000,-8.321,27.320,-244.139,9.667,-329.552,-402.954,-6.500,-11.240,-10.220
22,55873.409000,-5.384,27.320,-245.127,-0.135,-331.400,-400.809,-4.500,-3.240,-14.220
23,55873.427000,-7.342,28.332,-245.127,-0.144,-328.497,-401.797,-0.500,-13.240,-15.220
24,55873.443000,-8.321,27.320,-244.139,2.810,-332.394,-400.860,1.500,1.760,-9.220
25,55873.463000,-6.363,28.332,-244.139,7.685,-330.504,-400.949,2.500,5.760,-9.220
26,55873.484000,-7.342,29.344,-241.174,3.735,-326.599,-400.883,0.500,-3.240,-10.220
27,55873.511000,-5.384,27.320,-241.174,2.748,-325.622,-400.867,-1.500,-3.240,-7.220
28,55873.525000,-6.363,28.332,-241.174,8.706,-329.542,-403.921,-3.500,-4.240,-6.220
29,55873.544000,-7.342,29.344,-239.197,5.710,-330.487,-399.929,-5.500,-6.240,-5.220
30,55873.570000,-7.342,28.332,-240.185,4.741,-331.446,-399.911,-4.500,-2.240,-6.220
31,55873.588000,-6.363,28.332,-242.162,-1.157,-328.490,-399.810,-7.500,-6.240,-8.220
32,55873.608000,-7.342,27.320,-241.174,5.710,-328.551,-400.916,-12.500,-12.240,-7.220
33,55873.640000,-8.321,28.332,-241.174,5.745,-330.485,-401.899,-16.500,-2.240,-7.220
34,55873.655000,-6.363,27.320,-241.174,0.783,-328.509,-398.860,-20.500,-5.240,-9.220
35,55873.670000,-7.342,27.320,-243.151,3.728,-331.439,-397.924,-23.500,-17.240,-12.220
36,55873.693000,-6.363,28.332,-241.174,3.718,-328.535,-398.912,-24.500,-16.240,-16.220
37,55873.711000,-9.300,29.344,-241.174,3.710,-329.504,-397.926,-24.500,-8.240,-18.220
38,55873.734000,-7.342,27.320,-242.162,3.719,-330.471,-397.925,-27.500,7.760,-14.220
39,55873.757000,-4.405,29.344,-243.151,1.840,-331.417,-401.829,-28.500,0.760,-14.220
40,55873.774000,-6.363,28.332,-243.151,0.835,-330.442,-400.828,-31.500,-10.240,-13.220
41,55873.798000,-6.363,29.344,-245.127,-1.165,-331.394,-397.838,-28.500,-16.240,-15.220
42,55873.815000,-8.321,28.332,-245.127,5.702,-331.455,-398.944,-27.500,-8.240,-14.220
43,55873.838000,-8.321,29.344,-245.127,5.711,-334.359,-397.956,-25.500,3.760,-11.220
44,55873.860000,-6.363,29.344,-243.151,3.762,-331.437,-399.894,-21.500,7.760,-7.220
45,55873.874000,-5.384,30.356,-244.139,1.779,-330.452,-398.875,-19.500,3.760,-8.220
46,55873.888000,-6.363,29.344,-244.139,-3.131,-330.409,-397.804,-17.500,-5.240,-10.220
47,55873.913000,-6.363,30.356,-243.151,2.836,-331.425,-402.831,-19.500,11.760,-6.220
48,55873.931000,-5.384,31.368,-244.139,-3.071,-329.438,-401.744,-17.500,10.760,-5.220
49,55873.974000,-5.384,30.356,-244.139,-0.195,-330.436,-397.856,-18.500,0.760,-6.220
50,55873.989000,-7.342,31.368,-245.127,-1.078,-331.389,-402.761,-14.500,5.760,-7.220
51,55874.3000,-8.321,32.379,-244.139,3.754,-332.405,-398.908,-7.500,18.760,-4.220
52,55874.25000,-4.405,31.368,-244.139,1.874,-329.479,-404.785,-5.500,17.760,-3.220
53,55874.38000,-3.426,32.379,-244.139,-1.122,-328.488,-401.780,-8.500,-2.240,1.780
54,55874.64000,-5.384,31.368,-244.139,4.758,-331.445,-400.896,-7.500,-8.240,3.780
55,55874.90000,-5.384,31.368,-244.139,-3.131,-328.473,-398.791,-5.500,-9.240,7.780
56,55874.108000,-5.384,31.368,-243.151,-0.092,-328.494,-404.751,-2.500,-0.240,5.780
57,55874.125000,-7.342,32.379,-243.151,1.813,-328.515,-401.832,1.500,11.760,8.780
58,55874.149000,-4.405,31.368,-241.174,-0.092,-330.430,-403.764,-1.500,12.760,8.780
59,55874.168000,-4.405,31.368,-242.162,0.827,-331.410,-399.842,-5.500,-1.240,5.780
60,55874.185000,-7.342,31.368,-240.185,-1.157,-328.490,-399.810,-8.500,-4.240,2.780
61,55874.224000,-7.342,32.379,-242.162,-4.076,-326.526,-401.730,-7.500,-1.240,4.780
62,55874.227000,-7.342,31.368,-241.174,-1.175,-326.555,-399.812,-8.500,2.760,4.780
63,55874.248000,-7.342,32.379,-241.174,-0.092,-328.494,-404.751,-7.500,11.760,5.780
64,55874.270000,-7.342,32.379,-241.174,-0.187,-329.467,-398.842,-12.500,5.760,2.780
65,55874.298000,-9.300,33.391,-243.151,-0.074,-330.429,-404.749,-15.500,-8.240,-3.220
66,55874.318000,-9.300,32.379,-243.151,-4.049,-331.364,-400.740,-13.500,6.760,-7.220
67,55874.336000,-6.363,31.368,-244.139,-4.058,-326.525,-402.714,-10.500,24.760,-10.220
68,55874.350000,-5.384,30.356,-244.139,-0.144,-326.561,-402.784,-16.500,10.760,-10.220
69,55874.373000,-7.342,34.403,-244.139,0.922,-330.437,-405.751,-16.500,-16.240,-13.220
70,55874.398000,-9.300,34.403,-244.139,-1.114,-327.520,-402.765,-10.500,-13.240,-14.220
71,55874.419000,-8.321,34.403,-246.116,-6.976,-328.434,-402.661,-7.500,-7.240,-13.220
72,55874.441000,-7.342,33.391,-246.116,-4.128,-326.529,-398.775,-4.500,-2.240,-12.220
73,55874.455000,-10.279,32.379,-246.116,2.792,-330.459,-400.862,-4.500,-8.240,-13.220
74,55874.476000,-8.321,32.379,-247.104,-0.180,-324.627,-401.801,-0.500,-0.240,-18.220
75,55874.503000,-8.321,33.391,-246.116,3.761,-325.629,-402.854,7.500,6.760,-25.220
76,55874.518000,-6.363,33.391,-246.116,-4.993,-327.482,-404.666,10.500,17.760,-27.220
77,55874.546000,-4.405,32.379,-246.116,0.826,-329.474,-400.828,13.500,13.760,-27.220
78,55874.566000,-4.405,31.368,-244.139,-2.136,-326.545,-400.780,14.500,0.760,-26.220
79,55874.582000,-5.384,32.379,-243.151,2.818,-329.490,-402.833,13.500,-7.240,-18.220
80,55874.603000,-5.384,33.391,-242.162,-1.088,-326.550,-404.736,16.500,-8.240,-18.220
81,55874.617000,-5.384,33.391,-241.174,6.801,-329.522,-406.841,19.500,-8.240,-15.220
82,55874.644000,-5.384,30.356,-240.185,3.821,-326.594,-405.807,17.500,5.760,-10.220
83,55874.663000,-3.426,30.356,-241.174,2.809,-328.523,-402.834,8.500,9.760,-6.220
84,55874.695000,-4.405,31.368,-240.185,5.772,-333.387,-401.896,4.500,-10.240,-11.220
85,55874.702000,-9.300,32.379,-241.174,6.644,-325.659,-399.951,7.500,-10.240,-16.220
86,55874.732000,140.482,23.273,-208.556,6.699,-335.335,-397.972,-189.500,-897.240,443.780
87,55874.749000,10.279,-15.178,-211.521,-9.099,-357.462,-377.978,-219.500,-1702.240,30.780
88,55874.769000,-124.818,2.024,-242.162,-7.237,-356.518,-373.089,-24.500,-1364.240,-69.220
89,55874.790000,-72.933,28.332,-248.093,3.553,-359.518,-373.277,10.500,-229.240,-134.220
90,55874.808000,-83.702,27.320,-259.954,-7.143,-353.609,-379.986,98.500,566.760,-102.220
91,55874.830000,-24.964,25.296,-269.838,-5.095,-335.231,-394.810,129.500,1112.760,-68.220
92,55874.850000,2.447,22.261,-264.896,-2.160,-333.322,-395.849,-263.500,914.760,-112.220
93,55874.873000,15.174,106.245,-263.907,-2.014,-328.474,-406.686,-4.500,609.760,-72.220
94,55874.895000,34.753,25.296,-261.931,0.869,-326.568,-404.770,18.500,56.760,-66.220
95,55874.910000,0.489,38.451,-260.942,-6.006,-327.475,-402.679,2.500,-184.240,-77.220
96,55874.945000,-6.363,41.486,-261.931,-3.087,-331.374,-399.773,38.500,-109.240,-37.220
97,55874.949000,-11.258,38.451,-255.012,-2.110,-327.512,-401.763,53.500,-46.240,-21.220
98,55874.976000,0.489,38.451,-251.058,-4.058,-326.525,-402.714,88.500,19.760,-6.220
99,55874.991000,-1.468,35.415,-246.116,-2.066,-330.413,-402.745,97.500,-21.240,-6.220
100,55875.8000,-2.447,34.403,-239.197,2.774,-326.589,-401.851,88.500,-24.240,-0.220
101,55875.30000,-1.468,32.379,-235.243,-4.049,-327.493,-402.713,77.500,-48.240,5.780
102,55875.53000,-4.405,31.368,-235.243,-2.144,-327.514,-399.794,66.500,-63.240,7.780
103,55875.70000,-6.363,31.368,-234.255,5.667,-331.457,-396.974,59.500,-66.240,3.780
104,55875.93000,-10.279,30.356,-236.232,5.693,-330.488,-398.944,56.500,-10.240,-1.220
105,55875.114000,-7.342,28.332,-236.232,6.697,-329.528,-400.932,47.500,10.760,-7.220
106,55875.135000,-4.405,30.356,-237.220,4.749,-330.477,-400.897,42.500,5.760,-7.220
107,55875.158000,-9.300,19.225,-233.266,-1.223,-340.109,-389.951,-421.500,-177.240,-58.220
108,55875.189000,23.006,-327.842,-165.066,-8.105,-349.727,-382.927,-912.500,-1548.240,204.780
109,55875.193000,-150.272,80.949,-222.394,-4.266,-362.350,-372.151,-50.500,-817.240,-246.220
110,55875.210000,-90.554,17.202,-252.046,-3.220,-352.676,-381.041,202.500,416.760,-184.220
111,55875.233000,-62.164,55.652,-246.116,1.732,-351.749,-385.067,290.500,986.760,-33.220
112,55875.260000,-24.964,5.059,-259.954,3.729,-335.310,-395.951,5.500,1057.760,-42.220
113,55875.275000,3.426,-17.202,-259.954,-1.149,-327.522,-400.796,-178.500,697.760,-187.220
114,55875.298000,18.111,110.292,-260.942,-0.110,-324.623,-405.740,20.500,537.760,-41.220
115,55875.319000,40.627,33.391,-256.988,4.722,-325.639,-401.886,6.500,-30.240,-41.220
116,55875.343000,-3.426,26.308,-257.977,6.775,-330.491,-404.870,-28.500,-231.240,-61.220
117,55875.358000,-9.300,39.462,-257.977,-0.179,-328.499,-399.827,11.500,-110.240,-23.220
118,55875.399000,-12.237,33.391,-253.035,-0.187,-329.467,-398.842,40.500,38.760,4.780
119,55875.418000,5.384,32.379,-243.151,-0.152,-329.465,-400.811,53.500,31.760,20.780
120,55875.436000,-4.405,31.368,-239.197,6.715,-331.462,-400.930,52.500,-65.240,25.780
121,55875.445000,-7.342,30.356,-240.185,2.801,-331.427,-400.861,45.500,-44.240,41.780
122,55875.463000,-6.363,33.391,-242.162,5.771,-331.452,-402.883,42.500,-9.240,50.780
123,55875.485000,-9.300,33.391,-240.185,4.827,-329.505,-405.822,44.500,-8.240,40.780
124,55875.505000,-9.300,28.332,-242.162,8.715,-330.510,-403.920,53.500,8.760,37.780
125,55875.528000,-6.363,28.332,-238.208,10.637,-330.530,-401.985,51.500,41.760,33.780
126,55875.555000,-4.405,29.344,-238.208,0.826,-327.538,-401.815,38.500,36.760,30.780
127,55875.570000,-5.384,28.332,-240.185,7.745,-329.533,-404.889,26.500,-7.240,27.780
128,55875.593000,-11.258,27.320,-243.151,-1.131,-329.456,-400.794,18.500,-23.240,28.780
129,55875.615000,102.302,516.047,-240.185,2.756,-326.590,-400.866,-185.500,24.760,-70.220
130,55875.625000,72.933,-211.478,-190.764,-6.106,-342.967,-388.877,-945.500,-1416.240,777.780
131,55875.653000,-178.662,69.818,-244.139,-13.014,-351.619,-380.869,-141.500,-964.240,-248.220
132,55875.669000,-50.417,41.486,-246.116,-7.160,-353.610,-379.001,21.500,-186.240,-160.220
133,55875.692000,-70.975,29.344,-249.081,-5.179,-344.915,-384.953,196.500,409.760,-141.220
134,55875.714000,-33.774,14.166,-267.861,-0.192,-342.050,-391.936,221.500,948.760,-26.220
135,55875.734000,13.216,-15.178,-269.838,-0.188,-325.596,-400.815,-78.500,937.760,-43.220
136,55875.749000,14.195,112.316,-264.896,-4.968,-324.577,-407.623,-145.500,552.760,-172.220
137,55875.773000,33.774,44.522,-262.919,-4.016,-321.684,-407.643,9.500,165.760,-57.220
138,55875.800000,0.489,28.332,-259.954,0.903,-324.630,-407.727,-34.500,-165.240,-75.220
139,55875.819000,-6.363,44.522,-259.954,-1.124,-322.681,-404.740,4.500,-74.240,-35.220
140,55875.839000,-2.447,36.427,-254.023,2.843,-326.585,-405.790,34.500,41.760,3.780
141,55875.865000,6.363,39.462,-247.104,0.841,-319.794,-406.747,45.500,52.760,11.780
142,55875.884000,5.384,35.415,-243.151,-0.119,-323.656,-405.741,57.500,-11.240,25.780
143,55875.903000,-1.468,33.391,-239.197,1.785,-321.741,-403.808,54.500,-39.240,35.780
144,55875.920000,-3.426,34.403,-237.220,-0.137,-323.657,-404.756,50.500,-10.240,43.780
145,55875.940000,-1.468,31.368,-236.232,5.709,-324.680,-402.889,45.500,5.760,47.780
146,55875.968000,-2.447,29.344,-237.220,3.812,-323.691,-406.795,37.500,-6.240,37.780
147,55875.983000,-5.384,30.356,-237.220,-0.067,-325.589,-407.708,27.500,-3.240,30.780
148,55876.5000,-4.405,31.368,-239.197,-2.172,-320.740,-401.770,16.500,0.760,18.780
149,55876.23000,-139.503,516.047,35.583,-3.955,-324.584,-409.610,-397.500,19.760,-639.220
150,55876.45000,88.597,-206.419,-176.927,-8.891,-323.574,-407.555,-717.500,-724.240,1117.780
151,55876.63000,-161.040,66.783,-259.954,-5.947,-322.632,-408.592,-166.500,-241.240,-149.220
152,55876.90000,4.405,40.474,-246.116,-1.081,-319.775,-408.682,155.500,700.760,-37.220
153,55876.105000,21.048,25.296,-247.104,1.888,-315.928,-412.677,192.500,179.760,4.780
154,55876.123000,19.090,20.237,-251.058,-7.030,-318.758,-404.640,-203.500,-297.240,-57.220
155,55876.140000,-21.048,99.162,-273.792,-5.004,-320.707,-407.627,-36.500,-135.240,-74.220
156,55876.170000,1.468,40.474,-275.768,-7.922,-320.680,-408.560,-13.500,2.760,-21.220
157,55876.189000,-0.489,38.451,-262.919,0.928,-319.789,-411.671,7.500,20.760,-9.220
158,55876.193000,4.405,43.510,-264.896,-1.028,-323.643,-409.663,25.500,-7.240,-2.220
159,55876.250000,-0.489,39.462,-259.954,-4.995,-319.739,-408.613,40.500,-8.240,-0.220
160,55876.265000,5.384,40.474,-252.046,-3.991,-320.714,-409.614,58.500,-19.240,6.780
161,55876.274000,0.489,39.462,-248.093,-4.978,-321.674,-408.611,73.500,-48.240,15.780
162,55876.293000,-2.447,39.462,-244.139,-1.998,-324.602,-409.644,82.500,-2.240,25.780
163,55876.305000,1.468,38.451,-241.174,-3.116,-318.793,-404.709,79.500,19.760,39.780
164,55876.328000,4.405,35.415,-236.232,1.881,-322.703,-408.731,74.500,-4.240,41.780
165,55876.350000,2.447,34.403,-234.255,0.884,-318.824,-409.702,63.500,-33.240,39.780
166,55876.373000,-3.426,33.391,-233.266,2.833,-319.810,-408.751,51.500,-29.240,41.780
167,55876.390000,-1.468,34.403,-236.232,-11.827,-321.611,-408.489,46.500,-20.240,43.780
168,55876.413000,122.860,171.004,-132.448,-13.817,-329.339,-402.538,312.500,-984.240,609.780
169,55876.443000,-8.321,-67.794,-205.591,-15.882,-345.781,-387.716,-193.500,-1467.240,-155.220
170,55876.451000,-154.187,56.664,-256.988,-11.943,-342.912,-390.742,179.500,49.760,-101.220
171,55876.479000,-55.312,16.190,-252.046,-4.073,-336.205,-396.796,288.500,729.760,-174.220
172,55876.500000,-54.333,7.083,-256.988,-2.084,-326.542,-403.734,34.500,1097.760,-9.220
173,55876.519000,0.489,104.221,-257.977,-7.922,-318.744,-409.546,-179.500,373.760,-51.220
174,55876.535000,29.859,35.415,-267.861,-4.969,-320.705,-409.596,12.500,133.760,-54.220
175,55876.573000,6.363,37.439,-260.942,-4.035,-317.813,-408.632,-48.500,-192.240,-74.220
176,55876.587000,-10.279,44.522,-259.954,-0.102,-321.719,-407.712,-44.500,-233.240,-60.220
177,55876.613000,-5.384,41.486,-259.954,-1.054,-324.612,-407.692,5.500,-95.240,-22.220
178,55876.613000,0.489,38.451,-253.035,-5.981,-324.570,-405.636,42.500,19.760,-0.220
179,55876.635000,9.300,39.462,-247.104,5.734,-321.775,-405.847,68.500,53.760,17.780
180,55876.658000,0.489,37.439,-242.162,-4.043,-320.717,-406.659,71.500,-46.240,25.780
181,55876.680000,-6.363,35.415,-237.220,-2.033,-324.604,-407.675,69.500,-49.240,31.780
182,55876.703000,-5.384,35.415,-235.243,3.777,-323.693,-404.825,65.500,24.760,39.780
183,55876.725000,-0.489,33.391,-232.278,1.838,-323.674,-405.775,54.500,46.760,42.780
184,55876.743000,-1.468,33.391,-232.278,-4.934,-324.575,-409.592,37.500,32.760,34.780
185,55876.765000,-3.426,32.379,-232.278,-3.999,-323.618,-407.641,31.500,-0.240,30.780
186,55876.785000,-5.384,31.368,-232.278,-5.013,-319.740,-407.628,18.500,-8.240,25.780
187,55876.808000,-4.405,30.356,-236.232,3.803,-322.723,-406.796,2.500,3.760,26.780
188,55876.826000,-4.405,30.356,-239.197,-1.989,-325.569,-409.643,-11.500,-6.240,17.780
189,55876.840000,-9.300,33.391,-243.151,-2.058,-325.573,-405.704,-22.500,-36.240,1.780
190,55876.863000,-11.258,31.368,-246.116,-4.995,-321.675,-407.626,-18.500,-10.240,-10.220
191,55876.885000,-10.279,33.391,-249.081,-4.025,-320.716,-407.644,-13.500,37.760,-21.220
192,55876.906000,-6.363,33.391,-255.012,-2.995,-320.722,-410.616,-8.500,50.760,-28.220
193,55876.930000,-3.426,31.368,-261.931,-4.942,-323.608,-409.593,-4.500,44.760,-35.220
194,55876.948000,-2.447,34.403,-267.861,2.928,-322.708,-412.687,6.500,5.760,-41.220
195,55876.978000,-5.384,31.368,-281.699,3.785,-320.788,-406.798,29.500,-30.240,-46.220
196,55876.995000,-4.405,33.391,-298.502,3.820,-322.722,-407.781,58.500,-12.240,-59.220
197,55877.24000,-5.384,41.486,-309.375,3.811,-317.883,-409.755,110.500,70.760,-67.220
198,55877.34000,-2.447,39.462,-319.259,9.743,-322.773,-410.839,197.500,252.760,-45.220
199,55877.43000,14.195,34.403,-333.097,7.749,-313.078,-413.768,282.500,455.760,-8.220
200,55877.77000,33.774,39.462,-339.027,13.654,-309.258,-417.815,385.500,509.760,26.780
201,55877.90000,57.270,41.486,-337.050,19.567,-306.405,-421.861,524.500,379.760,57.780
202,55877.107000,73.912,39.462,-332.108,29.343,-305.527,-422.035,582.500,277.760,69.780
203,55877.133000,75.870,36.427,-329.143,27.385,-301.637,-423.973,698.500,144.760,121.780
204,55877.155000,84.681,31.368,-319.259,40.125,-307.559,-422.223,780.500,124.760,228.780
205,55877.173000,102.302,28.332,-315.305,45.986,-304.709,-423.314,866.500,57.760,354.780
206,55877.195000,108.176,26.308,-300.479,58.647,-307.732,-418.613,948.500,-112.240,475.780
207,55877.218000,103.281,24.285,-286.641,64.502,-315.530,-413.785,1031.500,-256.240,607.780
208,55877.235000,86.639,20.237,-278.734,64.442,-316.501,-409.845,1111.500,-248.240,756.780
209,55877.258000,78.807,18.213,-267.861,74.194,-322.399,-405.088,1163.500,-77.240,915.780
210,55877.307000,87.618,12.142,-254.023,76.152,-326.289,-403.149,1188.500,-72.240,1059.780
211,55877.320000,92.512,8.095,-238.208,83.964,-332.168,-399.343,1192.500,-120.240,1124.780
212,55877.324000,91.533,7.083,-220.417,88.824,-339.958,-393.513,1189.500,-235.240,1244.780
213,55877.347000,85.660,4.047,-196.695,87.822,-352.533,-385.605,1177.500,-271.240,1368.780
214,55877.369000,76.849,-4.047,-172.973,82.792,-354.432,-376.654,1129.500,-252.240,1480.780
215,55877.378000,70.975,-11.130,-151.228,75.945,-362.113,-372.586,1051.500,-160.240,1634.780
216,55877.399000,69.996,-23.273,-140.355,69.064,-373.667,-364.575,941.500,-147.240,1795.780
217,55877.424000,67.059,-19.225,-120.587,64.127,-370.721,-363.506,821.500,-180.240,1923.780
218,55877.439000,50.417,-20.237,-106.749,49.478,-381.233,-359.297,706.500,-161.240,2040.780
219,55877.461000,21.048,-23.273,-97.853,32.766,-382.054,-354.078,571.500,-107.240,2132.780
220,55877.484000,12.237,-41.486,-85.992,9.284,-387.648,-350.703,471.500,1.760,2141.780
221,55877.514000,1.468,-44.522,-82.039,-4.441,-388.493,-348.490,271.500,-32.240,2130.780
222,55877.529000,-22.027,-47.557,-76.108,-26.920,-389.255,-349.076,66.500,3.760,2108.780
223,55877.548000,-36.711,-47.557,-71.166,-52.395,-389.025,-346.657,-136.500,102.760,2029.780
224,55877.565000,-56.291,-33.391,-63.259,-64.173,-385.049,-346.453,-323.500,251.760,1933.780
225,55877.584000,-85.660,-17.202,-64.247,-91.538,-375.119,-352.872,-506.500,555.760,1862.780
226,55877.611000,-89.576,-14.166,-72.154,-100.407,-366.331,-353.709,-732.500,756.760,1713.780
227,55877.629000,-100.344,16.190,-87.969,-138.624,-350.501,-357.974,-974.500,754.760,1519.780
228,55877.656000,-107.197,40.474,-92.911,-151.398,-344.581,-357.755,-1062.500,823.760,1436.780
229,55877.672000,-116.987,39.462,-97.853,-177.893,-321.115,-365.189,-1184.500,1101.760,1271.780
230,55877.694000,-98.386,50.593,-123.552,-205.495,-298.616,-364.727,-1365.500,1290.760,1105.780
231,55877.710000,-78.807,70.830,-146.286,-215.361,-287.884,-365.550,-1550.500,1217.760,916.780
232,55877.731000,-91.533,89.043,-156.170,-248.789,-272.104,-363.992,-1694.500,976.760,732.780
233,55877.751000,-100.344,118.387,-160.124,-256.775,-262.363,-359.925,-1836.500,993.760,559.780
234,55877.777000,-90.554,138.625,-151.228,-287.468,-241.782,-349.561,-1951.500,1252.760,407.780
235,55877.799000,-40.627,132.553,-164.077,-297.377,-230.085,-348.415,-2094.500,1376.760,253.780
236,55877.810000,-26.922,162.909,-208.556,-316.371,-212.516,-334.317,-2213.500,910.760,32.780
237,55877.832000,-52.375,194.277,-221.405,-342.175,-210.369,-314.174,-2228.500,709.760,-68.220
238,55877.849000,-84.681,207.431,-212.510,-352.222,-200.616,-304.163,-2195.500,807.760,-186.220
239,55877.872000,-69.017,213.502,-206.579,-374.134,-184.956,-290.012,-2161.500,1419.760,-270.220
240,55877.899000,-4.405,226.656,-235.243,-377.262,-177.196,-283.074,-2115.500,1607.760,-413.220
241,55877.916000,-10.279,252.964,-228.324,-392.348,-168.375,-264.113,-2022.500,1215.760,-632.220
242,55877.944000,-23.985,261.059,-221.405,-405.224,-166.332,-256.012,-1952.500,1018.760,-787.220
243,55877.973000,-39.648,269.154,-240.185,-410.420,-165.337,-239.185,-1855.500,1205.760,-879.220
244,55877.982000,-38.669,270.166,-244.139,-420.378,-163.322,-230.151,-1715.500,1617.760,-1057.220
245,55878.4000,-15.174,284.332,-242.162,-422.518,-158.475,-222.244,-1549.500,1738.760,-1377.220
246,55878.28000,6.363,307.605,-259.954,-428.483,-165.202,-213.270,-1481.500,1670.760,-1529.220
247,55878.47000,24.964,321.771,-287.629,-420.766,-170.119,-204.541,-1327.500,1352.760,-1743.220
248,55878.61000,15.174,332.901,-305.421,-416.892,-182.740,-195.735,-1142.500,1112.760,-1918.220
249,55878.84000,9.300,350.103,-315.305,-420.709,-189.474,-197.628,-897.500,1216.760,-2037.220
250,55878.106000,9.300,348.079,-308.386,-414.653,-202.100,-201.658,-580.500,1451.760,-2041.220
251,55878.126000,55.312,339.984,-294.548,-399.905,-209.972,-201.910,-304.500,1472.760,-2027.220
252,55878.149000,73.912,359.210,-322.224,-391.814,-223.579,-209.913,-18.500,1113.760,-2065.220
253,55878.165000,37.690,351.115,-316.293,-377.714,-235.296,-226.884,298.500,1101.760,-2009.220
254,55878.188000,31.816,334.925,-308.386,-371.694,-242.117,-231.905,452.500,1306.760,-1961.220
255,55878.210000,73.912,338.972,-301.467,-353.551,-250.958,-257.811,716.500,1602.760,-1900.220
256,55878.230000,105.239,329.866,-307.398,-342.589,-252.013,-268.833,979.500,1337.760,-1881.220
257,55878.248000,106.218,323.794,-333.097,-314.712,-262.882,-290.972,1225.500,929.760,-1886.220
258,55878.265000,103.281,339.984,-337.050,-298.788,-265.913,-305.032,1516.500,997.760,-1755.220
259,55878.303000,117.966,332.901,-319.259,-268.931,-266.151,-334.109,1843.500,1293.760,-1466.220
260,55878.321000,152.229,324.806,-297.514,-229.334,-263.578,-362.378,2129.500,1178.760,-1200.220
261,55878.335000,151.250,305.581,-285.652,-224.191,-260.704,-378.223,2379.500,895.760,-959.220
262,55878.357000,145.377,281.296,-257.977,-182.758,-256.220,-400.620,2545.500,759.760,-805.220
263,55878.379000,136.566,256.000,-241.174,-155.162,-255.490,-412.922,2587.500,725.760,-753.220
264,55878.385000,140.482,231.715,-227.336,-116.708,-248.077,-434.285,2620.500,695.760,-659.220
265,55878.408000,150.272,205.407,-205.591,-99.936,-248.220,-442.457,2602.500,624.760,-546.220
266,55878.430000,168.872,172.016,-192.741,-55.775,-243.774,-453.088,2508.500,395.760,-442.220
267,55878.457000,177.683,164.933,-203.614,-8.633,-248.063,-461.793,2420.500,48.760,-376.220
268,55878.470000,174.746,157.850,-192.741,7.922,-245.315,-459.135,2381.500,69.760,-225.220
269,55878.490000,175.725,132.553,-190.764,42.091,-244.663,-455.803,2332.500,268.760,27.780
270,55878.509000,201.178,112.316,-189.776,66.553,-242.949,-457.222,2266.500,189.760,289.780
271,55878.537000,211.946,92.079,-170.008,97.780,-247.110,-450.878,2182.500,29.760,495.780
272,55878.569000,195.304,72.854,-169.019,106.571,-254.935,-446.103,2134.500,-301.240,585.780
273,55878.599000,167.893,64.759,-167.042,132.872,-266.796,-433.756,2054.500,-394.240,753.780
274,55878.614000,142.440,40.474,-162.100,149.483,-279.532,-426.160,1960.500,-422.240,861.780
275,55878.622000,123.839,27.320,-164.077,169.861,-287.471,-412.728,1851.500,-406.240,947.780
276,55878.639000,109.155,22.261,-161.112,182.419,-298.243,-398.171,1764.500,-343.240,1033.780
277,55878.660000,76.849,17.202,-153.205,185.279,-306.985,-389.351,1699.500,-89.240,1115.780
278,55878.687000,61.185,0.000,-135.413,200.911,-315.840,-383.711,1568.500,244.760,1116.780
279,55878.707000,75.870,-12.142,-126.517,203.777,-313.935,-380.811,1393.500,366.760,1110.780
280,55878.729000,92.512,-19.225,-115.645,205.623,-318.798,-371.977,1309.500,349.760,1138.780
281,55878.739000,75.870,-45.534,-102.795,210.517,-326.586,-368.117,1131.500,247.760,1265.780
282,55878.763000,63.143,-44.522,-85.004,206.562,-333.328,-362.132,985.500,249.760,1456.780
283,55878.790000,57.270,-51.605,-79.073,195.818,-340.973,-358.980,835.500,274.760,1631.780
284,55878.805000,62.164,-48.569,-73.143,192.884,-348.689,-354.981,666.500,198.760,1777.780
285,55878.819000,40.627,-43.510,-66.224,174.409,-363.032,-353.653,491.500,-62.240,1891.780
286,55878.845000,3.426,-39.462,-64.247,157.664,-371.598,-342.518,324.500,-278.240,2000.780
287,55878.874000,-32.795,-51.605,-67.212,139.102,-382.074,-338.239,170.500,-219.240,2109.780
288,55878.892000,-63.143,-49.581,-74.131,118.538,-389.632,-332.945,-0.500,28.760,2131.780
289,55878.911000,-82.723,-49.581,-68.201,91.305,-392.277,-340.335,-75.500,219.760,2116.780
290,55878.934000,-71.954,-56.664,-77.097,64.972,-390.096,-345.779,-247.500,637.760,2012.780
291,55878.946000,-56.291,-45.534,-91.923,43.514,-387.961,-350.324,-453.500,773.760,1874.780
292,55878.969000,-56.291,-23.273,-93.900,22.124,-381.950,-360.781,-637.500,666.760,1767.780
293,55878.987000,-71.954,-13.154,-102.795,2.545,-378.869,-361.423,-785.500,691.760,1748.780
294,55879.9000,-54.333,-15.178,-105.761,-31.618,-368.873,-370.675,-927.500,841.760,1740.780
295,55879.32000,-40.627,3.036,-109.714,-43.380,-361.024,-373.429,-1106.500,681.760,1639.780
296,55879.54000,-62.164,18.213,-119.598,-83.586,-352.921,-371.743,-1249.500,521.760,1544.780
297,55879.75000,-58.249,20.237,-130.471,-117.846,-338.092,-378.045,-1401.500,593.760,1467.780
298,55879.98000,-67.059,40.474,-148.263,-128.714,-334.129,-373.920,-1471.500,586.760,1425.780
299,55879.115000,-79.786,47.557,-148.263,-163.130,-315.436,-373.333,-1580.500,685.760,1311.780
300,55879.135000,-78.807,65.771,-158.147,-178.805,-307.552,-376.018,-1680.500,829.760,1171.780
301,55879.144000,-67.059,86.008,-162.100,-207.472,-288.920,-368.641,-1777.500,913.760,994.780
302,55879.163000,-74.891,88.032,-177.915,-227.062,-277.128,-373.231,-1873.500,944.760,798.780
303,55879.193000,-69.996,99.162,-183.846,-255.771,-259.467,-362.899,-1993.500,1032.760,540.780
304,55879.215000,-57.270,122.435,-196.695,-262.744,-251.668,-359.832,-2139.500,1021.760,322.780
305,55879.238000,-37.690,162.909,-203.614,-292.536,-234.004,-343.574,-2209.500,989.760,158.780
306,55879.258000,-46.501,172.016,-213.498,-312.395,-219.323,-334.380,-2219.500,995.760,49.780
307,55879.278000,-20.069,172.016,-235.243,-322.371,-215.374,-325.348,-2256.500,1020.760,-48.220
308,55879.305000,-29.859,201.360,-244.139,-343.346,-204.564,-306.285,-2226.500,930.760,-242.220
309,55879.338000,-32.795,221.597,-241.174,-362.077,-196.660,-302.025,-2160.500,1108.760,-354.220
310,55879.357000,-19.090,236.775,-255.012,-373.251,-184.002,-285.106,-2075.500,1322.760,-474.220
311,55879.367000,-10.279,232.727,-258.965,-382.222,-181.027,-277.075,-1979.500,1413.760,-666.220
312,55879.390000,-4.405,244.870,-269.838,-392.346,-174.182,-261.153,-1854.500,1357.760,-800.220
313,55879.405000,-8.321,266.119,-271.815,-399.465,-169.296,-248.235,-1688.500,1389.760,-827.220
314,55879.428000,-23.006,271.178,-266.873,-410.411,-164.369,-240.171,-1529.500,1558.760,-873.220
315,55879.450000,5.384,264.095,-280.710,-416.403,-164.322,-233.174,-1469.500,1557.760,-1021.220
316,55879.475000,-4.405,267.130,-292.571,-412.618,-169.204,-223.391,-1347.500,1228.760,-1397.220
317,55879.490000,-18.111,282.308,-309.375,-411.646,-175.989,-219.462,-1167.500,1087.760,-1705.220
318,55879.513000,-21.048,295.462,-320.247,-414.598,-181.771,-215.465,-907.500,1329.760,-1840.220
319,55879.530000,4.405,307.605,-308.386,-409.556,-192.454,-218.495,-627.500,1596.760,-1933.220
320,55879.554000,59.228,314.688,-307.398,-398.546,-208.024,-224.579,-363.500,1186.760,-2110.220
321,55879.578000,53.354,324.806,-312.340,-391.573,-217.758,-226.660,-81.500,885.760,-2184.220
322,55879.603000,34.753,319.747,-306.409,-376.624,-230.459,-235.769,191.500,1181.760,-2103.220
323,55879.637000,68.038,320.759,-292.571,-368.553,-234.389,-247.721,410.500,1279.760,-2081.220
324,55879.639000,93.491,320.759,-292.571,-349.630,-244.218,-261.827,520.500,1158.760,-2067.220
325,55879.642000,90.554,303.557,-287.629,-343.499,-248.128,-274.728,729.500,1075.760,-1969.220
326,55879.673000,116.008,292.427,-278.734,-322.585,-256.038,-291.825,920.500,916.760,-1826.220
327,55879.695000,128.734,297.486,-286.641,-290.890,-269.852,-307.136,1093.500,631.760,-1702.220
328,55879.718000,106.218,288.379,-305.421,-280.871,-270.895,-320.110,1304.500,717.760,-1572.220
329,55879.735000,109.155,277.249,-302.456,-254.018,-273.047,-344.210,1538.500,1038.760,-1369.220
330,55879.755000,137.545,279.273,-291.583,-243.074,-272.167,-355.233,1742.500,988.760,-1074.220
331,55879.778000,147.335,271.178,-282.687,-208.489,-271.491,-375.535,1912.500,602.760,-843.220
332,55879.795000,130.692,264.095,-273.792,-194.636,-267.735,-386.614,2062.500,433.760,-714.220
333,55879.824000,102.302,253.976,-267.861,-160.076,-273.836,-401.985,2118.500,382.760,-662.220
334,55879.840000,102.302,242.846,-254.023,-142.300,-267.212,-415.105,2193.500,442.760,-561.220
335,55879.863000,115.029,204.395,-236.232,-102.995,-270.462,-423.672,2231.500,402.760,-434.220
336,55879.883000,132.650,201.360,-222.394,-68.560,-263.020,-439.057,2243.500,272.760,-304.220
337,55879.900000,126.776,188.206,-211.521,-55.804,-265.069,-440.265,2266.500,63.760,-166.220
338,55879.918000,134.608,159.874,-205.591,-14.611,-270.277,-443.941,2270.500,-7.240,14.780
339,55879.942000,134.608,139.636,-200.649,3.011,-271.405,-444.251,2232.500,-107.240,188.780
340,55879.964000,129.713,130.530,-189.776,29.370,-274.552,-439.792,2192.500,-253.240,313.780
341,55879.979000,124.818,108.269,-188.788,44.179,-281.453,-443.983,2172.500,-305.240,367.780
342,55880.7000,124.818,97.138,-182.857,72.410,-290.431,-431.674,2118.500,-330.240,480.780
343,55880.29000,118.945,77.913,-182.857,97.767,-300.346,-422.267,2062.500,-378.240,615.780
344,55880.45000,101.323,70.830,-180.880,111.399,-308.218,-414.623,2014.500,-515.240,700.780
345,55880.67000,86.639,52.617,-166.054,127.828,-318.059,-398.167,1977.500,-576.240,773.780
346,55880.84000,74.891,26.308,-161.112,142.473,-327.874,-391.523,1895.500,-513.240,851.780
347,55880.106000,72.933,19.225,-152.216,156.937,-338.666,-374.046,1785.500,-433.240,901.780
348,55880.124000,63.143,3.036,-144.309,156.913,-345.443,-369.116,1692.500,-394.240,952.780
349,55880.159000,52.375,-4.047,-129.483,176.339,-360.147,-353.691,1603.500,-248.240,1026.780
350,55880.160000,48.459,-22.261,-120.587,171.344,-365.916,-344.736,1547.500,-148.240,1083.780
351,55880.192000,54.333,-33.391,-105.761,175.165,-370.797,-336.922,1422.500,14.760,1196.780
352,55880.194000,41.606,-40.474,-99.830,172.171,-381.420,-327.996,1277.500,12.760,1319.780
353,55880.225000,35.732,-42.498,-92.911,169.168,-387.205,-321.045,1138.500,88.760,1464.780
354,55880.243000,26.922,-53.628,-81.050,162.337,-392.949,-318.949,1010.500,156.760,1577.780
355,55880.275000,7.342,-59.700,-75.120,149.575,-397.675,-313.795,861.500,280.760,1706.780
356,55880.303000,7.342,-65.771,-77.097,134.032,-400.430,-318.439,686.500,537.760,1833.780
357,55880.322000,10.279,-69.818,-71.166,118.446,-402.220,-321.115,492.500,617.760,1913.780
358,55880.330000,-5.384,-76.901,-74.131,106.748,-405.014,-321.889,284.500,569.760,1943.780
359,55880.352000,-20.069,-78.925,-88.958,84.390,-405.769,-329.368,186.500,557.760,1945.780
360,55880.373000,-28.880,-74.877,-102.795,70.778,-407.575,-333.063,-1.500,545.760,1942.780
361,55880.393000,-44.543,-66.783,-115.645,35.621,-403.380,-338.353,-162.500,562.760,1954.780
362,55880.410000,-41.606,-60.711,-130.471,23.930,-401.334,-342.086,-288.500,549.760,1939.780
363,55880.437000,-54.333,-46.545,-128.494,-4.448,-393.333,-345.531,-401.500,403.760,1860.780
364,55880.452000,-56.291,-33.391,-115.645,-18.094,-397.077,-346.270,-558.500,378.760,1760.780
365,55880.477000,-68.038,-9.107,-122.564,-46.534,-386.176,-347.748,-702.500,485.760,1694.780
366,55880.486000,-74.891,-16.190,-121.575,-75.926,-372.360,-352.167,-852.500,677.760,1633.780
367,55880.513000,-72.933,-1.012,-128.494,-94.476,-365.413,-357.753,-923.500,731.760,1550.780
368,55880.535000,-67.059,-2.024,-127.506,-129.783,-350.579,-360.099,-1051.500,784.760,1504.780
369,55880.553000,-68.038,-1.012,-137.390,-134.685,-347.631,-361.000,-1222.500,677.760,1401.780
370,55880.573000,-68.038,14.166,-160.124,-165.238,-332.849,-355.555,-1378.500,390.760,1257.780
371,55880.598000,-100.344,49.581,-172.973,-183.822,-329.776,-357.199,-1431.500,333.760,1112.780
372,55880.615000,-122.860,57.676,-163.089,-212.419,-313.076,-352.774,-1483.500,775.760,967.780
373,55880.632000,-98.386,56.664,-166.054,-237.120,-292.541,-349.408,-1640.500,1072.760,798.780
374,55880.658000,-54.333,69.818,-178.903,-250.924,-284.679,-347.204,-1806.500,875.760,576.780
375,55880.674000,-52.375,97.138,-181.869,-272.671,-271.913,-340.928,-1891.500,749.760,411.780
376,55880.700000,-60.207,117.375,-188.788,-283.609,-264.082,-334.836,-1918.500,820.760,346.780
377,55880.733000,-55.312,131.542,-189.776,-305.460,-247.450,-324.625,-1957.500,1121.760,249.780
378,55880.755000,-29.859,136.601,-184.834,-312.468,-237.718,-320.574,-2017.500,1346.760,136.780
379,55880.768000,4.405,149.755,-198.672,-337.324,-221.063,-306.372,-2108.500,1190.760,-10.220
380,55880.783000,10.279,158.862,-236.232,-359.182,-211.207,-292.214,-2150.500,802.760,-135.220
381,55880.805000,-6.363,169.992,-261.931,-364.343,-206.338,-279.331,-2125.500,594.760,-249.220
382,55880.830000,-23.006,195.289,-278.734,-378.337,-204.294,-263.334,-2018.500,712.760,-314.220
383,55880.853000,-26.922,226.656,-282.687,-389.318,-197.433,-254.288,-1842.500,1068.760,-325.220
384,55880.875000,-13.216,248.917,-266.873,-396.447,-189.644,-242.358,-1688.500,1232.760,-246.220
385,55880.888000,3.426,238.798,-240.185,-407.403,-179.878,-236.268,-1666.500,1397.760,-222.220
386,55880.905000,34.753,233.739,-233.266,-421.448,-177.837,-217.318,-1687.500,956.760,-298.220
387,55880.935000,3.426,240.822,-236.232,-427.631,-175.865,-200.475,-1687.500,383.760,-476.220
388,55880.950000,-50.417,244.870,-255.012,-426.808,-177.819,-190.643,-1568.500,486.760,-686.220
389,55880.970000,-84.681,254.988,-267.861,-428.920,-181.681,-179.772,-1356.500,1155.760,-881.220
390,55880.993000,-24.964,259.036,-243.151,-438.765,-180.628,-176.645,-1175.500,1599.760,-1114.220
391,55881.8000,-1.468,277.249,-239.197,-436.806,-188.389,-172.733,-1069.500,1391.760,-1385.220
392,55881.33000,-9.300,292.427,-250.069,-428.986,-191.364,-170.899,-949.500,962.760,-1637.220
393,55881.59000,-21.048,303.557,-255.012,-425.043,-205.916,-165.045,-861.500,877.760,-1840.220
394,55881.74000,-5.384,302.545,-263.907,-424.028,-213.667,-163.085,-645.500,1005.760,-1927.220
395,55881.94000,29.859,304.569,-276.757,-411.061,-231.191,-168.216,-462.500,1097.760,-2080.220
396,55881.117000,23.006,307.605,-276.757,-395.131,-251.644,-173.396,-294.500,953.760,-2169.220
397,55881.144000,29.859,313.676,-285.652,-391.051,-260.381,-178.381,-129.500,1049.760,-2131.220
398,55881.160000,53.354,321.771,-301.467,-369.139,-276.041,-192.532,75.500,1119.760,-2062.220
399,55881.177000,52.375,319.747,-299.490,-363.085,-282.860,-199.523,377.500,911.760,-1986.220
400,55881.224000,39.648,312.664,-304.432,-343.123,-295.598,-215.612,711.500,874.760,-1815.220
401,55881.238000,49.438,311.652,-307.398,-333.084,-306.320,-224.637,953.500,918.760,-1645.220
402,55881.247000,49.438,315.700,-314.317,-314.094,-308.402,-246.629,1048.500,856.760,-1598.220
403,55881.260000,29.859,306.593,-312.340,-286.288,-317.340,-265.815,1272.500,777.760,-1543.220
404,55881.285000,48.459,295.462,-295.537,-272.285,-320.351,-281.810,1542.500,983.760,-1464.220
405,55881.299000,67.059,287.368,-284.664,-240.532,-321.579,-306.982,1775.500,1039.760,-1318.220
406,55881.324000,74.891,283.320,-274.780,-223.630,-320.747,-323.033,1952.500,991.760,-1123.220
407,55881.344000,95.449,269.154,-259.954,-190.025,-318.127,-344.305,2087.500,857.760,-951.220
408,55881.361000,100.344,262.071,-248.093,-168.264,-319.277,-357.486,2206.500,659.760,-801.220
409,55881.384000,98.386,236.775,-242.162,-140.616,-316.608,-373.730,2298.500,676.760,-601.220
410,55881.405000,112.092,216.538,-230.301,-104.129,-308.211,-395.059,2346.500,737.760,-376.220
411,55881.427000,129.713,199.336,-222.394,-87.391,-306.420,-402.248,2357.500,658.760,-267.220
412,55881.452000,131.671,192.253,-217.452,-54.937,-303.801,-413.654,2359.500,428.760,-85.220
413,55881.479000,124.818,173.028,-203.614,-44.113,-304.863,-416.798,2370.500,388.760,119.780
414,55881.493000,130.692,144.696,-187.799,-8.802,-301.307,-424.318,2359.500,392.760,313.780
415,55881.522000,135.587,132.553,-177.915,13.739,-303.446,-425.699,2286.500,218.760,489.780
416,55881.524000,123.839,114.340,-176.927,41.059,-304.667,-421.258,2218.500,19.760,671.780
417,55881.545000,105.239,97.138,-170.996,49.857,-305.715,-420.428,2157.500,-62.240,817.780
418,55881.567000,93.491,71.842,-170.008,72.330,-313.665,-414.910,2078.500,-120.240,915.780
419,55881.587000,86.639,62.735,-160.124,92.828,-321.598,-408.372,2028.500,-156.240,958.780
420,55881.603000,78.807,44.522,-156.170,101.523,-326.524,-399.660,1916.500,-258.240,983.780
421,55881.625000,71.954,29.344,-152.216,108.332,-337.235,-391.892,1794.500,-333.240,1031.780
422,55881.657000,51.396,11.130,-150.239,119.946,-342.189,-382.248,1684.500,-308.240,1090.780
423,55881.674000,45.522,1.012,-139.367,123.792,-349.972,-374.431,1578.500,-175.240,1138.780
424,55881.699000,46.501,-8.095,-119.598,126.625,-351.940,-367.588,1436.500,-106.240,1212.780
425,55881.716000,60.207,-16.190,-108.726,125.605,-362.580,-359.681,1271.500,-203.240,1301.780
426,55881.729000,44.543,-26.308,-89.946,130.442,-381.018,-346.948,1110.500,-331.240,1424.780
427,55881.752000,43.564,-42.498,-72.154,122.545,-382.887,-341.883,912.500,-435.240,1529.780
428,55881.772000,37.690,-57.676,-66.224,108.703,-397.289,-325.870,802.500,-523.240,1596.780
429,55881.785000,39.648,-65.771,-78.085,104.775,-408.869,-318.896,559.500,-864.240,1706.780
430,55881.804000,11.258,-41.486,-85.992,79.236,-429.937,-301.684,413.500,-1138.240,1809.780
431,55881.829000,-44.543,-39.462,-89.946,65.381,-429.821,-292.579,362.500,-826.240,1932.780
432,55881.852000,-61.185,-45.534,-91.923,36.998,-438.275,-287.144,302.500,-298.240,1977.780
433,55881.872000,-62.164,-56.664,-90.934,18.322,-443.918,-278.932,180.500,-10.240,1930.780
434,55881.898000,-54.333,-65.771,-100.819,2.718,-443.772,-281.609,13.500,33.760,1813.780
435,55881.915000,-74.891,-58.688,-107.737,-20.871,-437.757,-278.246,-133.500,155.760,1726.780
436,55881.938000,-81.744,-51.605,-113.668,-42.302,-440.460,-281.801,-273.500,237.760,1647.780
437,55881.975000,-83.702,-43.510,-123.552,-62.862,-429.627,-286.372,-332.500,376.760,1604.780
438,55881.989000,-90.554,-23.273,-124.541,-73.531,-426.620,-293.078,-430.500,604.760,1545.780
439,55882.3000,-84.681,-6.071,-114.656,-105.834,-409.873,-300.402,-530.500,852.760,1508.780
440,55882.25000,-76.849,-1.012,-114.656,-128.220,-399.982,-311.831,-664.500,928.760,1482.780
441,55882.45000,-72.933,8.095,-126.517,-136.137,-390.237,-311.702,-814.500,875.760,1433.780
442,55882.63000,-69.996,17.202,-119.598,-162.525,-376.444,-320.112,-972.500,802.760,1353.780
443,55882.85000,-73.912,33.391,-122.564,-184.194,-364.642,-317.773,-1131.500,729.760,1297.780
444,55882.108000,-77.828,47.557,-151.228,-211.673,-349.879,-320.258,-1225.500,706.760,1222.780
445,55882.125000,-91.533,62.735,-167.042,-216.672,-340.161,-319.196,-1250.500,769.760,1180.780
446,55882.132000,-72.933,75.889,-174.950,-241.312,-320.591,-318.783,-1312.500,929.760,1127.780
447,55882.159000,-75.870,88.032,-170.996,-259.975,-312.682,-318.462,-1379.500,984.760,1009.780
448,55882.195000,-68.038,90.055,-176.927,-282.701,-292.164,-316.115,-1469.500,1038.760,860.780
449,55882.198000,-53.354,99.162,-195.707,-304.493,-272.625,-310.830,-1615.500,1162.760,678.780
450,55882.219000,-58.249,124.459,-210.533,-313.501,-259.974,-305.763,-1748.500,1110.760,453.780
451,55882.239000,-62.164,136.601,-212.510,-338.183,-245.245,-300.422,-1823.500,1124.760,248.780
452,55882.262000,-55.312,158.862,-215.475,-339.354,-237.504,-293.519,-1895.500,1210.760,108.780
453,55882.282000,-28.880,178.087,-211.521,-362.157,-223.765,-283.287,-1978.500,1215.760,-26.220
454,55882.315000,-25.943,198.324,-217.452,-371.181,-218.858,-273.288,-2019.500,1128.760,-79.220
455,55882.336000,-15.174,220.585,-221.405,-388.198,-209.049,-256.263,-2059.500,913.760,-177.220
456,55882.353000,-47.480,242.846,-236.232,-395.438,-204.169,-236.452,-2035.500,660.760,-299.220
457,55882.375000,-67.059,244.870,-227.336,-410.317,-197.272,-228.321,-1937.500,888.760,-367.220
458,55882.393000,-40.627,246.893,-202.625,-418.501,-188.510,-212.435,-1860.500,1336.760,-434.220
459,55882.413000,13.216,248.917,-221.405,-421.531,-191.392,-205.487,-1912.500,1172.760,-655.220
460,55882.438000,0.489,268.142,-261.931,-426.812,-196.209,-180.776,-1964.500,362.760,-979.220
461,55882.484000,-84.681,286.356,-280.710,-429.929,-197.160,-169.891,-1850.500,350.760,-1158.220
462,55882.484000,-103.281,304.569,-261.931,-427.207,-205.910,-153.193,-1604.500,761.760,-1213.220
463,55882.507000,-43.564,305.581,-230.301,-433.138,-208.764,-148.163,-1464.500,1658.760,-1222.220
464,55882.520000,4.405,295.462,-211.521,-424.322,-213.683,-146.344,-1278.500,1791.760,-1283.220
465,55882.538000,16.153,303.557,-235.243,-421.409,-224.358,-139.492,-1216.500,1105.760,-1493.220
466,55882.555000,-44.543,314.688,-247.104,-425.304,-234.000,-135.474,-1072.500,558.760,-1688.220
467,55882.583000,-67.059,308.617,-238.208,-416.398,-248.594,-133.646,-835.500,1000.760,-1750.220
468,55882.598000,-22.027,310.640,-240.185,-411.410,-253.472,-136.682,-589.500,1401.760,-1809.220
469,55882.621000,-2.447,319.747,-257.977,-402.383,-268.058,-141.746,-397.500,1230.760,-1878.220
470,55882.644000,-7.342,334.925,-271.815,-389.373,-286.548,-148.846,-185.500,1131.760,-1956.220
471,55882.664000,-15.174,346.055,-278.734,-373.456,-292.483,-160.934,-60.500,1244.760,-2007.220
472,55882.687000,7.342,343.020,-290.595,-353.468,-302.316,-179.981,253.500,1498.760,-2012.220
473,55882.709000,30.837,334.925,-291.583,-349.293,-310.081,-190.875,559.500,1570.760,-1941.220
474,55882.722000,44.543,328.854,-289.606,-322.335,-319.969,-216.936,847.500,1450.760,-1765.220
475,55882.739000,37.690,332.901,-293.560,-312.273,-320.043,-232.865,1151.500,1344.760,-1555.220
476,55882.764000,31.816,324.806,-290.595,-286.348,-320.247,-260.888,1436.500,1364.760,-1389.220
477,55882.773000,44.543,324.806,-285.652,-273.289,-325.183,-277.849,1706.500,1365.760,-1271.220
478,55882.803000,55.312,310.640,-286.641,-244.421,-318.638,-309.870,1948.500,1268.760,-1154.220
479,55882.820000,63.143,301.534,-280.710,-212.669,-315.994,-337.015,2163.500,1178.760,-1025.220
480,55882.838000,74.891,286.356,-276.757,-191.896,-312.297,-352.154,2255.500,1142.760,-948.220
481,55882.860000,84.681,278.261,-270.826,-158.197,-306.767,-380.321,2403.500,1135.760,-774.220
482,55882.883000,125.797,267.130,-243.151,-137.546,-301.141,-389.553,2530.500,992.760,-595.220
483,55882.905000,140.482,242.846,-219.429,-96.147,-300.530,-408.007,2611.500,599.760,-414.220
484,55882.928000,137.545,215.526,-224.371,-70.655,-296.887,-413.384,2624.500,354.760,-228.220
485,55882.945000,137.545,194.277,-213.498,-42.046,-296.164,-427.674,2614.500,305.760,-86.220
486,55882.977000,130.692,181.123,-196.695,-8.752,-293.561,-431.219,2598.500,384.760,64.780
487,55882.999000,136.566,144.696,-181.869,20.629,-292.859,-433.709,2515.500,467.760,238.780
488,55883.3000,162.998,127.494,-163.089,50.971,-292.166,-435.231,2383.500,244.760,421.780
489,55883.30000,153.208,108.269,-166.054,62.661,-294.211,-431.497,2327.500,104.760,512.780
490,55883.48000,134.608,89.043,-158.147,91.948,-298.354,-426.104,2227.500,-26.240,675.780
491,55883.70000,119.924,69.818,-154.193,102.643,-302.327,-420.382,2117.500,-8.240,832.780
492,55883.99000,120.902,57.676,-152.216,121.123,-307.342,-411.843,1976.500,-152.240,959.780
493,55883.103000,101.323,42.498,-153.205,136.652,-320.074,-398.320,1877.500,-238.240,1055.780
494,55883.122000,78.807,19.225,-155.181,150.353,-327.942,-394.616,1780.500,-278.240,1080.780
495,55883.149000,69.996,-2.024,-155.181,157.975,-335.768,-378.990,1656.500,-271.240,1088.780
496,55883.177000,56.291,1.012,-167.042,162.791,-338.721,-373.165,1573.500,-61.240,1120.780
497,55883.194000,45.522,-3.036,-153.205,166.629,-347.472,-364.363,1534.500,91.760,1220.780
498,55883.217000,45.522,-17.202,-134.425,172.527,-352.363,-363.477,1410.500,312.760,1285.780
499,55883.234000,68.038,-32.379,-114.656,164.597,-358.105,-354.470,1226.500,231.760,1406.780
500,55883.252000,47.480,-42.498,-101.807,160.693,-364.844,-351.440,1034.500,-112.240,1516.780
501,55883.284000,17.132,-36.427,-100.819,153.770,-381.240,-338.500,895.500,-287.240,1620.780
502,55883.322000,4.405,-47.557,-102.795,145.824,-390.855,-326.535,799.500,-120.240,1741.780
503,55883.322000,8.321,-48.569,-97.853,128.324,-395.528,-330.157,685.500,56.760,1861.780
504,55883.342000,2.447,-42.498,-81.050,107.752,-402.118,-324.863,555.500,46.760,1946.780
505,55883.359000,-15.174,-39.462,-82.039,103.883,-408.855,-323.803,418.500,85.760,2053.780
506,55883.389000,-12.237,-43.510,-77.097,78.356,-410.564,-317.442,355.500,153.760,2116.780
507,55883.402000,5.384,-49.581,-77.097,58.899,-413.284,-322.017,206.500,189.760,2220.780
508,55883.419000,-2.447,-29.344,-85.992,25.580,-418.791,-315.514,7.500,-82.240,2313.780
509,55883.444000,-35.732,-14.166,-87.969,-10.683,-425.241,-307.974,-135.500,-347.240,2424.780
510,55883.476000,-85.660,2.024,-105.761,-22.416,-424.166,-308.752,-191.500,-324.240,2510.780
511,55883.483000,-117.966,-2.024,-98.842,-65.523,-419.906,-307.010,-196.500,129.760,2541.780
512,55883.503000,-111.113,-9.107,-97.853,-80.176,-412.996,-311.681,-296.500,650.760,2496.780
513,55883.524000,-79.786,-19.225,-92.911,-117.327,-401.041,-318.914,-509.500,776.760,2342.780
514,55883.545000,-88.597,-1.012,-95.876,-135.029,-389.271,-319.599,-780.500,624.760,2106.780
515,55883.568000,-122.860,12.142,-101.807,-170.370,-380.246,-317.015,-882.500,460.760,1983.780
516,55883.599000,-143.419,22.261,-118.610,-192.958,-359.720,-322.546,-1050.500,692.760,1767.780
517,55883.609000,-135.587,30.356,-120.587,-209.674,-346.990,-324.234,-1198.500,1150.760,1506.780
518,55883.633000,-105.239,37.439,-113.668,-237.086,-324.480,-334.604,-1384.500,1536.760,1239.780
519,55883.650000,-72.933,61.723,-128.494,-254.910,-308.846,-330.370,-1617.500,1519.760,975.780
520,55883.683000,-72.933,92.079,-144.309,-280.574,-282.493,-330.931,-1793.500,1314.760,748.780
521,55883.702000,-85.660,109.281,-164.077,-287.581,-272.761,-326.880,-1896.500,1296.760,563.780
522,55883.720000,-85.660,125.470,-169.019,-314.283,-251.243,-321.511,-2015.500,1524.760,345.780
523,55883.729000,-74.891,154.814,-166.054,-335.209,-226.880,-312.309,-2088.500,1657.760,233.780
524,55883.752000,-43.564,180.111,-172.973,-346.114,-217.111,-309.174,-2227.500,1823.760,5.780
525,55883.765000,-39.648,202.372,-190.764,-366.129,-200.503,-292.104,-2351.500,1749.760,-196.220
526,55883.795000,-25.943,219.573,-208.556,-372.209,-192.718,-284.130,-2461.500,1683.760,-395.220
527,55883.818000,-19.090,252.964,-229.313,-401.125,-180.876,-259.021,-2485.500,1574.760,-614.220
528,55883.835000,-26.922,264.095,-238.208,-404.270,-175.054,-250.112,-2424.500,1470.760,-853.220
529,55883.858000,-31.816,274.213,-252.046,-413.448,-174.027,-229.277,-2361.500,1482.760,-1049.220
530,55883.878000,-12.237,287.368,-265.884,-424.446,-171.038,-217.273,-2333.500,1445.760,-1183.220
531,55883.895000,7.342,299.510,-270.826,-420.859,-176.900,-195.671,-2296.500,1103.760,-1348.220
532,55883.918000,-16.153,316.711,-282.687,-434.937,-184.540,-169.817,-2246.500,890.760,-1420.220
533,55883.935000,-48.459,331.889,-285.652,-436.979,-188.398,-162.886,-2041.500,845.760,-1509.220
534,55883.958000,-56.291,333.913,-272.803,-436.197,-201.001,-145.164,-1758.500,1298.760,-1554.220
535,55883.979000,-18.111,331.889,-255.012,-434.222,-202.954,-145.197,-1490.500,1608.760,-1635.220
536,55883.999000,-1.468,324.806,-260.942,-423.489,-218.540,-135.524,-1284.500,1418.760,-1766.220
537,55884.19000,-4.405,330.877,-265.884,-425.358,-226.260,-136.467,-1049.500,1188.760,-1920.220
538,55884.41000,-38.669,327.842,-266.873,-419.336,-238.888,-138.527,-767.500,1479.760,-1984.220
539,55884.73000,-7.342,334.925,-272.803,-406.317,-256.409,-146.613,-458.500,1674.760,-2039.220
540,55884.92000,16.153,335.937,-278.734,-391.466,-262.340,-153.760,-155.500,1623.760,-2058.220
541,55884.110000,11.258,339.984,-281.699,-378.334,-278.887,-168.739,-5.500,1537.760,-2039.220
542,55884.117000,14.195,343.020,-277.745,-374.230,-280.848,-178.654,267.500,1643.760,-1955.220
543,55884.144000,26.922,348.079,-279.722,-355.195,-287.767,-200.641,546.500,1672.760,-1839.220
544,55884.167000,48.459,338.972,-285.652,-344.145,-292.688,-214.613,846.500,1545.760,-1726.220
545,55884.187000,59.228,330.877,-284.664,-324.107,-298.647,-238.588,1118.500,1333.760,-1600.220
546,55884.209000,67.059,325.818,-304.432,-293.201,-304.698,-268.661,1386.500,1133.760,-1461.220
547,55884.224000,45.522,321.771,-316.293,-280.256,-304.801,-281.688,1691.500,1303.760,-1308.220
548,55884.242000,48.459,313.676,-306.409,-252.279,-302.114,-316.642,1968.500,1494.760,-1170.220
549,55884.263000,88.597,316.711,-308.386,-240.261,-298.334,-334.579,2094.500,1461.760,-1099.220
550,55884.275000,123.839,312.664,-291.583,-206.501,-293.769,-365.700,2308.500,1200.760,-987.220
551,55884.308000,125.797,301.534,-288.618,-184.819,-290.084,-376.917,2497.500,974.760,-827.220
552,55884.340000,128.734,297.486,-273.792,-146.271,-279.763,-405.175,2654.500,1080.760,-611.220
553,55884.369000,146.356,274.213,-248.093,-123.673,-273.187,-414.443,2749.500,1038.760,-337.220
554,55884.373000,164.956,256.000,-225.359,-79.400,-267.766,-431.968,2797.500,791.760,-64.220
555,55884.395000,160.061,217.549,-187.799,-39.075,-264.247,-446.468,2812.500,562.760,191.780
556,55884.413000,157.124,189.217,-172.973,-24.399,-258.574,-449.688,2790.500,530.760,459.780
557,55884.429000,159.082,155.826,-162.100,14.816,-250.214,-459.252,2712.500,524.760,716.780
558,55884.447000,163.977,132.553,-149.251,36.309,-252.348,-456.676,2651.500,438.760,810.780
559,55884.472000,150.272,111.304,-141.344,71.527,-257.508,-454.340,2529.500,97.760,933.780
560,55884.495000,129.713,92.079,-131.459,75.382,-264.322,-447.509,2389.500,-173.240,1015.780
561,55884.517000,119.924,68.806,-130.471,101.699,-268.440,-440.094,2239.500,-119.240,1140.780
562,55884.537000,126.776,50.593,-125.529,131.966,-280.334,-430.771,2079.500,-59.240,1269.780
563,55884.553000,117.966,27.320,-118.610,132.911,-286.152,-425.859,1919.500,-199.240,1343.780
564,55884.572000,100.344,18.213,-124.541,146.492,-299.834,-412.301,1767.500,-412.240,1357.780
565,55884.599000,74.891,1.012,-123.552,154.270,-307.651,-405.538,1649.500,-453.240,1371.780
566,55884.628000,56.291,-10.119,-118.610,160.016,-324.166,-389.869,1525.500,-385.240,1444.780
567,55884.641000,60.207,-28.332,-103.784,159.012,-327.062,-386.894,1447.500,-168.240,1486.780
568,55884.660000,62.164,-24.285,-91.923,158.903,-341.587,-373.093,1290.500,-162.240,1543.780
569,55884.682000,52.375,-35.415,-81.050,153.980,-355.095,-364.130,1140.500,-277.240,1596.780
570,55884.704000,40.627,-55.652,-83.027,153.895,-360.907,-356.246,968.500,-378.240,1664.780
571,55884.722000,21.048,-59.700,-79.073,140.113,-376.274,-343.186,786.500,-434.240,1697.780
572,55884.759000,-6.363,-60.711,-84.015,128.383,-388.749,-337.058,631.500,-340.240,1743.780
573,55884.762000,-18.111,-61.723,-80.062,112.703,-395.384,-331.850,512.500,-70.240,1787.780
574,55884.797000,-38.669,-57.676,-78.085,100.979,-397.212,-331.641,411.500,293.760,1847.780
575,55884.825000,-40.627,-66.783,-73.143,81.505,-397.996,-336.217,353.500,486.760,1892.780
576,55884.834000,-26.922,-77.913,-68.201,69.901,-395.946,-344.874,179.500,629.760,1941.780
577,55884.843000,-43.564,-62.735,-79.073,43.413,-397.645,-339.482,-42.500,428.760,1934.780
578,55884.860000,-60.207,-52.617,-89.946,18.092,-395.471,-346.912,-231.500,390.760,1941.780
579,55884.883000,-65.101,-41.486,-97.853,-4.413,-393.331,-347.501,-399.500,438.760,1899.780
580,55884.899000,-61.185,-26.308,-88.958,-33.744,-384.352,-352.899,-577.500,500.760,1825.780
581,55884.925000,-59.228,-12.142,-83.027,-42.578,-381.369,-352.746,-754.500,445.760,1747.780
582,55884.958000,-72.933,-11.130,-102.795,-73.900,-372.374,-356.140,-932.500,284.760,1661.780
583,55884.972000,-89.576,6.071,-107.737,-93.583,-371.235,-349.887,-1080.500,403.760,1539.780
584,55884.994000,-123.839,7.083,-113.668,-123.859,-358.373,-359.211,-1148.500,650.760,1466.780
585,55885.9000,-88.597,3.036,-109.714,-151.339,-337.802,-364.655,-1338.500,1090.760,1236.780
586,55885.38000,-68.038,17.202,-111.691,-166.140,-327.997,-362.436,-1544.500,965.760,950.780
587,55885.58000,-69.996,19.225,-134.425,-192.702,-310.342,-362.971,-1760.500,861.760,739.780
588,55885.73000,-73.912,60.711,-143.320,-206.516,-301.513,-360.768,-1935.500,1048.760,606.780
589,55885.95000,-76.849,79.937,-145.297,-233.070,-282.890,-362.289,-2036.500,1442.760,476.780
590,55885.117000,-49.438,91.067,-162.100,-254.817,-266.252,-357.986,-2156.500,1540.760,282.780
591,55885.139000,-41.606,109.281,-193.730,-274.564,-250.598,-355.686,-2264.500,1482.760,92.780
592,55885.157000,-42.585,138.625,-203.614,-306.306,-226.140,-343.339,-2352.500,1484.760,-79.220
593,55885.179000,-35.732,162.909,-196.695,-314.300,-217.367,-338.286,-2403.500,1520.760,-163.220
594,55885.197000,-13.216,182.134,-219.429,-340.159,-205.544,-320.122,-2508.500,1313.760,-354.220
595,55885.224000,-15.174,213.502,-229.313,-352.135,-202.547,-308.100,-2535.500,1004.760,-571.220
596,55885.243000,-46.501,241.834,-240.185,-368.165,-193.715,-291.091,-2450.500,1117.760,-710.220
597,55885.276000,-50.417,256.000,-240.185,-380.125,-188.781,-281.041,-2336.500,1516.760,-837.220
598,55885.289000,-24.964,258.024,-234.255,-387.331,-181.963,-264.186,-2252.500,1475.760,-1094.220
599,55885.298000,-12.237,273.202,-232.278,-396.473,-188.677,-241.374,-2175.500,946.760,-1430.220
600,55885.322000,-49.438,296.474,-247.104,-396.593,-190.620,-233.494,-2054.500,1147.760,-1622.220
601,55885.344000,-83.702,318.735,-257.977,-405.632,-195.392,-217.577,-1981.500,1548.760,-1671.220
602,55885.367000,-21.048,317.723,-246.116,-409.562,-199.229,-214.550,-1839.500,1886.760,-1847.220
603,55885.382000,15.174,326.830,-263.907,-403.854,-208.003,-200.858,-1708.500,1425.760,-2065.220
604,55885.407000,13.216,337.960,-270.826,-401.895,-215.764,-196.946,-1490.500,1151.760,-2185.220
605,55885.433000,-4.405,349.091,-278.734,-398.930,-228.372,-192.061,-1169.500,1489.760,-2079.220
606,55885.448000,-5.384,333.913,-277.745,-393.845,-236.149,-199.033,-824.500,1980.760,-1884.220
607,55885.470000,37.690,325.818,-261.931,-383.903,-242.036,-205.109,-536.500,1757.760,-1815.220
608,55885.490000,47.480,334.925,-261.931,-375.857,-248.870,-214.103,-220.500,1447.760,-1783.220
609,55885.503000,-3.426,339.984,-274.780,-371.788,-248.897,-223.035,106.500,1936.760,-1735.220
610,55885.525000,62.164,331.889,-254.023,-354.745,-253.865,-244.005,247.500,2157.760,-1751.220
611,55885.552000,100.344,320.759,-272.803,-342.823,-251.058,-256.032,506.500,2149.760,-1723.220
612,55885.572000,116.987,326.830,-287.629,-326.726,-250.207,-281.914,773.500,1735.760,-1554.220
613,55885.580000,107.197,333.913,-292.571,-322.674,-248.300,-290.848,1085.500,1475.760,-1288.220
614,55885.612000,113.071,321.771,-305.421,-303.625,-243.603,-319.740,1403.500,1421.760,-1025.220
615,55885.629000,139.503,323.794,-300.479,-278.697,-237.992,-349.721,1691.500,1379.760,-832.220
616,55885.647000,162.019,321.771,-303.444,-263.883,-232.310,-360.818,1962.500,1163.760,-637.220
617,55885.669000,190.409,296.474,-272.803,-234.149,-226.748,-385.962,2214.500,772.760,-440.220
618,55885.692000,161.040,297.486,-276.757,-215.384,-228.844,-395.152,2392.500,270.760,-324.220
619,55885.714000,132.650,282.308,-266.873,-183.692,-227.171,-418.357,2461.500,267.760,-250.220
620,55885.753000,141.461,266.119,-240.185,-165.978,-219.582,-428.524,2561.500,538.760,-107.220
621,55885.755000,162.019,256.000,-223.382,-127.497,-218.943,-447.910,2595.500,512.760,15.780
622,55885.777000,165.935,241.834,-199.660,-95.069,-213.422,-459.319,2594.500,281.760,146.780
623,55885.799000,162.998,225.644,-188.788,-70.521,-211.703,-465.662,2598.500,165.760,329.780
624,55885.817000,176.704,199.336,-175.938,-29.294,-213.038,-473.281,2588.500,147.760,539.780
625,55885.833000,165.935,183.146,-178.903,-17.588,-211.211,-472.506,2566.500,49.760,771.780
626,55885.857000,162.019,159.874,-164.077,17.708,-213.463,-476.081,2541.500,24.760,977.780
627,55885.890000,149.293,134.577,-154.193,39.219,-219.467,-472.517,2516.500,-61.240,1063.780
628,55885.894000,129.713,105.233,-155.181,67.570,-224.566,-469.075,2422.500,-238.240,1093.780
629,55885.913000,122.860,70.830,-143.320,95.879,-232.571,-461.691,2270.500,-277.240,1105.780
630,55885.947000,108.176,44.522,-152.216,111.573,-246.262,-457.030,2078.500,-440.240,1077.780
631,55885.949000,99.365,43.510,-155.181,134.905,-261.970,-440.689,1922.500,-536.240,1036.780
632,55885.973000,81.744,28.332,-141.344,139.738,-264.922,-435.849,1829.500,-465.240,1025.780
633,55885.995000,83.702,13.154,-135.413,157.163,-276.707,-419.408,1694.500,-364.240,1045.780
634,55886.24000,85.660,1.012,-143.320,169.912,-285.533,-416.669,1545.500,-342.240,1085.780
635,55886.39000,85.660,-18.213,-132.448,178.610,-300.137,-403.024,1393.500,-322.240,1116.780
636,55886.67000,95.449,-26.308,-124.541,184.346,-313.749,-388.343,1315.500,-395.240,1117.780
637,55886.83000,72.933,-25.296,-123.552,188.210,-323.467,-380.524,1186.500,-512.240,1157.780
638,55886.105000,60.207,-34.403,-114.656,177.364,-336.924,-368.503,1095.500,-328.240,1282.780
639,55886.126000,69.996,-41.486,-102.795,177.357,-343.700,-364.557,1000.500,-189.240,1440.780
640,55886.142000,74.891,-46.545,-95.876,168.424,-356.210,-350.602,859.500,-336.240,1576.780
641,55886.184000,64.122,-45.534,-91.923,165.482,-364.894,-345.617,706.500,-613.240,1710.780
642,55886.198000,37.690,-45.534,-96.865,150.741,-386.059,-330.565,582.500,-748.240,1842.780
643,55886.207000,-3.426,-45.534,-110.703,142.915,-395.666,-325.493,534.500,-545.240,1978.780
644,55886.229000,-24.964,-42.498,-103.784,113.512,-407.017,-316.100,500.500,-195.240,2043.780
645,55886.247000,-40.627,-59.700,-90.934,93.043,-415.537,-315.727,451.500,-46.240,2053.780
646,55886.268000,-39.648,-67.794,-86.981,84.221,-419.329,-312.613,300.500,205.760,2043.780
647,55886.288000,-48.459,-70.830,-84.015,54.883,-419.061,-313.079,124.500,300.760,1989.780
648,55886.307000,-57.270,-81.960,-91.923,45.158,-418.001,-316.846,-71.500,307.760,1858.780
649,55886.328000,-75.870,-74.877,-89.946,10.981,-419.622,-319.193,-256.500,506.760,1703.780
650,55886.349000,-82.723,-73.866,-82.039,-1.654,-413.694,-326.852,-470.500,808.760,1545.780
651,55886.369000,-69.017,-58.688,-86.981,-23.124,-398.976,-337.318,-667.500,994.760,1418.780
652,55886.389000,-70.975,-44.522,-101.807,-50.414,-382.266,-351.622,-805.500,1186.760,1331.780
653,55886.403000,-64.122,-33.391,-99.830,-64.080,-374.397,-357.296,-946.500,1344.760,1251.780
654,55886.428000,-47.480,-22.261,-98.842,-89.465,-355.772,-369.667,-1040.500,1358.760,1217.780
655,55886.450000,-26.922,-9.107,-118.610,-108.137,-344.961,-370.333,-1264.500,1080.760,1150.780
656,55886.474000,-38.669,31.368,-130.471,-135.573,-329.227,-375.773,-1382.500,823.760,1085.780
657,55886.494000,-74.891,53.628,-123.552,-146.434,-320.424,-374.607,-1460.500,1096.760,1074.780
658,55886.514000,-89.576,64.759,-123.552,-173.873,-295.011,-384.980,-1555.500,1604.760,991.780
659,55886.537000,-73.912,59.700,-125.529,-202.403,-266.693,-390.415,-1737.500,1705.760,784.780
660,55886.559000,-39.648,55.652,-139.367,-223.057,-258.769,-388.090,-1983.500,1251.760,518.780
661,55886.579000,-48.459,102.198,-156.170,-249.810,-241.125,-377.793,-2108.500,1065.760,304.780
662,55886.607000,-80.765,134.577,-157.158,-267.591,-226.456,-375.527,-2143.500,1210.760,107.780
663,55886.625000,-42.585,162.909,-158.147,-288.465,-204.025,-368.292,-2228.500,1695.760,-17.220
664,55886.639000,-22.027,173.028,-169.019,-304.262,-194.212,-365.071,-2323.500,1782.760,-293.220
665,55886.663000,-11.258,196.300,-199.660,-323.298,-177.614,-348.018,-2425.500,1549.760,-530.220
666,55886.685000,-14.195,240.822,-205.591,-339.415,-166.850,-327.072,-2472.500,1331.760,-703.220
667,55886.703000,-15.174,252.964,-219.429,-364.096,-157.929,-318.770,-2448.500,1356.760,-837.220
668,55886.728000,24.964,262.071,-232.278,-380.177,-154.907,-295.847,-2438.500,1286.760,-992.220
669,55886.732000,22.027,290.403,-256.000,-382.315,-157.803,-283.992,-2402.500,804.760,-1167.220
670,55886.750000,-4.405,305.581,-260.942,-398.394,-158.652,-259.095,-2278.500,710.760,-1282.220
671,55886.778000,6.363,321.771,-281.699,-415.236,-160.449,-245.997,-2227.500,831.760,-1362.220
672,55886.800000,14.195,320.759,-294.548,-412.609,-170.172,-223.390,-2082.500,1023.760,-1580.220
673,55886.823000,31.816,335.937,-311.351,-415.622,-173.053,-217.426,-1921.500,1061.760,-1820.220
674,55886.843000,36.711,347.067,-320.247,-419.749,-183.677,-199.621,-1672.500,1023.760,-1927.220
675,55886.865000,41.606,349.091,-314.317,-415.875,-198.233,-189.828,-1355.500,1095.760,-1909.220
676,55886.888000,50.417,361.233,-313.328,-406.997,-207.988,-188.989,-1055.500,1102.760,-1953.220
677,55886.903000,51.396,355.162,-323.212,-400.101,-220.630,-185.158,-745.500,1009.760,-2046.220
678,55886.926000,34.753,339.984,-322.224,-402.879,-226.402,-191.009,-392.500,1194.760,-1995.220
679,55886.945000,55.312,337.960,-306.409,-386.890,-243.948,-201.116,-41.500,1662.760,-1787.220
680,55886.973000,80.765,339.984,-294.548,-379.020,-239.177,-206.183,132.500,1744.760,-1696.220
681,55887.5000,73.912,328.854,-282.687,-365.839,-247.978,-228.064,483.500,1584.760,-1559.220
682,55887.19000,73.912,318.735,-272.803,-350.746,-250.024,-250.971,820.500,1549.760,-1401.220
683,55887.37000,97.407,310.640,-255.012,-343.698,-249.107,-262.910,1064.500,1491.760,-1212.220
684,55887.50000,95.449,314.688,-264.896,-325.548,-253.109,-291.776,1234.500,1059.760,-1111.220
685,55887.64000,64.122,311.652,-271.815,-314.698,-251.266,-297.877,1442.500,897.760,-1058.220
686,55887.94000,60.207,295.462,-266.873,-294.705,-248.516,-323.829,1669.500,1147.760,-981.220
687,55887.117000,88.597,290.403,-258.965,-273.941,-247.723,-336.996,1844.500,1261.760,-904.220
688,55887.137000,114.050,281.296,-246.116,-247.966,-240.181,-371.920,1917.500,1213.760,-846.220
689,55887.157000,125.797,276.237,-245.127,-215.348,-234.649,-394.161,2035.500,935.760,-817.220
690,55887.179000,129.713,279.273,-241.174,-204.421,-233.770,-404.200,2147.500,762.760,-718.220
691,55887.194000,128.734,263.083,-245.127,-169.898,-226.322,-424.509,2283.500,849.760,-518.220
692,55887.217000,146.356,249.929,-225.359,-151.101,-222.608,-438.628,2386.500,964.760,-280.220
693,55887.234000,164.956,235.763,-201.637,-116.710,-206.457,-455.991,2435.500,783.760,-24.220
694,55887.257000,171.809,213.502,-182.857,-94.101,-208.592,-461.311,2420.500,485.760,211.780
695,55887.279000,160.061,189.217,-181.869,-58.694,-205.998,-473.754,2384.500,307.760,420.780
696,55887.305000,157.124,168.980,-171.985,-41.083,-200.351,-477.026,2335.500,209.760,584.780
697,55887.319000,150.272,148.743,-158.147,-2.852,-200.694,-481.639,2305.500,164.760,651.780
698,55887.338000,148.314,119.399,-157.158,21.567,-201.887,-479.117,2217.500,50.760,774.780
699,55887.359000,147.335,100.174,-153.205,40.194,-207.861,-478.455,2091.500,-88.240,847.780
700,55887.387000,129.713,89.043,-156.170,69.507,-211.034,-475.032,1981.500,-194.240,921.780
701,55887.400000,123.839,64.759,-165.066,80.324,-218.872,-474.230,1886.500,-201.240,968.780
702,55887.427000,116.008,51.605,-167.042,97.818,-226.782,-463.701,1811.500,-188.240,1008.780
703,55887.442000,103.281,40.474,-157.158,115.475,-233.715,-463.021,1712.500,-105.240,1063.780
704,55887.464000,114.050,13.154,-159.135,125.105,-235.749,-453.344,1571.500,-195.240,1080.780
705,55887.482000,113.071,1.012,-167.042,144.618,-250.449,-442.843,1436.500,-353.240,1051.780
706,55887.499000,104.260,2.024,-166.054,159.254,-257.360,-437.187,1391.500,-383.240,1037.780
707,55887.522000,85.660,-6.071,-159.135,165.041,-267.097,-427.434,1340.500,-247.240,1054.780
708,55887.542000,88.597,-33.391,-153.205,162.115,-271.909,-425.408,1237.500,-78.240,1120.780
709,55887.564000,110.134,-41.486,-149.251,168.908,-286.493,-414.682,1090.500,-241.240,1171.780
710,55887.586000,100.344,-43.510,-147.274,172.807,-296.209,-408.832,979.500,-548.240,1243.780
711,55887.601000,85.660,-38.451,-144.309,173.651,-311.712,-393.078,932.500,-666.240,1317.780
712,55887.627000,50.417,-47.557,-136.402,167.758,-328.114,-383.110,867.500,-496.240,1405.780
713,55887.654000,49.438,-58.688,-125.529,159.915,-335.787,-378.040,731.500,-360.240,1450.780
714,55887.687000,48.459,-51.605,-114.656,161.859,-353.228,-368.209,590.500,-353.240,1500.780
715,55887.705000,33.774,-46.545,-103.784,146.152,-356.960,-363.005,535.500,-270.240,1543.780
716,55887.714000,15.174,-63.747,-111.691,137.304,-363.657,-356.934,440.500,-119.240,1635.780
717,55887.728000,17.132,-65.771,-105.761,126.561,-373.237,-352.795,330.500,-38.240,1664.780
718,55887.742000,4.405,-71.842,-102.795,110.940,-376.965,-352.514,205.500,46.760,1690.780
719,55887.769000,1.468,-66.783,-110.703,87.631,-382.549,-358.986,55.500,58.760,1681.780
720,55887.794000,-5.384,-53.628,-120.587,69.855,-385.302,-347.839,-79.500,-65.240,1671.780
721,55887.814000,-36.711,-53.628,-125.529,53.300,-391.921,-348.523,-146.500,-68.240,1702.780
722,55887.837000,-48.459,-55.652,-120.587,41.532,-390.848,-347.332,-237.500,230.760,1756.780
723,55887.854000,-31.816,-43.510,-125.529,9.301,-387.647,-351.688,-304.500,331.760,1774.780
724,55887.877000,-47.480,-23.273,-123.552,-4.370,-392.361,-350.456,-445.500,282.760,1765.780
725,55887.894000,-58.249,-25.296,-123.552,-31.806,-380.499,-353.922,-557.500,269.760,1763.780
726,55887.917000,-55.312,-28.332,-126.517,-50.449,-378.397,-351.626,-707.500,359.760,1723.780
727,55887.939000,-63.143,-6.071,-140.355,-82.680,-373.260,-356.968,-874.500,192.760,1619.780
728,55887.977000,-110.134,19.225,-152.216,-110.323,-361.410,-348.617,-912.500,217.760,1547.780
729,55887.995000,-116.987,3.036,-148.263,-119.018,-358.420,-356.343,-911.500,799.760,1490.780
730,55888.14000,-72.933,15.178,-131.459,-145.442,-338.822,-365.743,-1022.500,1146.760,1342.780
731,55888.20000,-69.017,26.308,-118.610,-156.277,-330.985,-365.560,-1211.500,959.760,1188.780
732,55888.43000,-88.597,47.557,-126.517,-193.585,-313.232,-366.890,-1304.500,879.760,1132.780
733,55888.52000,-107.197,52.617,-128.494,-203.459,-303.469,-366.727,-1455.500,978.760,1003.780
734,55888.70000,-96.428,62.735,-129.483,-226.064,-286.815,-369.299,-1612.500,1215.760,798.780
735,55888.98000,-85.660,83.984,-126.517,-252.811,-256.588,-365.908,-1786.500,1288.760,548.780
736,55888.112000,-72.933,97.138,-149.251,-266.694,-245.827,-360.753,-1989.500,1233.760,337.780
737,55888.137000,-62.164,127.494,-156.170,-289.532,-230.155,-349.538,-2175.500,1174.760,142.780
738,55888.162000,-58.249,151.779,-155.181,-307.311,-221.293,-344.312,-2329.500,1254.760,-29.220
739,55888.183000,-51.396,158.862,-179.892,-336.141,-205.574,-326.100,-2478.500,1255.760,-217.220
740,55888.204000,-41.606,186.182,-200.649,-338.256,-199.758,-320.163,-2581.500,1106.760,-464.220
741,55888.227000,-56.291,212.490,-204.602,-362.261,-189.895,-295.138,-2591.500,1128.760,-580.220
742,55888.249000,-50.417,242.846,-222.394,-384.136,-180.039,-279.996,-2586.500,1469.760,-764.220
743,55888.267000,-17.132,259.036,-223.382,-390.338,-172.261,-265.128,-2558.500,1672.760,-958.220
744,55888.289000,8.321,280.285,-238.208,-405.412,-177.958,-239.259,-2538.500,1426.760,-1291.220
745,55888.312000,-2.447,308.617,-258.965,-409.437,-180.832,-231.309,-2419.500,1109.760,-1575.220
746,55888.334000,-19.090,330.877,-273.792,-416.692,-185.632,-205.579,-2204.500,1174.760,-1740.220
747,55888.354000,-14.195,343.020,-279.722,-415.677,-195.318,-202.632,-1918.500,1539.760,-1765.220
748,55888.369000,17.132,336.949,-273.792,-416.827,-199.190,-190.794,-1657.500,1657.760,-1770.220
749,55888.387000,48.459,349.091,-277.745,-417.864,-209.832,-181.903,-1543.500,1499.760,-1893.220
750,55888.400000,15.174,356.174,-301.467,-414.952,-216.635,-177.025,-1264.500,1064.760,-1947.220
751,55888.428000,-17.132,349.091,-308.386,-408.948,-229.264,-178.100,-916.500,1301.760,-1976.220
752,55888.442000,23.006,354.150,-307.398,-398.097,-235.164,-180.254,-584.500,1629.760,-1997.220
753,55888.469000,31.816,358.198,-315.305,-391.869,-245.844,-195.119,-233.500,1593.760,-1955.220
754,55888.500000,28.880,348.079,-299.490,-381.987,-250.767,-198.241,93.500,1695.760,-1830.220
755,55888.517000,67.059,351.115,-300.479,-367.794,-257.639,-223.096,384.500,1546.760,-1745.220
756,55888.537000,69.996,343.020,-312.340,-363.750,-258.636,-230.057,661.500,1353.760,-1598.220
757,55888.554000,65.101,336.949,-321.236,-338.801,-266.574,-254.116,983.500,1498.760,-1405.220
758,55888.574000,74.891,330.877,-316.293,-325.589,-261.822,-284.874,1150.500,1559.760,-1312.220
759,55888.602000,103.281,325.818,-307.398,-310.642,-264.844,-298.917,1461.500,1410.760,-1187.220
760,55888.615000,111.113,318.735,-303.444,-281.860,-262.176,-324.041,1730.500,1056.760,-1144.220
761,55888.635000,106.218,305.581,-302.456,-270.881,-261.294,-337.034,1959.500,944.760,-1073.220
762,55888.658000,112.092,304.569,-286.641,-242.003,-261.523,-366.094,2174.500,1029.760,-945.220
763,55888.675000,121.881,290.403,-265.884,-221.186,-260.727,-382.214,2336.500,1053.760,-774.220
764,55888.698000,139.503,276.237,-241.174,-186.631,-249.406,-406.466,2422.500,830.760,-642.220
765,55888.715000,144.398,268.142,-231.290,-146.237,-245.884,-424.905,2474.500,576.760,-520.220
766,55888.729000,141.461,261.059,-209.544,-125.498,-247.996,-435.114,2521.500,536.760,-393.220
767,55888.762000,137.545,238.798,-196.695,-84.221,-239.648,-450.621,2525.500,597.760,-312.220
768,55888.782000,150.272,216.538,-189.776,-72.438,-232.977,-456.744,2489.500,701.760,-97.220
769,55888.807000,169.851,193.265,-182.857,-26.424,-228.555,-461.501,2413.500,602.760,133.780
770,55888.827000,182.577,178.087,-170.008,-11.592,-226.743,-471.610,2360.500,216.760,292.780
771,55888.844000,150.272,158.862,-168.031,28.413,-224.211,-467.398,2314.500,123.760,476.780
772,55888.863000,148.314,107.257,-162.100,55.847,-230.265,-466.892,2218.500,147.760,664.780
773,55888.884000,139.503,100.174,-164.077,61.693,-233.224,-464.039,2100.500,14.760,847.780
774,55888.907000,121.881,88.032,-158.147,94.893,-237.402,-458.714,2025.500,-88.240,995.780
775,55888.949000,114.050,65.771,-154.193,109.563,-240.440,-457.001,1952.500,-70.240,1114.780
776,55888.968000,114.050,50.593,-147.274,123.178,-250.248,-447.386,1907.500,-50.240,1164.780
777,55888.977000,107.197,33.391,-137.390,139.779,-256.208,-442.751,1800.500,-97.240,1264.780
778,55888.995000,102.302,7.083,-139.367,153.394,-267.953,-432.149,1666.500,-188.240,1346.780
779,55889.10000,92.512,1.012,-137.390,152.412,-286.334,-422.266,1523.500,-352.240,1386.780
780,55889.33000,71.954,-6.071,-133.436,160.101,-286.413,-414.526,1415.500,-409.240,1414.780
781,55889.47000,64.122,-14.166,-117.622,164.956,-306.786,-401.790,1319.500,-218.240,1478.780
782,55889.60000,69.017,-28.332,-103.784,168.758,-307.796,-394.965,1192.500,-12.240,1551.780
783,55889.88000,60.207,-29.344,-105.761,168.804,-322.311,-390.027,1052.500,68.760,1640.780
784,55889.102000,56.291,-39.462,-90.934,163.861,-324.206,-385.999,996.500,144.760,1661.780
785,55889.127000,32.795,-55.652,-84.015,152.198,-330.870,-386.769,874.500,387.760,1671.780
786,55889.154000,38.669,-78.925,-84.015,147.323,-328.889,-388.654,695.500,696.760,1694.780
787,55889.174000,51.396,-77.913,-85.992,135.623,-325.876,-392.389,453.500,738.760,1692.780
788,55889.197000,33.774,-73.866,-79.073,119.111,-331.525,-396.028,235.500,579.760,1715.780
789,55889.224000,24.964,-76.901,-65.236,112.289,-334.365,-395.904,17.500,498.760,1758.780
790,55889.243000,25.943,-66.783,-58.317,91.793,-336.111,-397.508,-231.500,280.760,1770.780
791,55889.272000,17.132,-54.640,-65.236,71.244,-335.924,-397.145,-468.500,-58.240,1785.780
792,55889.279000,-13.216,-40.474,-92.911,41.875,-345.337,-390.707,-605.500,-240.240,1826.780
793,55889.302000,-44.543,-35.415,-93.900,34.974,-347.213,-386.645,-660.500,-187.240,1840.780
794,55889.319000,-55.312,-24.285,-103.784,1.783,-347.874,-389.995,-806.500,43.760,1867.780
795,55889.342000,-55.312,-10.119,-108.726,-35.434,-347.538,-387.368,-949.500,171.760,1861.780
796,55889.362000,-74.891,-1.012,-114.656,-51.064,-348.362,-388.075,-1074.500,52.760,1769.780
797,55889.370000,-95.449,5.059,-123.552,-84.430,-339.354,-386.511,-1171.500,104.760,1630.780
798,55889.389000,-114.050,14.166,-150.239,-101.109,-334.366,-386.221,-1248.500,285.760,1493.780
799,55889.422000,-125.797,21.249,-153.205,-136.494,-318.568,-384.629,-1301.500,643.760,1322.780
800,55889.439000,-132.650,27.320,-143.320,-143.353,-315.603,-385.496,-1395.500,1010.760,1115.780
801,55889.462000,-111.113,36.427,-132.448,-171.882,-293.091,-387.971,-1565.500,1152.760,865.780
802,55889.479000,-88.597,50.593,-135.413,-196.566,-268.684,-387.563,-1671.500,1115.760,739.780
803,55889.502000,-82.723,78.925,-158.147,-217.185,-264.629,-385.234,-1858.500,1019.760,502.780
804,55889.527000,-84.681,91.067,-162.100,-245.843,-245.029,-378.843,-1991.500,1110.760,264.780
805,55889.543000,-61.185,103.209,-172.973,-253.742,-239.155,-377.726,-2139.500,1180.760,17.780
806,55889.569000,-36.711,127.494,-185.822,-282.529,-220.530,-363.456,-2246.500,1167.760,-197.220
807,55889.589000,-42.585,147.731,-203.614,-293.381,-212.693,-362.288,-2270.500,1305.760,-316.220
808,55889.612000,-22.027,163.921,-206.579,-316.271,-197.024,-348.119,-2260.500,1471.760,-448.220
809,55889.629000,11.258,178.087,-210.533,-329.349,-186.281,-333.134,-2251.500,1319.760,-657.220
810,55889.652000,19.090,183.146,-227.336,-347.162,-179.357,-324.951,-2267.500,1108.760,-874.220
811,55889.674000,7.342,213.502,-250.069,-365.139,-175.346,-305.933,-2252.500,797.760,-945.220
812,55889.694000,-17.132,246.893,-251.058,-368.282,-179.203,-292.091,-2159.500,930.760,-1016.220
813,55889.722000,-13.216,269.154,-238.208,-380.328,-174.273,-277.117,-2076.500,1282.760,-1095.220
814,55889.740000,11.258,276.237,-241.174,-391.212,-176.118,-269.046,-2025.500,1294.760,-1302.220
815,55889.768000,21.048,290.403,-253.035,-400.346,-179.928,-248.207,-1955.500,1043.760,-1561.220
816,55889.777000,10.279,302.545,-263.907,-397.478,-183.830,-242.346,-1802.500,931.760,-1683.220
817,55889.797000,-14.195,310.640,-280.710,-401.519,-194.449,-229.464,-1553.500,1305.760,-1691.220
818,55889.819000,-25.943,304.569,-272.803,-404.533,-195.394,-224.488,-1299.500,1716.760,-1804.220
819,55889.839000,-5.384,312.664,-282.687,-400.626,-200.270,-221.598,-1179.500,1777.760,-1926.220
820,55889.863000,18.111,328.854,-289.606,-392.579,-212.912,-227.632,-911.500,1609.760,-2166.220
821,55889.878000,19.090,332.901,-291.583,-388.690,-213.917,-225.731,-596.500,1790.760,-2166.220
822,55889.899000,43.564,333.913,-289.606,-380.542,-216.873,-242.607,-239.500,2250.760,-1991.220
823,55889.919000,71.954,340.996,-290.595,-370.627,-215.987,-250.659,152.500,2503.760,-1797.220
824,55889.942000,126.776,326.830,-263.907,-353.622,-213.214,-273.606,524.500,2264.760,-1639.220
825,55889.959000,144.398,317.723,-259.954,-343.440,-209.409,-298.402,825.500,1972.760,-1386.220
826,55889.982000,169.851,320.759,-269.838,-337.362,-207.515,-311.309,1060.500,1838.760,-1126.220
827,55890.5000,153.208,305.581,-264.896,-316.497,-193.165,-337.291,1319.500,1762.760,-862.220
828,55890.25000,165.935,286.356,-246.116,-307.485,-185.490,-353.211,1454.500,1813.760,-723.220
829,55890.52000,200.199,279.273,-243.151,-288.585,-172.091,-378.172,1671.500,1762.760,-482.220
830,55890.52000,178.662,274.213,-251.058,-273.737,-166.408,-391.239,1811.500,1111.760,-339.220
831,55890.79000,134.608,270.166,-259.954,-248.012,-157.912,-412.378,1973.500,696.760,-227.220
832,55890.99000,126.776,265.107,-248.093,-214.549,-139.813,-433.665,2176.500,1022.760,-79.220
833,55890.121000,165.935,247.905,-214.486,-205.564,-129.236,-449.587,2322.500,1404.760,102.780
834,55890.142000,207.052,231.715,-193.730,-171.113,-115.985,-468.917,2352.500,1073.760,213.780
835,55890.164000,203.136,217.549,-193.730,-147.448,-111.349,-482.139,2328.500,260.760,241.780
836,55890.182000,166.914,200.348,-200.649,-112.084,-113.598,-489.653,2326.500,-37.240,266.780
837,55890.207000,153.208,194.277,-199.660,-97.329,-112.759,-494.838,2320.500,-42.240,295.780
838,55890.229000,201.178,166.957,-172.973,-58.104,-109.238,-502.427,2303.500,344.760,406.780
839,55890.247000,254.042,150.767,-172.973,-40.369,-111.327,-508.645,2210.500,81.760,512.780
840,55890.267000,240.337,153.802,-181.869,-6.121,-115.510,-507.277,2120.500,-563.240,613.780
841,55890.287000,208.031,142.672,-175.938,28.129,-125.501,-502.949,2113.500,-620.240,821.780
842,55890.307000,211.946,122.435,-157.158,46.791,-133.409,-503.270,2113.500,-384.240,1055.780
843,55890.333000,215.862,96.126,-146.286,77.100,-140.461,-498.876,2027.500,-370.240,1296.780
844,55890.352000,209.010,84.996,-145.297,94.776,-151.265,-497.207,1908.500,-646.240,1475.780
845,55890.384000,183.556,78.925,-141.344,115.253,-175.653,-480.805,1871.500,-849.240,1529.780
846,55890.393000,136.566,55.652,-139.367,126.098,-190.265,-478.026,1840.500,-1045.240,1593.780
847,55890.410000,118.945,29.344,-156.170,143.638,-210.756,-463.546,1771.500,-846.240,1632.780
848,55890.432000,105.239,20.237,-147.274,154.328,-227.312,-450.918,1691.500,-619.240,1666.780
849,55890.453000,92.512,7.083,-136.402,162.125,-240.936,-442.180,1627.500,-475.240,1676.780
850,55890.480000,92.512,-3.036,-123.552,175.742,-260.423,-427.631,1554.500,-455.240,1681.780
851,55890.493000,81.744,-28.332,-105.761,175.710,-270.104,-420.728,1445.500,-509.240,1690.780
852,55890.510000,80.765,-49.581,-102.795,176.650,-288.505,-408.910,1300.500,-553.240,1643.780
853,55890.540000,64.122,-54.640,-105.761,182.481,-301.143,-400.138,1147.500,-436.240,1619.780
854,55890.568000,51.396,-69.818,-104.772,180.449,-313.713,-389.258,1065.500,-272.240,1639.780
855,55890.585000,74.891,-92.079,-102.795,174.574,-330.114,-380.275,867.500,-160.240,1626.780
856,55890.599000,64.122,-81.960,-99.830,161.768,-335.810,-372.166,677.500,-361.240,1584.780
857,55890.619000,32.795,-76.901,-92.911,157.928,-355.129,-366.169,525.500,-327.240,1600.780
858,55890.639000,32.795,-72.854,-76.108,145.148,-355.984,-362.004,353.500,-160.240,1617.780
859,55890.663000,18.111,-59.700,-75.120,121.779,-366.411,-362.563,189.500,-86.240,1701.780
860,55890.685000,18.111,-55.652,-62.270,114.888,-373.127,-356.526,36.500,-26.240,1795.780
861,55890.702000,-7.342,-41.486,-53.375,92.435,-374.855,-358.096,-124.500,87.760,1903.780
862,55890.719000,-23.985,-36.427,-40.525,63.108,-381.362,-355.600,-317.500,182.760,1977.780
863,55890.742000,-30.837,-31.368,-42.502,53.427,-383.203,-360.349,-408.500,194.760,1976.780
864,55890.759000,-52.375,-23.273,-65.236,14.210,-381.883,-355.719,-531.500,92.760,1932.780
865,55890.779000,-95.449,-29.344,-83.027,-2.356,-381.728,-359.364,-638.500,175.760,1828.780
866,55890.805000,-113.071,-47.557,-76.108,-28.820,-372.779,-360.875,-822.500,482.760,1676.780
867,55890.830000,-131.671,-34.403,-70.178,-49.326,-369.686,-364.454,-1069.500,699.760,1531.780
868,55890.863000,-129.713,-20.237,-90.934,-79.663,-353.924,-371.811,-1228.500,900.760,1362.780
869,55890.882000,-116.987,-10.119,-120.587,-89.521,-340.289,-374.606,-1365.500,939.760,1092.780
870,55890.895000,-118.945,8.095,-129.483,-116.887,-328.423,-382.011,-1533.500,1050.760,836.780
871,55890.904000,-99.365,23.273,-130.471,-147.320,-311.698,-384.446,-1634.500,1111.760,731.780
872,55890.927000,-92.512,39.462,-135.413,-158.146,-302.893,-385.249,-1840.500,1200.760,532.780
873,55890.955000,-81.744,49.581,-152.216,-187.705,-280.376,-384.752,-2039.500,1261.760,333.780
874,55890.969000,-71.954,68.806,-168.031,-205.363,-273.443,-385.433,-2170.500,1265.760,126.780
875,55890.989000,-57.270,96.126,-191.753,-234.022,-251.907,-380.029,-2219.500,1234.760,-81.220
876,55891.7000,-47.480,116.364,-192.741,-245.904,-242.129,-376.876,-2274.500,1303.760,-255.220
877,55891.24000,-28.880,120.411,-207.568,-268.682,-225.485,-369.602,-2361.500,1335.760,-426.220
878,55891.38000,-3.426,148.743,-218.440,-293.458,-215.601,-356.377,-2408.500,1196.760,-581.220
879,55891.71000,-1.468,172.016,-225.359,-308.380,-207.738,-346.278,-2352.500,1129.760,-697.220
880,55891.93000,-22.027,209.455,-255.012,-328.246,-199.834,-333.138,-2300.500,1171.760,-729.220
881,55891.115000,-18.111,224.632,-242.162,-331.338,-195.945,-326.196,-2158.500,1336.760,-853.220
882,55891.135000,17.132,232.727,-228.324,-351.257,-184.171,-312.075,-2061.500,1404.760,-1028.220
883,55891.157000,18.111,241.834,-255.012,-352.313,-185.135,-307.133,-2095.500,957.760,-1258.220
884,55891.180000,-27.901,263.083,-274.780,-364.399,-192.791,-283.283,-2143.500,468.760,-1452.220
885,55891.195000,-66.080,286.356,-283.676,-374.398,-201.425,-266.361,-2054.500,636.760,-1570.220
886,55891.218000,-45.522,297.486,-272.803,-380.424,-201.380,-257.394,-1830.500,1190.760,-1683.220
887,55891.238000,-21.048,296.474,-276.757,-385.367,-207.146,-251.393,-1608.500,1420.760,-1812.220
888,55891.258000,9.300,302.545,-283.676,-381.522,-211.057,-245.550,-1447.500,1350.760,-1964.220
889,55891.280000,1.468,325.818,-296.525,-382.507,-219.760,-240.600,-1368.500,1210.760,-2070.220
890,55891.301000,-14.195,331.889,-305.421,-374.668,-226.606,-237.777,-1136.500,1111.760,-2203.220
891,55891.322000,5.384,324.806,-306.409,-369.625,-239.224,-239.821,-806.500,1444.760,-2153.220
892,55891.338000,52.375,320.759,-306.409,-353.725,-247.096,-249.937,-436.500,1584.760,-1983.220
893,55891.364000,69.996,318.735,-318.270,-353.681,-249.997,-250.919,-96.500,1015.760,-1810.220
894,55891.388000,22.027,318.735,-341.004,-342.673,-259.761,-259.963,222.500,428.760,-1655.220
895,55891.404000,7.342,322.783,-342.981,-328.791,-268.586,-266.105,582.500,470.760,-1561.220
896,55891.427000,19.090,338.972,-339.027,-306.967,-278.444,-278.293,879.500,591.760,-1581.220
897,55891.444000,31.816,347.067,-328.154,-303.754,-282.327,-292.127,1093.500,663.760,-1620.220
898,55891.467000,51.396,329.866,-318.270,-271.073,-289.374,-311.402,1191.500,862.760,-1610.220
899,55891.487000,69.996,324.806,-305.421,-264.067,-289.427,-320.386,1403.500,948.760,-1569.220
900,55891.509000,85.660,317.723,-299.490,-233.302,-289.679,-345.541,1639.500,1018.760,-1426.220
901,55891.524000,114.050,313.676,-290.595,-199.671,-284.153,-369.770,1856.500,1076.760,-1255.220
902,55891.550000,121.881,291.415,-270.826,-178.864,-282.390,-385.891,2061.500,1013.760,-1039.220
903,55891.559000,125.797,276.237,-268.849,-138.524,-271.127,-405.323,2231.500,1034.760,-764.220
904,55891.582000,150.272,261.059,-245.127,-125.605,-266.392,-419.339,2373.500,996.760,-475.220
905,55891.604000,149.293,240.822,-231.290,-89.222,-258.000,-434.759,2480.500,726.760,-202.220
906,55891.624000,148.314,217.549,-223.382,-65.687,-256.275,-439.116,2513.500,643.760,-78.220
907,55891.647000,160.061,202.372,-215.475,-23.500,-251.812,-448.727,2528.500,453.760,126.780
908,55891.669000,158.103,184.158,-195.707,12.791,-252.136,-454.291,2511.500,157.760,252.780
909,55891.692000,142.440,145.708,-201.637,22.550,-253.194,-452.494,2471.500,75.760,432.780
910,55891.717000,138.524,129.518,-201.637,58.745,-252.556,-453.135,2434.500,176.760,606.780
911,55891.737000,146.356,117.375,-184.834,72.410,-254.618,-450.421,2408.500,34.760,724.780
912,55891.757000,134.608,96.126,-179.892,105.568,-263.638,-440.168,2359.500,-60.240,829.780
913,55891.789000,128.734,71.842,-166.054,123.130,-265.737,-436.538,2264.500,-44.240,940.780
914,55891.808000,128.734,45.534,-160.124,148.418,-277.592,-422.205,2119.500,-183.240,1035.780
915,55891.819000,121.881,24.285,-164.077,169.852,-286.504,-412.729,2048.500,-282.240,1060.780
916,55891.839000,100.344,20.237,-154.193,173.725,-295.253,-405.896,1962.500,-388.240,1076.780
917,55891.857000,77.828,1.012,-136.402,191.246,-308.001,-394.378,1883.500,-278.240,1100.780
918,55891.893000,78.807,-32.379,-137.390,196.945,-315.807,-380.687,1702.500,-252.240,1111.780
919,55891.897000,82.723,-34.403,-138.378,201.720,-327.473,-367.960,1511.500,-356.240,1096.780
920,55891.919000,57.270,-40.474,-145.297,202.553,-334.266,-356.154,1407.500,-273.240,1128.780
921,55891.939000,50.417,-54.640,-137.390,209.390,-351.751,-346.410,1323.500,-68.240,1172.780
922,55891.962000,45.522,-54.640,-124.541,212.275,-359.524,-339.560,1215.500,54.760,1259.780
923,55891.984000,57.270,-62.735,-111.691,215.108,-363.428,-331.730,1069.500,48.760,1344.780
924,55892.2000,55.312,-48.569,-101.807,195.489,-374.868,-322.510,1008.500,-68.240,1407.780
925,55892.24000,35.732,-52.617,-94.888,197.438,-377.790,-320.572,904.500,45.760,1580.780
926,55892.52000,28.880,-56.664,-82.039,180.868,-392.153,-316.324,784.500,200.760,1740.780
927,55892.73000,23.006,-66.783,-67.212,169.136,-398.821,-313.155,629.500,248.760,1847.780
928,55892.90000,17.132,-73.866,-73.143,148.633,-407.343,-310.814,452.500,129.760,1907.780
929,55892.105000,5.384,-71.842,-78.085,139.907,-414.034,-311.636,310.500,44.760,1927.780
930,55892.127000,-23.985,-67.794,-77.097,117.314,-411.898,-307.301,188.500,214.760,1951.780
931,55892.144000,-43.564,-76.901,-66.224,85.094,-413.537,-309.682,28.500,470.760,1948.780
932,55892.169000,-38.669,-75.889,-71.166,72.487,-416.318,-314.378,-66.500,510.760,1938.780
933,55892.182000,-47.480,-63.747,-80.062,40.266,-417.957,-316.760,-272.500,406.760,1882.780
934,55892.213000,-71.954,-43.510,-86.981,23.719,-419.736,-320.403,-476.500,294.760,1819.780
935,55892.233000,-97.407,-29.344,-92.911,-7.604,-410.741,-323.797,-625.500,466.760,1777.780
936,55892.249000,-84.681,-31.368,-100.819,-19.312,-406.761,-327.532,-773.500,775.760,1742.780
937,55892.270000,-82.723,-8.095,-107.737,-51.571,-392.915,-335.838,-932.500,805.760,1642.780
938,55892.293000,-84.681,0.000,-117.622,-79.941,-383.945,-340.269,-1072.500,722.760,1524.780
939,55892.315000,-104.260,25.296,-129.483,-101.478,-376.975,-342.849,-1190.500,687.760,1386.780
940,55892.328000,-122.860,24.285,-134.425,-128.975,-362.212,-344.349,-1283.500,896.760,1219.780
941,55892.360000,-124.818,40.474,-150.239,-144.642,-351.424,-349.006,-1357.500,1054.760,1121.780
942,55892.379000,-116.987,51.605,-151.228,-171.110,-328.925,-357.425,-1477.500,1296.760,888.780
943,55892.408000,-111.113,44.522,-155.181,-177.928,-319.181,-364.206,-1614.500,1501.760,626.780
944,55892.423000,-74.891,74.877,-162.100,-204.552,-294.755,-364.748,-1840.500,1561.760,404.780
945,55892.437000,-77.828,89.043,-162.100,-230.118,-277.109,-366.286,-2037.500,1335.760,170.780
946,55892.458000,-70.975,111.304,-178.903,-245.898,-267.294,-364.049,-2209.500,1216.760,-36.220
947,55892.471000,-61.185,138.625,-192.741,-271.654,-251.594,-353.767,-2337.500,1165.760,-247.220
948,55892.498000,-58.249,155.826,-211.521,-276.747,-244.786,-345.809,-2408.500,1114.760,-448.220
949,55892.513000,-54.333,180.111,-207.568,-302.458,-235.858,-334.536,-2435.500,1178.760,-637.220
950,55892.543000,-43.564,193.265,-215.475,-315.415,-225.109,-326.444,-2459.500,1220.760,-719.220
951,55892.564000,-36.711,217.549,-229.313,-334.293,-220.117,-312.333,-2498.500,1165.760,-860.220
952,55892.584000,-50.417,240.822,-235.243,-351.275,-216.113,-294.317,-2491.500,1102.760,-1020.220
953,55892.604000,-53.354,264.095,-256.988,-361.277,-211.197,-284.302,-2391.500,1192.760,-1227.220
954,55892.624000,-58.249,273.202,-274.780,-361.449,-215.078,-272.481,-2240.500,1378.760,-1441.220
955,55892.644000,-48.459,287.368,-278.734,-367.494,-211.163,-264.503,-2104.500,1594.760,-1633.220
956,55892.659000,-39.648,305.581,-288.618,-378.413,-213.010,-254.463,-1957.500,1653.760,-1807.220
957,55892.685000,-35.732,318.735,-294.548,-380.516,-213.968,-245.564,-1768.500,1714.760,-2004.220
958,55892.699000,-23.985,332.901,-314.317,-382.463,-222.661,-241.582,-1641.500,1772.760,-2171.220
959,55892.717000,10.279,342.008,-331.120,-368.736,-227.624,-240.834,-1319.500,1784.760,-2230.220
960,55892.744000,33.774,350.103,-332.108,-370.571,-233.406,-244.733,-974.500,1648.760,-2266.220
961,55892.762000,51.396,352.126,-342.981,-359.659,-240.271,-249.840,-667.500,1542.760,-2205.220
962,55892.787000,72.933,353.138,-354.842,-354.600,-249.017,-254.842,-355.500,1503.760,-2132.220
963,55892.808000,93.491,345.043,-355.830,-338.596,-254.948,-271.854,13.500,1401.760,-2052.220
964,55892.829000,111.113,332.901,-357.807,-331.660,-255.005,-276.899,401.500,1388.760,-1843.220
965,55892.862000,132.650,323.794,-358.795,-313.684,-255.145,-297.890,806.500,1402.760,-1490.220
966,55892.875000,141.461,317.723,-347.923,-299.734,-258.159,-310.931,1187.500,1344.760,-1173.220
967,55892.889000,152.229,303.557,-317.282,-275.897,-251.577,-334.988,1346.500,1263.760,-1061.220
968,55892.914000,164.956,285.344,-303.444,-250.049,-252.753,-358.086,1587.500,948.760,-893.220
969,55892.932000,161.040,274.213,-291.583,-246.958,-250.835,-367.987,1778.500,643.760,-707.220
970,55892.952000,153.208,263.083,-273.792,-210.514,-245.344,-385.374,1958.500,573.760,-502.220
971,55892.974000,166.914,254.988,-254.023,-200.548,-242.519,-397.367,2073.500,447.760,-356.220
972,55892.989000,165.935,240.822,-242.162,-172.925,-240.819,-411.641,2154.500,291.760,-214.220
973,55893.12000,155.166,226.656,-237.220,-151.138,-244.872,-424.819,2212.500,304.760,-23.220
974,55893.34000,152.229,210.466,-234.255,-118.728,-239.351,-435.244,2256.500,328.760,191.780
975,55893.54000,157.124,195.289,-227.336,-88.222,-239.618,-445.628,2298.500,60.760,330.780
976,55893.77000,143.419,191.241,-219.429,-74.523,-239.742,-445.870,2319.500,-65.240,386.780
977,55893.94000,120.902,174.040,-193.730,-45.990,-243.863,-453.261,2328.500,-139.240,514.780
978,55893.112000,114.050,150.767,-194.718,-23.432,-246.000,-455.626,2276.500,-182.240,639.780
979,55893.129000,108.176,134.577,-196.695,1.014,-252.031,-452.114,2202.500,-268.240,699.780
980,55893.147000,97.407,127.494,-179.892,22.595,-259.967,-451.502,2161.500,-298.240,739.780
981,55893.169000,91.533,96.126,-170.008,44.037,-265.975,-443.999,2062.500,-361.240,798.780
982,55893.200000,104.260,73.866,-170.008,66.616,-283.598,-439.455,1906.500,-633.240,776.780
983,55893.223000,101.323,76.901,-156.170,73.292,-285.606,-428.742,1769.500,-897.240,767.780
984,55893.240000,75.870,53.628,-162.100,90.901,-304.156,-419.188,1637.500,-896.240,763.780
985,55893.263000,75.870,30.356,-170.008,100.585,-315.866,-407.532,1572.500,-781.240,747.780
986,55893.280000,66.080,17.202,-176.927,117.162,-326.667,-398.952,1472.500,-681.240,758.780
987,55893.308000,68.038,-6.071,-167.042,116.081,-330.536,-391.053,1410.500,-461.240,824.780
988,55893.327000,68.038,-20.237,-156.170,124.847,-343.201,-382.333,1352.500,-322.240,920.780
989,55893.340000,69.017,-25.296,-143.320,136.469,-349.122,-372.687,1286.500,-414.240,1000.780
990,55893.354000,58.249,-34.403,-130.471,132.455,-364.578,-358.816,1223.500,-542.240,1072.780
991,55893.382000,49.438,-37.439,-119.598,135.255,-374.292,-346.056,1132.500,-534.240,1173.780
992,55893.399000,36.711,-46.545,-109.714,132.287,-383.946,-339.101,1034.500,-442.240,1318.780
993,55893.419000,17.132,-56.664,-103.784,125.388,-393.565,-331.092,987.500,-365.240,1394.780
994,55893.437000,11.258,-64.759,-99.830,114.548,-396.376,-324.990,888.500,-179.240,1495.780
995,55893.467000,-10.279,-64.759,-99.830,104.705,-405.001,-316.930,775.500,-59.240,1525.780
996,55893.487000,-21.048,-69.818,-96.865,101.831,-409.810,-317.858,680.500,146.760,1585.780
997,55893.508000,-20.069,-65.771,-93.900,91.112,-412.614,-318.650,574.500,384.760,1654.780
998,55893.528000,-21.048,-58.688,-93.900,65.722,-408.508,-323.128,462.500,514.760,1743.780
999,55893.548000,-24.964,-54.640,-84.015,56.033,-411.317,-326.891,345.500,537.760,1841.780
1000,55893.568000,-40.627,-72.854,-74.131,27.682,-408.154,-329.346,180.500,398.760,1839.780
