Sample, Time, ACCX, ACCY, ACCZ, MAGX, MAGY, MAGZ, GYRX, GYRY, GYRZ
0,55702.994000,-40.627,26.308,-248.093,-31.034,-382.455,-341.136,-10.500,29.760,11.780
1,55703.25000,-39.648,28.332,-247.104,-29.069,-381.505,-342.156,-2.500,17.760,13.780
2,55703.48000,-39.648,28.332,-246.116,-28.073,-383.448,-342.171,2.500,-2.240,9.780
3,55703.66000,-40.627,27.320,-246.116,-35.910,-380.474,-343.021,6.500,-5.240,6.780
4,55703.83000,-39.648,26.308,-246.116,-27.111,-383.458,-341.204,7.500,-1.240,5.780
5,55703.106000,-37.690,26.308,-243.151,-27.069,-380.552,-345.146,8.500,0.760,7.780
6,55703.152000,-37.690,27.320,-241.174,-29.069,-379.569,-343.143,12.500,0.760,9.780
7,55703.166000,-37.690,25.296,-241.174,-32.931,-383.402,-344.054,16.500,-2.240,14.780
8,55703.174000,-37.690,27.320,-240.185,-25.146,-384.443,-341.237,16.500,-12.240,16.780
9,55703.194000,-39.648,27.320,-239.197,-30.012,-385.365,-342.135,14.500,-12.240,15.780
10,55703.212000,-38.669,25.296,-239.197,-34.870,-385.319,-344.018,13.500,5.760,13.780
11,55703.234000,-38.669,25.296,-237.220,-25.093,-386.376,-343.205,7.500,12.760,9.780
12,55703.256000,-37.690,24.285,-238.208,-30.956,-385.354,-344.087,-2.500,-3.240,6.780
13,55703.272000,-37.690,25.296,-238.208,-27.059,-385.391,-343.171,-7.500,-26.240,2.780
14,55703.286000,-40.627,25.296,-237.220,-34.879,-384.351,-344.019,-10.500,-27.240,-1.220
15,55703.313000,-41.606,25.296,-239.197,-30.030,-383.430,-342.137,-11.500,-2.240,3.780
16,55703.331000,-39.648,26.308,-240.185,-27.068,-382.488,-344.159,-10.500,27.760,7.780
17,55703.353000,-39.648,26.308,-238.208,-28.081,-384.417,-341.186,-6.500,42.760,7.780
18,55703.379000,-37.690,23.273,-239.197,-36.879,-383.368,-342.016,-11.500,40.760,5.780
19,55703.397000,-37.690,24.285,-239.197,-29.961,-381.491,-347.062,-21.500,28.760,3.780
20,55703.419000,-39.648,24.285,-238.208,-26.064,-381.527,-346.147,-32.500,37.760,-2.220
21,55703.442000,-37.690,24.285,-241.174,-35.884,-381.440,-344.004,-41.500,36.760,-17.220
22,55703.462000,-33.774,26.308,-243.151,-30.922,-383.417,-347.043,-45.500,6.760,-24.220
23,55703.487000,-36.711,28.332,-246.116,-34.914,-382.418,-343.036,-42.500,-41.240,-24.220
24,55703.504000,-41.606,28.332,-246.116,-30.982,-382.452,-344.090,-29.500,-16.240,-11.220
25,55703.522000,-39.648,29.344,-247.104,-34.862,-380.479,-346.977,-15.500,22.760,2.780
26,55703.539000,-35.732,30.356,-248.093,-33.935,-382.427,-343.053,-0.500,14.760,4.780
27,55703.572000,-36.711,28.332,-245.127,-31.909,-384.376,-346.040,5.500,-1.240,5.780
28,55703.587000,-36.711,28.332,-245.127,-32.039,-381.480,-340.134,5.500,-14.240,6.780
29,55703.618000,-37.690,27.320,-245.127,-35.832,-381.437,-346.959,10.500,-15.240,6.780
30,55703.637000,-40.627,29.344,-244.139,-35.866,-381.439,-344.989,17.500,4.760,5.780
31,55703.666000,-40.627,27.320,-244.139,-33.901,-380.489,-346.009,19.500,22.760,6.780
32,55703.669000,-37.690,28.332,-243.151,-29.025,-382.470,-344.124,21.500,32.760,7.780
33,55703.687000,-34.753,27.320,-242.162,-32.966,-381.468,-343.071,22.500,-2.240,5.780
34,55703.709000,-38.669,27.320,-241.174,-32.966,-381.468,-343.071,21.500,-19.240,0.780
35,55703.727000,-40.627,26.308,-241.174,-30.913,-382.448,-348.029,18.500,3.760,-3.220
36,55703.744000,-37.690,27.320,-240.185,-33.945,-379.523,-344.041,13.500,5.760,-7.220
37,55703.772000,-35.732,27.320,-239.197,-33.961,-381.460,-342.069,9.500,-6.240,-11.220
38,55703.803000,-38.669,26.308,-239.197,-29.978,-381.492,-346.078,5.500,1.760,-9.220
39,55703.812000,-37.690,28.332,-238.208,-29.987,-380.524,-346.079,5.500,12.760,-9.220
40,55703.829000,-36.711,26.308,-238.208,-27.069,-380.552,-345.146,5.500,22.760,-13.220
41,55703.858000,-36.711,26.308,-237.220,-29.051,-383.439,-342.154,-2.500,20.760,-13.220
42,55703.877000,-31.816,26.308,-238.208,-27.969,-383.442,-348.080,-11.500,-6.240,-13.220
43,55703.894000,-36.711,25.296,-237.220,-30.983,-378.581,-346.063,-17.500,-33.240,-8.220
44,55703.918000,-39.648,26.308,-239.197,-34.845,-380.478,-347.962,-16.500,-14.240,-4.220
45,55703.924000,-36.711,25.296,-243.151,-29.952,-382.458,-347.061,-16.500,8.760,-2.220
46,55703.952000,-33.774,27.320,-242.162,-28.003,-383.444,-346.110,-16.500,4.760,-6.220
47,55703.972000,-35.732,25.296,-242.162,-34.957,-381.452,-341.067,-15.500,-13.240,-7.220
48,55703.999000,-39.648,27.320,-245.127,-31.900,-383.408,-347.026,-17.500,-15.240,-6.220
49,55704.17000,-39.648,26.308,-247.104,-34.896,-382.417,-344.021,-14.500,-10.240,-4.220
50,55704.49000,-37.690,26.308,-245.127,-29.970,-380.523,-347.063,-9.500,3.760,-9.220
51,55704.78000,-37.690,28.332,-246.116,-33.883,-382.424,-346.007,-5.500,7.760,-11.220
52,55704.87000,-36.711,29.344,-244.139,-35.901,-381.441,-343.020,-0.500,8.760,-8.220
53,55704.106000,-34.753,28.332,-241.174,-30.956,-383.419,-345.074,3.500,-20.240,-5.220
54,55704.128000,-39.648,26.308,-238.208,-35.884,-379.505,-344.991,6.500,-32.240,-1.220
55,55704.129000,-39.648,27.320,-243.151,-32.905,-380.497,-347.011,2.500,-10.240,-2.220
56,55704.157000,-37.690,28.332,-242.162,-26.106,-386.369,-341.218,1.500,-8.240,-3.220
57,55704.178000,-39.648,28.332,-241.174,-26.064,-383.463,-345.160,1.500,-9.240,-14.220
58,55704.199000,-36.711,28.332,-239.197,-29.996,-381.493,-345.093,3.500,13.760,-17.220
59,55704.221000,-30.837,25.296,-242.162,-34.836,-381.445,-347.961,3.500,25.760,-12.220
60,55704.239000,-31.816,26.308,-240.185,-31.944,-380.507,-346.044,-0.500,-20.240,-7.220
61,55704.257000,-38.669,27.320,-239.197,-26.038,-382.494,-347.131,-3.500,-36.240,0.780
62,55704.275000,-37.690,28.332,-241.174,-29.052,-381.504,-343.141,-1.500,2.760,4.780
63,55704.297000,-34.753,29.344,-242.162,-36.810,-381.429,-346.941,-2.500,15.760,0.780
64,55704.324000,-35.732,27.320,-243.151,-29.043,-380.535,-344.126,-3.500,-9.240,-3.220
65,55704.342000,-36.711,28.332,-244.139,-30.965,-384.387,-344.088,-2.500,-23.240,-3.220
66,55704.364000,-38.669,29.344,-243.151,-32.914,-381.465,-346.026,1.500,-29.240,0.780
67,55704.382000,-41.606,26.308,-243.151,-30.992,-379.549,-345.078,11.500,1.760,6.780
68,55704.399000,-36.711,26.308,-246.116,-28.964,-385.370,-346.091,15.500,18.760,10.780
69,55704.427000,-33.774,28.332,-244.139,-31.018,-378.583,-344.094,13.500,-13.240,5.780
70,55704.448000,-38.669,27.320,-242.162,-33.884,-380.488,-346.994,11.500,-29.240,2.780
71,55704.472000,-40.627,26.308,-244.139,-34.940,-381.451,-342.052,13.500,-11.240,0.780
72,55704.520000,-38.669,27.320,-244.139,-33.874,-383.391,-346.006,17.500,2.760,-5.220
73,55704.520000,-39.648,28.332,-242.162,-27.060,-381.519,-345.145,18.500,-0.240,-7.220
74,55704.533000,-38.669,26.308,-240.185,-27.051,-382.487,-345.144,19.500,-0.240,-2.220
75,55704.556000,-35.732,25.296,-243.151,-30.065,-381.497,-341.154,18.500,3.760,2.780
76,55704.576000,-36.711,26.308,-241.174,-27.995,-384.412,-346.109,19.500,-15.240,2.780
77,55704.588000,-41.606,27.320,-240.185,-34.897,-380.481,-345.007,20.500,-25.240,-0.220
78,55704.617000,-40.627,26.308,-239.197,-21.146,-380.602,-348.204,20.500,9.760,-0.220
79,55704.634000,-37.690,24.285,-240.185,-28.038,-383.446,-344.141,14.500,20.760,-2.220
80,55704.653000,-34.753,25.296,-239.197,-28.064,-382.480,-343.157,5.500,-6.240,-5.220
81,55704.673000,-34.753,24.285,-239.197,-27.060,-381.519,-345.145,-0.500,-25.240,-12.220
82,55704.693000,-36.711,26.308,-238.208,-30.013,-381.494,-344.108,-4.500,-27.240,-13.220
83,55704.716000,-36.711,26.308,-239.197,-28.990,-384.404,-345.107,-5.500,-15.240,-13.220
84,55704.733000,-36.711,24.285,-239.197,-27.068,-382.488,-344.159,-8.500,-6.240,-10.220
85,55704.756000,-36.711,25.296,-240.185,-31.900,-385.344,-346.039,-6.500,12.760,-5.220
86,55704.778000,-37.690,24.285,-240.185,-27.051,-382.487,-345.144,-411.500,17.760,-87.220
87,55704.794000,61.185,-235.763,-232.278,-38.928,-395.938,-330.151,-537.500,-1425.240,536.780
88,55704.823000,-137.545,-36.427,-243.151,-35.099,-403.722,-321.350,140.500,-851.240,-203.220
89,55704.839000,-157.124,5.059,-275.768,-39.005,-400.782,-323.253,273.500,674.760,-243.220
90,55704.859000,-72.933,40.474,-247.104,-34.955,-391.131,-336.134,221.500,889.760,-176.220
91,55704.891000,-38.669,25.296,-237.220,-29.016,-387.309,-342.150,-122.500,851.760,-38.220
92,55704.898000,-14.195,49.581,-253.035,-38.793,-382.380,-344.936,-108.500,474.760,-54.220
93,55704.916000,-2.447,49.581,-257.977,-37.815,-382.389,-344.953,-6.500,3.760,-69.220
94,55704.935000,-26.922,26.308,-256.000,-32.904,-384.368,-345.038,-22.500,-226.240,-59.220
95,55704.962000,-48.459,33.391,-256.000,-32.965,-385.340,-341.098,2.500,-109.240,-12.220
96,55704.984000,-49.438,33.391,-254.023,-30.999,-384.389,-342.118,35.500,52.760,-4.220
97,55705.2000,-44.543,30.356,-248.093,-26.107,-384.433,-342.205,56.500,119.760,0.780
98,55705.23000,-27.901,29.344,-247.104,-28.046,-384.415,-343.155,59.500,25.760,1.780
99,55705.42000,-27.901,28.332,-244.139,-28.055,-385.383,-342.169,56.500,-33.240,-0.220
100,55705.64000,-34.753,28.332,-239.197,-27.094,-383.457,-342.189,52.500,-81.240,0.780
101,55705.87000,-40.627,26.308,-237.220,-32.947,-385.339,-342.083,50.500,-18.240,8.780
102,55705.113000,-34.753,23.273,-234.255,-29.008,-382.469,-345.109,43.500,63.760,18.780
103,55705.138000,-27.901,24.285,-236.232,-30.022,-380.526,-344.109,27.500,52.760,17.780
104,55705.171000,-33.774,25.296,-235.243,-30.999,-384.389,-342.118,14.500,-38.240,9.780
105,55705.190000,-39.648,25.296,-236.232,-32.004,-383.414,-341.117,4.500,-62.240,3.780
106,55705.203000,-41.606,24.285,-238.208,-30.938,-385.353,-345.072,1.500,-17.240,8.780
107,55705.216000,-36.711,25.296,-242.162,-30.038,-384.399,-341.151,-1.500,2.760,9.780
108,55705.236000,-36.711,25.296,-242.162,-30.973,-387.291,-342.115,-2.500,-7.240,7.780
109,55705.263000,-40.627,25.296,-244.139,-26.097,-387.337,-341.217,-1.500,-37.240,8.780
110,55705.263000,216.841,516.047,-191.753,-25.026,-378.629,-351.091,5.500,-34.240,16.780
111,55705.293000,-1.468,-268.142,-159.135,-40.800,-390.108,-338.000,-512.500,-1932.240,2225.780
112,55705.314000,-201.178,47.557,-274.780,-43.855,-397.832,-327.108,-138.500,-1312.240,-201.220
113,55705.331000,-119.924,28.332,-274.780,-42.799,-392.997,-334.024,180.500,331.760,-140.220
114,55705.351000,-57.270,4.047,-256.988,-35.882,-387.248,-341.044,272.500,756.760,-15.220
115,55705.374000,19.090,42.498,-237.220,-42.682,-379.439,-347.824,-250.500,541.760,281.780
116,55705.394000,-24.964,90.055,-251.058,-38.802,-381.413,-344.937,-190.500,280.760,-104.220
117,55705.414000,-18.111,17.202,-272.803,-35.805,-384.340,-346.956,-57.500,-131.240,-95.220
118,55705.459000,-49.438,45.534,-273.792,-39.822,-388.181,-339.004,-73.500,-376.240,-127.220
119,55705.473000,-62.164,35.415,-267.861,-39.831,-387.214,-339.005,-8.500,-154.240,-38.220
120,55705.489000,-41.606,41.486,-255.012,-39.806,-384.309,-341.963,42.500,104.760,17.780
121,55705.503000,-34.753,35.415,-248.093,-33.910,-381.457,-345.024,77.500,157.760,45.780
122,55705.526000,-23.985,32.379,-246.116,-32.922,-382.433,-345.040,86.500,108.760,50.780
123,55705.541000,-24.964,28.332,-243.151,-39.788,-384.308,-342.947,82.500,-49.240,46.780
124,55705.561000,-38.669,28.332,-244.139,-40.732,-384.297,-344.900,79.500,-103.240,39.780
125,55705.579000,-47.480,29.344,-242.162,-36.861,-385.303,-342.014,81.500,-80.240,31.780
126,55705.593000,-41.606,27.320,-236.232,-36.853,-382.399,-343.986,84.500,33.760,33.780
127,55705.621000,-35.732,27.320,-235.243,-34.983,-380.486,-340.084,72.500,56.760,30.780
128,55705.638000,-33.774,27.320,-235.243,-30.974,-383.420,-344.089,60.500,0.760,22.780
129,55705.661000,-39.648,25.296,-234.255,-31.043,-381.488,-341.137,49.500,-25.240,17.780
130,55705.683000,-38.669,23.273,-235.243,-37.814,-384.325,-343.967,36.500,-8.240,18.780
131,55705.701000,-39.648,26.308,-238.208,-32.004,-383.414,-341.117,29.500,-19.240,14.780
132,55705.723000,-39.648,26.308,-237.220,-34.869,-387.255,-343.031,28.500,-25.240,7.780
133,55705.739000,-41.606,24.285,-236.232,-31.017,-384.390,-341.134,27.500,-12.240,8.780
134,55705.763000,-38.669,23.273,-240.185,-31.008,-383.422,-342.119,24.500,3.760,7.780
135,55705.777000,-37.690,25.296,-239.197,-33.925,-387.265,-341.079,17.500,-11.240,7.780
136,55705.804000,-42.585,26.308,-241.174,-31.025,-385.358,-340.148,12.500,-23.240,5.780
137,55705.839000,-42.585,26.308,-237.220,-31.996,-382.445,-342.103,12.500,0.760,0.780
138,55705.858000,-40.627,25.296,-240.185,-24.141,-385.419,-342.238,10.500,-1.240,-5.220
139,55705.872000,-38.669,24.285,-239.197,-30.955,-387.290,-343.100,5.500,-15.240,-8.220
140,55705.897000,-38.669,25.296,-241.174,-30.064,-383.432,-340.167,-0.500,-27.240,-13.220
141,55705.926000,-40.627,26.308,-239.197,-32.956,-384.371,-342.084,0.500,-24.240,-14.220
142,55705.928000,-39.648,25.296,-239.197,-34.939,-385.323,-340.079,-0.500,-3.240,-11.220
143,55705.947000,-37.690,23.273,-240.185,-33.934,-386.298,-341.080,-2.500,9.760,-6.220
144,55705.974000,-34.753,24.285,-239.197,-29.034,-383.438,-343.139,-4.500,7.760,-0.220
145,55705.992000,-35.732,24.285,-237.220,-35.874,-384.344,-343.017,-6.500,-6.240,4.780
146,55706.14000,-35.732,23.273,-238.208,-34.974,-385.325,-338.109,-14.500,0.760,11.780
147,55706.37000,-31.816,24.285,-238.208,-30.946,-388.258,-343.099,-21.500,-17.240,10.780
148,55706.57000,-35.732,23.273,-240.185,-33.000,-381.470,-341.102,-23.500,-8.240,10.780
149,55706.74000,-36.711,23.273,-241.174,-30.020,-386.334,-341.149,-21.500,13.760,15.780
150,55706.92000,-31.816,25.296,-240.185,-38.828,-382.382,-342.967,-30.500,47.760,16.780
151,55706.106000,-26.922,23.273,-242.162,-32.013,-382.446,-341.118,-31.500,59.760,27.780
152,55706.133000,-23.985,26.308,-243.151,-30.991,-381.485,-344.091,-32.500,60.760,39.780
153,55706.151000,-23.985,22.261,-247.104,-38.793,-384.316,-343.949,-27.500,103.760,65.780
154,55706.181000,-19.090,22.261,-250.069,-39.772,-380.435,-345.906,-15.500,166.760,90.780
155,55706.216000,-6.363,22.261,-252.046,-31.927,-378.570,-348.015,-13.500,164.760,103.780
156,55706.219000,-2.447,21.249,-253.035,-38.760,-374.635,-350.853,-12.500,165.760,135.780
157,55706.241000,4.405,20.237,-252.046,-41.687,-375.576,-350.800,3.500,182.760,186.780
158,55706.254000,8.321,18.213,-253.035,-41.618,-375.572,-354.739,15.500,193.760,218.780
159,55706.277000,10.279,20.237,-254.023,-47.568,-368.748,-353.657,36.500,189.760,293.780
160,55706.304000,18.111,22.261,-255.012,-50.426,-369.684,-357.543,57.500,148.760,364.780
161,55706.342000,17.132,24.285,-255.012,-55.372,-363.835,-357.462,68.500,102.760,426.780
162,55706.351000,20.069,21.249,-250.069,-51.439,-367.742,-356.543,55.500,46.760,459.780
163,55706.369000,23.006,21.249,-253.035,-51.395,-372.579,-356.538,53.500,-25.240,503.780
164,55706.384000,28.880,24.285,-256.000,-64.185,-370.531,-353.361,62.500,-91.240,538.780
165,55706.407000,21.048,28.332,-258.965,-73.000,-369.484,-353.206,83.500,-154.240,591.780
166,55706.431000,23.985,28.332,-257.977,-76.966,-369.451,-350.183,97.500,-134.240,631.780
167,55706.453000,23.006,30.356,-255.012,-77.010,-366.550,-349.201,119.500,-72.240,722.780
168,55706.468000,30.837,32.379,-250.069,-87.817,-365.486,-347.042,137.500,2.760,831.780
169,55706.488000,47.480,35.415,-248.093,-89.730,-366.434,-348.976,155.500,-11.240,926.780
170,55706.509000,37.690,39.462,-243.151,-98.623,-366.359,-343.896,167.500,-212.240,985.780
171,55706.536000,22.027,40.474,-246.116,-107.413,-366.278,-344.725,194.500,-360.240,1075.780
172,55706.551000,7.342,45.534,-245.127,-116.375,-366.207,-335.707,220.500,-371.240,1150.780
173,55706.559000,-2.447,45.534,-243.151,-120.306,-366.172,-334.653,242.500,-298.240,1206.780
174,55706.592000,-16.153,46.545,-236.232,-128.255,-366.108,-327.621,252.500,-257.240,1223.780
175,55706.612000,-34.753,50.593,-239.197,-141.971,-365.984,-326.394,252.500,-256.240,1231.780
176,55706.634000,-51.396,51.605,-241.174,-153.783,-362.010,-324.221,241.500,-196.240,1202.780
177,55706.659000,-54.333,47.557,-237.220,-157.733,-358.104,-324.156,214.500,-102.240,1150.780
178,55706.673000,-53.354,53.628,-239.197,-166.566,-355.122,-324.003,184.500,-126.240,1084.780
179,55706.711000,-68.038,56.664,-239.197,-172.532,-354.106,-318.976,187.500,-181.240,1033.780
180,55706.714000,-86.639,52.617,-231.290,-178.377,-355.019,-319.856,197.500,-86.240,1006.780
181,55706.737000,-89.576,50.593,-230.301,-184.258,-350.127,-321.727,194.500,80.760,953.780
182,55706.761000,-85.660,47.557,-235.243,-194.001,-345.196,-326.482,178.500,159.760,880.780
183,55706.783000,-91.533,50.593,-234.255,-199.986,-336.438,-324.418,164.500,146.760,831.780
184,55706.798000,-90.554,50.593,-235.243,-200.974,-335.462,-324.402,140.500,96.760,746.780
185,55706.821000,-107.197,48.569,-235.243,-204.949,-332.526,-322.366,122.500,-26.240,656.780
186,55706.836000,-118.945,50.593,-232.278,-211.791,-329.559,-324.217,117.500,-28.240,546.780
187,55706.864000,-125.797,45.534,-230.301,-215.713,-332.428,-322.175,124.500,31.760,426.780
188,55706.878000,-119.924,45.534,-229.313,-213.721,-330.508,-325.166,109.500,70.760,307.780
189,55706.901000,-117.966,46.545,-226.347,-216.614,-327.575,-329.056,82.500,10.760,183.780
190,55706.914000,-126.776,45.534,-223.382,-218.589,-327.558,-328.037,57.500,-26.240,76.780
191,55706.938000,-136.566,46.545,-221.405,-217.645,-325.633,-327.071,48.500,-6.240,-38.220
192,55706.964000,-137.545,46.545,-216.463,-213.662,-327.601,-330.093,31.500,60.760,-105.220
193,55706.979000,-135.587,50.593,-212.510,-207.834,-326.689,-328.228,-2.500,60.760,-267.220
194,55707.2000,-142.440,51.605,-210.533,-211.730,-328.588,-328.157,-50.500,48.760,-451.220
195,55707.24000,-137.545,50.593,-213.498,-207.737,-333.459,-330.191,-108.500,43.760,-638.220
196,55707.39000,-136.566,57.676,-216.463,-202.888,-334.473,-327.322,-162.500,47.760,-819.220
197,55707.62000,-135.587,57.676,-217.452,-194.936,-344.217,-329.420,-197.500,87.760,-966.220
198,55707.84000,-120.902,62.735,-223.382,-182.225,-343.365,-329.646,-218.500,126.760,-1079.220
199,55707.107000,-99.365,72.854,-232.278,-178.241,-347.268,-331.681,-242.500,51.760,-1249.220
200,55707.144000,-104.260,68.806,-239.197,-165.511,-350.287,-330.918,-245.500,9.760,-1330.220
201,55707.163000,-108.176,65.771,-245.127,-154.703,-353.286,-332.090,-257.500,45.760,-1443.220
202,55707.167000,-98.386,69.818,-255.012,-147.758,-358.183,-335.161,-254.500,178.760,-1513.220
203,55707.192000,-85.660,71.842,-252.046,-134.016,-357.337,-338.358,-218.500,221.760,-1538.220
204,55707.208000,-70.975,78.925,-251.058,-120.255,-362.297,-339.581,-186.500,108.760,-1595.220
205,55707.221000,-70.975,81.960,-246.116,-116.184,-368.132,-345.553,-194.500,35.760,-1709.220
206,55707.234000,-55.312,86.008,-245.127,-96.649,-368.311,-343.929,-198.500,3.760,-1803.220
207,55707.266000,-52.375,81.960,-253.035,-77.035,-369.455,-346.244,-184.500,89.760,-1806.220
208,55707.284000,-35.732,76.901,-255.012,-69.129,-370.490,-350.320,-170.500,143.760,-1769.220
209,55707.307000,-25.943,73.866,-245.127,-49.533,-371.634,-351.650,-151.500,109.760,-1696.220
210,55707.327000,-23.006,79.937,-237.220,-38.691,-374.631,-354.792,-149.500,65.760,-1728.220
211,55707.347000,-8.321,79.937,-249.081,-16.160,-375.802,-356.173,-180.500,-1.240,-1835.220
212,55707.369000,-13.216,70.830,-257.977,-1.482,-375.936,-356.433,-172.500,-39.240,-1874.220
213,55707.387000,-16.153,56.664,-258.965,6.345,-374.071,-357.558,-140.500,60.760,-1778.220
214,55707.401000,-6.363,49.581,-244.139,28.928,-373.303,-362.881,-146.500,-41.240,-1699.220
215,55707.433000,8.321,63.747,-234.255,42.558,-373.432,-359.184,-177.500,-357.240,-1753.220
216,55707.456000,-15.174,69.818,-243.151,62.119,-374.578,-358.544,-211.500,-211.240,-1790.220
217,55707.476000,-34.753,64.759,-249.081,74.874,-372.756,-361.725,-217.500,56.760,-1785.220
218,55707.498000,11.258,60.711,-246.116,86.630,-363.183,-367.851,-207.500,374.760,-1747.220
219,55707.528000,50.417,68.806,-242.162,91.451,-353.552,-368.932,-220.500,370.760,-1689.220
220,55707.546000,81.744,63.747,-247.104,114.033,-346.977,-377.215,-203.500,225.760,-1607.220
221,55707.566000,110.134,46.545,-254.023,121.832,-338.339,-380.317,-182.500,66.760,-1448.220
222,55707.568000,134.608,32.379,-258.965,134.596,-339.420,-382.510,-144.500,77.760,-1180.220
223,55707.597000,149.293,17.202,-260.942,142.318,-329.818,-381.673,-53.500,108.760,-838.220
224,55707.619000,145.377,11.130,-251.058,141.383,-330.775,-383.625,9.500,46.760,-520.220
225,55707.639000,133.629,9.107,-238.208,144.318,-328.866,-384.663,16.500,35.760,-380.220
226,55707.662000,116.987,-1.012,-241.174,150.180,-326.016,-385.755,27.500,27.760,-137.220
227,55707.682000,100.344,-5.059,-241.174,146.300,-325.978,-387.655,11.500,-8.240,14.780
228,55707.699000,91.533,2.024,-240.185,144.336,-330.801,-384.661,-9.500,8.760,138.780
229,55707.719000,98.386,3.036,-233.266,143.383,-329.822,-386.615,-21.500,102.760,273.780
230,55707.742000,108.176,7.083,-236.232,138.465,-330.747,-384.558,-30.500,78.760,429.780
231,55707.762000,112.092,15.178,-250.069,132.636,-327.788,-388.396,-31.500,15.760,607.780
232,55707.783000,109.155,16.190,-261.931,123.779,-331.582,-383.312,-20.500,-27.240,776.780
233,55707.801000,106.218,23.273,-266.873,123.859,-338.353,-384.290,-4.500,-77.240,907.780
234,55707.828000,97.407,25.296,-272.803,111.156,-342.108,-383.077,12.500,-83.240,984.780
235,55707.859000,96.428,35.415,-275.768,103.337,-343.004,-382.937,41.500,-20.240,1152.780
236,55707.878000,93.491,54.640,-272.803,92.541,-348.716,-377.817,75.500,-71.240,1296.780
237,55707.892000,72.933,61.723,-271.815,71.968,-355.305,-372.523,133.500,-129.240,1448.780
238,55707.919000,67.059,67.794,-268.849,66.132,-355.250,-374.389,178.500,-103.240,1607.780
239,55707.932000,42.585,74.877,-262.919,46.503,-359.915,-368.130,214.500,-148.240,1744.780
240,55707.952000,22.027,92.079,-260.942,40.685,-365.666,-368.020,237.500,-61.240,1819.780
241,55707.974000,13.216,92.079,-253.035,21.012,-365.494,-361.765,248.500,84.760,1864.780
242,55707.994000,18.111,87.020,-258.965,15.202,-368.341,-363.628,253.500,84.760,1881.780
243,55708.14000,15.174,102.198,-256.000,-14.179,-369.043,-361.139,256.500,-86.240,1900.780
244,55708.32000,1.468,113.328,-239.197,-18.195,-372.885,-353.187,261.500,-249.240,1897.780
245,55708.54000,-22.027,116.364,-224.371,-36.813,-371.750,-351.875,258.500,-204.240,1918.780
246,55708.78000,-36.711,98.150,-224.371,-57.335,-370.593,-353.482,255.500,20.760,2001.780
247,55708.101000,-39.648,79.937,-230.301,-75.026,-369.470,-349.233,250.500,43.760,2107.780
248,55708.117000,-55.312,95.115,-224.371,-84.846,-369.383,-347.090,236.500,-172.240,2099.780
249,55708.132000,-104.260,100.174,-217.452,-105.534,-363.396,-341.809,224.500,-223.240,2011.780
250,55708.156000,-137.545,102.198,-211.521,-119.216,-361.335,-343.538,189.500,79.760,1876.780
251,55708.183000,-134.608,86.008,-219.429,-129.012,-352.536,-347.313,155.500,286.760,1793.780
252,55708.196000,-114.050,79.937,-226.347,-145.743,-345.614,-345.056,66.500,441.760,1597.780
253,55708.222000,-98.386,76.901,-227.336,-159.418,-336.777,-350.731,-6.500,323.760,1409.780
254,55708.236000,-80.765,73.866,-228.324,-164.432,-336.740,-343.751,-51.500,117.760,1258.780
255,55708.278000,-86.639,69.818,-239.197,-178.194,-327.908,-344.503,-48.500,-67.240,1206.780
256,55708.287000,-102.302,65.771,-242.162,-183.103,-327.864,-343.431,-8.500,-21.240,1191.780
257,55708.306000,-108.176,57.676,-246.116,-195.843,-321.942,-345.182,25.500,41.760,1173.780
258,55708.321000,-108.176,52.617,-245.127,-207.672,-319.904,-341.037,27.500,-168.240,1031.780
259,55708.337000,-134.608,56.664,-243.151,-213.578,-315.981,-340.937,28.500,-292.240,923.780
260,55708.358000,-173.767,54.640,-240.185,-215.587,-314.031,-338.935,48.500,-260.240,725.780
261,55708.376000,-171.809,47.557,-238.208,-223.477,-309.123,-337.817,38.500,-62.240,516.780
262,55708.408000,-159.082,45.534,-240.185,-226.403,-312.000,-336.777,18.500,-93.240,308.780
263,55708.429000,-160.061,46.545,-244.139,-222.480,-314.939,-335.858,19.500,-198.240,125.780
264,55708.449000,-162.998,51.605,-244.139,-219.630,-318.842,-329.013,34.500,-230.240,-57.220
265,55708.467000,-162.019,53.628,-240.185,-225.493,-315.884,-330.882,41.500,-166.240,-239.220
266,55708.487000,-158.103,58.688,-231.290,-223.483,-321.707,-330.911,32.500,-23.240,-433.220
267,55708.504000,-156.145,53.628,-231.290,-215.602,-323.711,-333.017,12.500,28.760,-613.220
268,55708.524000,-139.503,52.617,-230.301,-207.758,-321.845,-335.126,-6.500,71.760,-716.220
269,55708.538000,-120.902,64.759,-228.324,-196.949,-330.651,-333.338,-49.500,-60.240,-975.220
270,55708.576000,-127.755,64.759,-225.359,-190.998,-337.476,-334.420,-74.500,-95.240,-1140.220
271,55708.588000,-128.734,60.711,-226.347,-177.229,-343.404,-335.641,-88.500,83.760,-1209.220
272,55708.608000,-120.902,65.771,-224.371,-177.230,-339.532,-337.615,-115.500,283.760,-1322.220
273,55708.631000,-101.323,89.043,-224.371,-159.512,-341.622,-342.848,-104.500,291.760,-1483.220
274,55708.653000,-85.660,72.854,-222.394,-148.661,-345.587,-345.989,-132.500,156.760,-1614.220
275,55708.671000,-69.996,76.901,-226.347,-130.969,-352.518,-347.278,-159.500,51.760,-1684.220
276,55708.693000,-79.786,78.925,-231.290,-114.238,-357.503,-350.522,-181.500,94.760,-1714.220
277,55708.711000,-62.164,89.043,-231.290,-105.458,-356.617,-349.694,-200.500,146.760,-1813.220
278,55708.733000,-57.270,84.996,-241.174,-83.774,-362.611,-355.977,-201.500,192.760,-1886.220
279,55708.766000,-47.480,75.889,-240.185,-80.831,-359.734,-358.001,-217.500,275.760,-1896.220
280,55708.779000,-10.279,97.138,-250.069,-60.230,-359.917,-361.319,-227.500,149.760,-1980.220
281,55708.793000,-14.195,72.854,-259.954,-48.418,-363.892,-363.492,-189.500,35.760,-2002.220
282,55708.813000,6.363,69.818,-256.000,-27.853,-362.142,-365.827,-151.500,171.760,-1906.220
283,55708.838000,20.069,76.901,-262.919,-5.263,-356.534,-374.109,-123.500,211.760,-1776.220
284,55708.856000,23.985,70.830,-253.035,-4.327,-357.514,-371.171,-75.500,155.760,-1716.220
285,55708.872000,12.237,53.628,-245.127,14.376,-356.708,-378.394,-56.500,-27.240,-1702.220
286,55708.899000,14.195,54.640,-241.174,29.936,-353.952,-374.735,-56.500,-55.240,-1667.220
287,55708.914000,27.901,63.747,-241.174,43.722,-356.008,-378.914,-97.500,4.760,-1617.220
288,55708.939000,22.027,60.711,-246.116,48.579,-352.183,-379.004,-120.500,-53.240,-1618.220
289,55708.954000,23.985,47.557,-233.266,76.972,-350.504,-381.478,-122.500,23.760,-1616.220
290,55708.977000,49.438,56.664,-233.266,75.923,-344.692,-380.481,-156.500,161.760,-1574.220
291,55708.999000,87.618,64.759,-233.266,90.694,-339.980,-388.624,-202.500,113.760,-1557.220
292,55709.17000,96.428,49.581,-246.116,112.133,-334.374,-387.041,-217.500,-225.240,-1559.220
293,55709.39000,86.639,34.403,-253.035,119.009,-335.402,-388.146,-225.500,-341.240,-1532.220
294,55709.58000,93.491,34.403,-258.965,127.753,-330.646,-387.322,-231.500,-250.240,-1363.220
295,55709.76000,117.966,38.451,-260.942,132.646,-330.691,-387.408,-202.500,49.760,-1082.220
296,55709.97000,132.650,36.427,-262.919,135.614,-324.908,-392.390,-131.500,118.760,-775.220
297,55709.118000,133.629,28.332,-261.931,144.386,-323.055,-391.562,-63.500,31.760,-478.220
298,55709.148000,121.881,20.237,-263.907,140.472,-323.019,-391.493,-13.500,-79.240,-222.220
299,55709.168000,109.155,16.190,-256.988,140.385,-321.088,-387.556,10.500,-158.240,-36.220
300,55709.183000,94.470,11.130,-259.954,141.416,-324.966,-388.554,26.500,-167.240,110.780
301,55709.206000,83.702,7.083,-257.977,148.214,-326.967,-384.734,37.500,-144.240,252.780
302,55709.224000,89.576,12.142,-259.954,144.405,-330.797,-388.600,47.500,-73.240,320.780
303,55709.258000,87.618,19.225,-258.965,131.581,-330.687,-382.467,60.500,-30.240,450.780
304,55709.287000,93.491,19.225,-255.012,135.591,-333.621,-386.472,76.500,63.760,602.780
305,55709.293000,99.365,26.308,-256.000,126.785,-337.412,-384.343,87.500,131.760,756.780
306,55709.311000,103.281,30.356,-260.942,116.948,-335.390,-382.203,101.500,124.760,921.780
307,55709.327000,103.281,34.403,-259.954,106.246,-340.129,-382.992,115.500,86.760,1095.780
308,55709.351000,91.533,36.427,-256.988,95.527,-342.932,-383.784,146.500,98.760,1287.780
309,55709.371000,87.618,51.605,-256.000,90.591,-343.858,-380.742,176.500,68.760,1445.780
310,55709.396000,74.891,60.711,-257.977,70.979,-344.650,-377.441,187.500,33.760,1516.780
311,55709.416000,72.933,69.818,-249.081,65.196,-352.335,-378.314,193.500,3.760,1645.780
312,55709.434000,48.459,77.913,-249.081,51.446,-354.149,-374.131,199.500,-20.240,1757.780
313,55709.452000,38.669,86.008,-252.046,36.672,-351.117,-369.935,192.500,95.760,1841.780
314,55709.472000,43.564,81.960,-261.931,18.152,-358.688,-369.598,189.500,3.760,1905.780
315,55709.499000,38.669,96.126,-246.116,-3.304,-362.360,-371.183,197.500,-159.240,1945.780
316,55709.527000,-2.447,104.221,-241.174,-8.309,-363.289,-364.203,208.500,-116.240,1978.780
317,55709.546000,-31.816,94.103,-250.069,-28.815,-360.196,-367.781,208.500,240.760,2026.780
318,55709.564000,-20.069,92.079,-241.174,-41.614,-357.181,-364.605,180.500,389.760,2022.780
319,55709.580000,-7.342,89.043,-249.081,-65.099,-351.160,-367.150,122.500,271.760,1982.780
320,55709.589000,-20.069,97.138,-237.220,-74.936,-351.074,-364.022,72.500,-17.240,1905.780
321,55709.616000,-58.249,97.138,-236.232,-94.515,-347.993,-364.664,71.500,-94.240,1871.780
322,55709.633000,-97.407,96.126,-237.220,-112.113,-338.153,-370.271,78.500,289.760,1864.780
323,55709.651000,-99.365,86.008,-227.336,-120.964,-333.236,-370.120,67.500,671.760,1866.780
324,55709.677000,-56.291,80.949,-233.266,-134.648,-325.368,-374.810,29.500,361.760,1770.780
325,55709.694000,-50.417,86.008,-225.359,-146.546,-321.398,-367.712,2.500,-249.240,1636.780
326,55709.711000,-51.396,83.984,-221.405,-160.366,-323.216,-359.590,-17.500,-721.240,1440.780
327,55709.737000,-70.975,86.008,-223.382,-165.327,-325.111,-354.578,-17.500,-788.240,1355.780
328,55709.758000,-97.407,67.794,-232.278,-179.112,-326.927,-348.425,-5.500,-628.240,1309.780
329,55709.779000,-80.765,65.771,-246.116,-180.159,-328.858,-343.482,32.500,-437.240,1352.780
330,55709.797000,-95.449,71.842,-231.290,-204.691,-326.704,-340.097,95.500,-441.240,1393.780
331,55709.821000,-109.155,66.783,-220.417,-212.728,-322.773,-330.115,126.500,-479.240,1340.780
332,55709.837000,-134.608,62.735,-221.405,-218.607,-321.752,-330.012,126.500,-560.240,1180.780
333,55709.863000,-176.704,51.605,-222.394,-229.527,-319.727,-321.946,96.500,-500.240,940.780
334,55709.891000,-203.136,48.569,-230.301,-229.413,-324.560,-325.880,57.500,-215.240,689.780
335,55709.906000,-217.820,40.474,-234.255,-233.467,-318.725,-320.893,44.500,-83.240,432.780
336,55709.926000,-179.641,41.486,-229.313,-239.356,-316.737,-320.791,2.500,-39.240,279.780
337,55709.958000,-175.725,50.593,-227.336,-236.420,-318.699,-319.856,-14.500,-128.240,54.780
338,55709.977000,-172.788,50.593,-228.324,-239.424,-320.612,-314.879,-32.500,-103.240,-135.220
339,55709.996000,-151.250,45.534,-226.347,-232.496,-323.574,-317.951,-68.500,-129.240,-366.220
340,55710.9000,-153.208,55.652,-225.359,-222.641,-327.531,-320.090,-107.500,-62.240,-584.220
341,55710.26000,-127.755,57.676,-220.417,-227.542,-328.454,-319.017,-129.500,81.760,-752.220
342,55710.58000,-115.029,62.735,-221.405,-218.699,-334.340,-318.183,-172.500,191.760,-920.220
343,55710.77000,-106.218,65.771,-225.359,-209.832,-335.384,-321.292,-200.500,225.760,-1073.220
344,55710.93000,-98.386,75.889,-226.347,-206.871,-336.378,-322.327,-202.500,215.760,-1136.220
345,55710.113000,-104.260,78.925,-223.382,-197.960,-338.388,-327.405,-170.500,208.760,-1188.220
346,55710.139000,-80.765,99.162,-223.382,-185.152,-340.434,-331.567,-129.500,345.760,-1148.220
347,55710.153000,-70.975,100.174,-216.463,-167.469,-344.462,-333.844,-86.500,351.760,-1158.220
348,55710.171000,-80.765,86.008,-219.429,-168.378,-346.385,-336.779,-46.500,201.760,-1146.220
349,55710.184000,-63.143,79.937,-216.463,-161.459,-346.443,-340.839,-48.500,177.760,-1118.220
350,55710.203000,-55.312,86.008,-218.440,-149.682,-348.484,-342.029,-83.500,72.760,-1149.220
351,55710.228000,-59.228,91.067,-230.301,-141.862,-351.459,-340.195,-128.500,-157.240,-1204.220
352,55710.256000,-69.996,72.854,-228.324,-135.921,-357.316,-341.278,-145.500,-287.240,-1246.220
353,55710.277000,-81.744,61.723,-236.232,-124.072,-369.032,-341.474,-242.500,-341.240,-1418.220
354,55710.309000,-77.828,66.783,-263.907,-105.471,-374.040,-339.828,-403.500,-210.240,-1736.220
355,55710.312000,-69.996,74.877,-272.803,-96.750,-377.996,-333.087,-479.500,-153.240,-2006.220
356,55710.327000,-54.333,70.830,-272.803,-80.990,-378.133,-339.272,-487.500,-64.240,-2135.220
357,55710.352000,-23.985,82.972,-278.734,-61.376,-383.148,-339.613,-544.500,17.760,-2200.220
358,55710.384000,-9.300,102.198,-281.699,-42.731,-389.121,-339.936,-529.500,-196.240,-2285.220
359,55710.402000,-24.964,86.008,-276.757,-37.916,-392.074,-334.111,-446.500,-270.240,-2308.220
360,55710.424000,-33.774,76.901,-264.896,-12.406,-392.301,-338.500,-429.500,-139.240,-2265.220
361,55710.442000,-1.468,90.055,-271.815,8.236,-387.643,-346.747,-418.500,240.760,-2202.220
362,55710.467000,19.090,95.115,-266.873,20.938,-381.952,-348.947,-363.500,333.760,-2080.220
363,55710.482000,12.237,79.937,-251.058,47.417,-379.286,-354.341,-300.500,179.760,-2031.220
364,55710.498000,27.901,74.877,-240.185,51.418,-379.316,-359.334,-312.500,178.760,-1982.220
365,55710.519000,50.417,82.972,-243.151,76.839,-371.805,-362.746,-332.500,85.760,-1895.220
366,55710.533000,62.164,91.067,-256.988,79.731,-368.931,-361.816,-320.500,-21.240,-1825.220
367,55710.561000,58.249,73.866,-265.884,97.297,-358.447,-365.092,-251.500,168.760,-1663.220
368,55710.578000,87.618,59.700,-262.919,114.001,-356.658,-370.312,-193.500,399.760,-1460.220
369,55710.601000,122.860,58.688,-256.988,121.843,-347.050,-376.369,-161.500,354.760,-1345.220
370,55710.621000,127.755,60.711,-253.035,137.411,-339.454,-375.669,-111.500,166.760,-1102.220
371,55710.641000,125.797,44.522,-252.046,135.532,-340.399,-379.572,-60.500,93.760,-850.220
372,55710.675000,127.755,34.403,-248.093,139.392,-334.631,-379.647,-27.500,136.760,-581.220
373,55710.677000,131.671,23.273,-247.104,142.370,-331.751,-383.641,11.500,118.760,-283.220
374,55710.710000,125.797,20.237,-239.197,141.313,-326.907,-381.659,43.500,32.760,17.780
375,55710.732000,107.197,19.225,-235.243,147.263,-333.731,-382.741,60.500,-24.240,258.780
376,55710.769000,96.428,21.249,-234.255,141.393,-337.550,-380.664,61.500,24.760,439.780
377,55710.788000,87.618,18.213,-240.185,139.446,-340.435,-379.641,47.500,116.760,605.780
378,55710.797000,100.344,27.320,-242.162,131.617,-338.428,-380.490,41.500,143.760,680.780
379,55710.817000,107.197,33.391,-249.081,119.875,-336.385,-381.269,39.500,63.760,806.780
380,55710.829000,97.407,44.522,-259.954,117.001,-339.259,-383.183,43.500,52.760,917.780
381,55710.852000,94.470,44.522,-264.896,109.121,-339.191,-380.091,66.500,216.760,1075.780
382,55710.874000,105.239,41.486,-273.792,102.342,-342.996,-381.935,97.500,349.760,1275.780
383,55710.897000,118.945,52.617,-276.757,80.841,-341.831,-383.525,127.500,200.760,1481.780
384,55710.919000,111.113,71.842,-272.803,67.214,-353.317,-381.302,167.500,-42.240,1673.780
385,55710.937000,80.765,78.925,-274.780,53.471,-352.227,-379.091,219.500,-170.240,1828.780
386,55710.959000,55.312,88.032,-280.710,38.743,-355.968,-373.904,240.500,-171.240,1882.780
387,55710.979000,33.774,96.126,-277.745,31.852,-360.748,-368.854,289.500,-105.240,1961.780
388,55710.997000,19.090,102.198,-269.838,12.343,-363.470,-370.474,306.500,0.760,1998.780
389,55711.14000,10.279,99.162,-269.838,-3.338,-364.297,-368.227,315.500,-71.240,1984.780
390,55711.37000,-3.426,92.079,-277.745,-19.063,-366.095,-363.024,327.500,-238.240,1947.780
391,55711.64000,-30.837,98.150,-265.884,-26.960,-367.963,-357.960,346.500,-218.240,1938.780
392,55711.92000,-58.249,101.186,-252.046,-40.685,-364.936,-357.721,353.500,22.760,1937.780
393,55711.118000,-47.480,98.150,-240.185,-58.342,-363.811,-355.441,354.500,-2.240,1887.780
394,55711.124000,-55.312,102.198,-230.301,-71.070,-366.599,-353.244,345.500,-147.240,1867.780
395,55711.144000,-63.143,99.162,-228.324,-88.744,-365.475,-349.979,335.500,-206.240,1854.780
396,55711.162000,-57.270,100.174,-227.336,-94.718,-365.427,-343.967,333.500,-431.240,1825.780
397,55711.178000,-98.386,96.126,-222.394,-111.448,-366.249,-337.763,346.500,-527.240,1789.780
398,55711.206000,-119.924,95.115,-213.498,-120.306,-366.172,-334.653,347.500,-299.240,1689.780
399,55711.221000,-115.029,67.794,-210.533,-134.041,-360.242,-335.401,300.500,-8.240,1511.780
400,55711.241000,-111.113,64.759,-215.475,-144.900,-359.182,-330.288,215.500,-35.240,1299.780
401,55711.258000,-117.966,64.759,-223.382,-153.689,-357.165,-332.104,155.500,-163.240,1165.780
402,55711.281000,-133.629,65.771,-220.417,-164.549,-352.233,-328.964,152.500,-101.240,1099.780
403,55711.303000,-137.545,65.771,-215.475,-166.516,-349.312,-329.917,158.500,7.760,1062.780
404,55711.328000,-117.966,53.628,-220.417,-177.289,-342.439,-332.688,174.500,231.760,975.780
405,55711.347000,-109.155,48.569,-223.382,-177.246,-343.405,-334.657,160.500,217.760,884.780
406,55711.367000,-116.987,49.581,-219.429,-181.247,-339.502,-331.637,136.500,9.760,779.780
407,55711.384000,-139.503,45.534,-213.498,-187.154,-335.579,-331.537,130.500,-70.240,682.780
408,55711.412000,-137.545,35.415,-218.440,-196.922,-333.554,-333.336,119.500,30.760,552.780
409,55711.432000,-136.566,38.451,-218.440,-198.940,-330.636,-331.334,86.500,0.760,371.780
410,55711.474000,-147.335,40.474,-216.463,-199.901,-332.561,-331.315,51.500,-85.240,188.780
411,55711.493000,-160.061,38.451,-217.452,-193.995,-332.613,-333.388,9.500,-76.240,7.780
412,55711.493000,-164.956,35.415,-216.463,-199.884,-332.561,-332.300,-12.500,-50.240,-86.220
413,55711.511000,-157.124,40.474,-218.440,-191.076,-338.448,-329.495,-67.500,-26.240,-297.220
414,55711.524000,-149.293,50.593,-219.429,-191.095,-332.642,-331.471,-112.500,-67.240,-515.220
415,55711.547000,-139.503,56.664,-215.475,-189.075,-339.431,-331.499,-153.500,-101.240,-716.220
416,55711.569000,-124.818,61.723,-217.452,-178.310,-345.336,-328.729,-193.500,-117.240,-883.220
417,55711.592000,-123.839,63.747,-226.347,-173.356,-350.217,-329.795,-223.500,-209.240,-1013.220
418,55711.615000,-116.987,66.783,-225.359,-164.573,-359.009,-324.034,-233.500,-335.240,-1125.220
419,55711.637000,-126.776,67.794,-207.568,-154.805,-362.971,-321.248,-252.500,-381.240,-1219.220
420,55711.652000,-127.755,61.723,-204.602,-147.893,-371.741,-320.376,-317.500,-343.240,-1304.220
421,55711.668000,-109.155,60.711,-209.544,-139.164,-372.793,-315.607,-365.500,-315.240,-1362.220
422,55711.698000,-96.428,72.854,-219.429,-127.445,-383.548,-308.910,-478.500,-485.240,-1512.220
423,55711.724000,-103.281,69.818,-218.440,-112.773,-396.265,-302.264,-571.500,-717.240,-1648.220
424,55711.752000,-97.407,71.842,-223.382,-105.982,-406.977,-293.512,-676.500,-783.240,-1722.220
425,55711.781000,-89.576,80.949,-233.266,-89.378,-420.681,-284.929,-763.500,-896.240,-1795.220
426,55711.784000,-80.765,94.103,-241.174,-85.629,-421.694,-275.150,-797.500,-1006.240,-1865.220
427,55711.809000,-112.092,89.043,-257.977,-68.046,-437.342,-265.598,-796.500,-907.240,-1878.220
428,55711.816000,-127.755,88.032,-268.849,-54.442,-438.440,-259.931,-788.500,-351.240,-1832.220
429,55711.843000,-106.218,96.126,-261.931,-38.647,-442.446,-266.112,-771.500,-80.240,-1814.220
430,55711.861000,-78.807,105.233,-264.896,-14.211,-441.702,-265.561,-743.500,112.760,-1836.220
431,55711.889000,-69.017,97.138,-259.954,-10.227,-445.605,-267.596,-682.500,46.760,-1874.220
432,55711.909000,-66.080,90.055,-249.081,8.320,-440.937,-267.929,-650.500,117.760,-1839.220
433,55711.927000,-57.270,96.126,-250.069,22.147,-436.215,-278.024,-610.500,290.760,-1736.220
434,55711.955000,-41.606,94.103,-253.035,42.738,-433.496,-282.329,-540.500,380.760,-1649.220
435,55711.956000,-37.690,87.020,-247.104,42.876,-431.552,-291.194,-477.500,484.760,-1575.220
436,55711.982000,-16.153,84.996,-244.139,62.513,-422.047,-300.413,-447.500,604.760,-1510.220
437,55712.5000,1.468,80.949,-242.162,68.443,-417.258,-306.430,-418.500,614.760,-1448.220
438,55712.31000,18.111,74.877,-247.104,80.251,-405.746,-316.497,-393.500,566.760,-1413.220
439,55712.39000,31.816,69.818,-258.965,106.738,-398.239,-324.850,-362.500,505.760,-1368.220
440,55712.67000,50.417,70.830,-269.838,110.694,-393.433,-329.848,-325.500,523.760,-1306.220
441,55712.99000,75.870,56.664,-265.884,120.519,-382.873,-337.910,-272.500,449.760,-1176.220
442,55712.132000,82.723,45.534,-270.826,124.458,-380.003,-340.936,-214.500,410.760,-970.220
443,55712.141000,93.491,37.439,-270.826,129.340,-371.337,-344.970,-136.500,398.760,-701.220
444,55712.169000,104.260,29.344,-265.884,138.225,-372.381,-349.064,-56.500,341.760,-418.220
445,55712.172000,101.323,25.296,-257.977,133.330,-364.593,-352.925,-8.500,239.760,-179.220
446,55712.188000,102.302,20.237,-256.988,136.229,-358.814,-353.967,5.500,162.760,-76.220
447,55712.211000,90.554,23.273,-260.942,143.131,-360.809,-356.056,17.500,-3.240,94.780
448,55712.233000,74.891,20.237,-258.965,130.352,-365.537,-349.917,37.500,-41.240,265.780
449,55712.257000,67.059,25.296,-258.965,130.421,-367.469,-352.870,63.500,44.760,426.780
450,55712.276000,72.933,30.356,-261.931,122.619,-366.428,-354.702,90.500,114.760,566.780
451,55712.296000,75.870,34.403,-270.826,125.537,-366.456,-353.769,128.500,158.760,715.780
452,55712.318000,78.807,38.451,-275.768,113.848,-368.282,-355.529,171.500,252.760,882.780
453,55712.336000,83.702,41.486,-275.768,106.097,-367.238,-360.315,223.500,283.760,1081.780
454,55712.369000,84.681,48.569,-279.722,93.326,-369.061,-356.149,276.500,293.760,1302.780
455,55712.383000,82.723,54.640,-273.792,80.701,-369.908,-360.847,294.500,260.760,1406.780
456,55712.402000,67.059,73.866,-272.803,80.675,-370.878,-358.877,329.500,148.760,1583.780
457,55712.418000,36.711,81.960,-271.815,59.175,-375.520,-357.507,381.500,33.760,1705.780
458,55712.439000,29.859,82.972,-278.734,47.373,-376.384,-353.359,416.500,123.760,1821.780
459,55712.462000,28.880,95.115,-271.815,32.765,-378.183,-356.052,429.500,107.760,1900.780
460,55712.476000,5.384,96.126,-258.965,20.929,-379.049,-349.935,451.500,-57.240,1963.780
461,55712.493000,-14.195,108.269,-252.046,5.283,-385.682,-346.697,434.500,-46.240,1951.780
462,55712.512000,-12.237,112.316,-257.977,-11.422,-379.727,-345.424,404.500,-8.240,1897.780
463,55712.539000,-26.922,102.198,-257.977,-24.090,-381.544,-347.166,404.500,-52.240,1888.780
464,55712.562000,-46.501,106.245,-246.116,-39.850,-379.472,-341.967,419.500,-105.240,1917.780
465,55712.579000,-57.270,112.316,-229.313,-49.617,-383.254,-340.806,428.500,31.760,1990.780
466,55712.597000,-53.354,112.316,-225.359,-74.158,-378.196,-338.409,426.500,113.760,2014.780
467,55712.624000,-60.207,117.375,-227.336,-80.964,-379.099,-340.256,407.500,-28.240,1993.780
468,55712.642000,-83.702,112.316,-229.313,-101.661,-374.081,-333.989,406.500,-126.240,1953.780
469,55712.664000,-92.512,99.162,-228.324,-115.465,-368.155,-330.798,411.500,-76.240,1890.780
470,55712.687000,-102.302,72.854,-227.336,-124.185,-368.070,-335.566,394.500,-54.240,1811.780
471,55712.704000,-113.071,69.818,-228.324,-139.010,-366.977,-327.430,365.500,-113.240,1683.780
472,55712.727000,-139.503,70.830,-211.521,-154.718,-362.966,-326.172,348.500,-239.240,1611.780
473,55712.747000,-162.019,61.723,-202.625,-166.522,-356.088,-325.971,304.500,-172.240,1469.780
474,55712.767000,-158.103,50.593,-210.533,-164.522,-357.071,-327.975,249.500,-71.240,1317.780
475,55712.789000,-162.998,55.652,-202.625,-172.516,-352.169,-320.948,206.500,-202.240,1152.780
476,55712.809000,-214.883,47.557,-198.672,-185.288,-350.121,-318.755,196.500,-298.240,1037.780
477,55712.837000,-230.547,38.451,-185.822,-189.272,-348.153,-315.734,164.500,-61.240,866.780
478,55712.854000,-217.820,32.379,-192.741,-193.082,-350.048,-320.586,76.500,-30.240,549.780
479,55712.874000,-205.094,33.391,-199.660,-197.056,-349.048,-317.564,-16.500,-192.240,212.780
480,55712.894000,-196.283,35.415,-208.556,-201.005,-350.950,-314.538,-54.500,-236.240,79.780
481,55712.917000,-179.641,45.534,-207.568,-194.172,-351.013,-313.675,-96.500,-187.240,-117.220
482,55712.939000,-167.893,46.545,-199.660,-195.167,-354.877,-310.699,-109.500,-114.240,-241.220
483,55712.954000,-155.166,42.498,-199.660,-196.154,-355.836,-309.696,-134.500,-100.240,-386.220
484,55712.975000,-153.208,47.557,-205.591,-192.292,-355.875,-306.811,-180.500,-162.240,-554.220
485,55712.997000,-146.356,52.617,-208.556,-185.354,-365.611,-306.922,-225.500,-195.240,-715.220
486,55713.21000,-136.566,59.700,-205.591,-178.547,-366.644,-304.088,-265.500,-190.240,-864.220
487,55713.41000,-134.608,63.747,-201.637,-169.679,-371.560,-305.224,-314.500,-153.240,-999.220
488,55713.59000,-120.902,56.664,-208.556,-170.699,-376.393,-300.278,-381.500,-136.240,-1152.220
489,55713.77000,-114.050,69.818,-223.382,-151.041,-386.245,-300.614,-414.500,-191.240,-1241.220
490,55713.99000,-119.924,70.830,-229.313,-154.063,-384.287,-296.625,-435.500,-242.240,-1378.220
491,55713.124000,-135.587,63.747,-232.278,-140.284,-395.054,-295.872,-458.500,-149.240,-1459.220
492,55713.142000,-125.797,65.771,-235.243,-126.532,-399.047,-297.095,-521.500,49.760,-1575.220
493,55713.158000,-110.134,84.996,-248.093,-111.854,-403.052,-295.381,-545.500,23.760,-1749.220
494,55713.176000,-117.966,77.913,-243.151,-93.218,-408.058,-295.705,-514.500,4.760,-1796.220
495,55713.193000,-113.071,69.818,-239.197,-84.394,-406.202,-297.832,-510.500,128.760,-1778.220
496,55713.243000,-84.681,84.996,-239.197,-74.523,-406.286,-302.929,-532.500,62.760,-1809.220
497,55713.257000,-65.101,101.186,-238.208,-55.931,-410.326,-301.284,-535.500,-50.240,-1853.220
498,55713.271000,-82.723,88.032,-243.151,-35.294,-416.316,-303.611,-535.500,-177.240,-1935.220
499,55713.274000,-82.723,76.901,-236.232,-35.285,-417.283,-303.610,-560.500,82.760,-1961.220
500,55713.297000,-53.354,99.162,-235.243,-15.604,-412.615,-312.824,-617.500,407.760,-2025.220
501,55713.319000,-10.279,98.150,-236.232,10.823,-409.951,-315.264,-660.500,403.760,-2095.220
502,55713.337000,14.195,75.889,-240.185,21.655,-408.110,-320.380,-666.500,45.760,-2130.220
503,55713.364000,11.258,70.830,-249.081,36.287,-401.470,-321.631,-640.500,-2.240,-2003.220
504,55713.383000,0.489,62.735,-253.035,48.160,-404.473,-327.744,-563.500,137.760,-1707.220
505,55713.404000,33.774,72.854,-254.023,60.783,-397.819,-326.006,-488.500,-13.240,-1517.220
506,55713.422000,52.375,100.174,-256.000,71.650,-395.975,-333.092,-467.500,-163.240,-1477.220
507,55713.444000,20.069,95.115,-272.803,81.313,-392.200,-328.345,-416.500,-170.240,-1386.220
508,55713.462000,21.048,68.806,-280.710,99.956,-390.430,-332.615,-349.500,88.760,-1247.220
509,55713.492000,36.711,71.842,-280.710,99.054,-387.513,-338.509,-283.500,437.760,-1049.220
510,55713.514000,62.164,69.818,-281.699,103.917,-373.041,-344.519,-175.500,522.760,-793.220
511,55713.557000,82.723,45.534,-270.826,106.013,-374.986,-351.445,-94.500,237.760,-595.220
512,55713.557000,88.597,46.545,-269.838,121.616,-373.196,-349.754,-53.500,-55.240,-453.220
513,55713.573000,74.891,52.617,-268.849,114.741,-374.103,-347.662,-23.500,-86.240,-310.220
514,55713.594000,55.312,35.415,-265.884,123.512,-370.313,-347.822,-12.500,-19.240,-232.220
515,55713.614000,58.249,18.213,-257.977,120.645,-368.347,-352.696,22.500,166.760,-70.220
516,55713.637000,58.249,21.249,-251.058,119.589,-367.375,-348.740,56.500,149.760,108.780
517,55713.654000,51.396,33.391,-248.093,116.793,-373.147,-353.606,78.500,-34.240,263.780
518,55713.681000,32.795,38.451,-254.023,109.796,-372.126,-345.608,85.500,-176.240,359.780
519,55713.703000,23.985,37.439,-256.988,112.767,-376.022,-345.656,98.500,-52.240,450.780
520,55713.718000,50.417,48.569,-258.965,109.857,-373.090,-348.562,95.500,250.760,550.780
521,55713.741000,76.849,57.676,-262.919,98.201,-371.043,-354.264,93.500,372.760,651.780
522,55713.763000,114.050,71.842,-268.849,96.219,-371.994,-352.259,88.500,380.760,710.780
523,55713.778000,122.860,56.664,-282.687,89.438,-371.928,-356.077,106.500,286.760,774.780
524,55713.803000,116.987,45.534,-288.618,76.753,-373.746,-356.835,182.500,243.760,1064.780
525,55713.812000,104.260,71.842,-274.780,69.903,-371.748,-357.701,276.500,247.760,1475.780
526,55713.823000,78.807,83.984,-265.884,56.214,-376.463,-355.484,369.500,181.760,1831.780
527,55713.853000,64.122,94.103,-258.965,44.446,-377.325,-353.306,415.500,41.760,1975.780
528,55713.879000,25.943,93.091,-256.000,26.860,-380.067,-352.992,424.500,-170.240,1994.780
529,55713.902000,-8.321,94.103,-255.012,13.110,-381.881,-348.808,404.500,-132.240,2002.780
530,55713.929000,-23.985,101.186,-249.081,-4.476,-386.559,-347.507,362.500,50.760,1992.780
531,55713.958000,-9.300,119.399,-241.174,-29.051,-383.439,-342.154,335.500,99.760,1953.780
532,55713.978000,-7.342,129.518,-256.000,-30.974,-383.420,-344.089,296.500,-129.240,1849.780
533,55713.981000,-31.816,122.435,-255.012,-52.611,-390.005,-333.854,330.500,-476.240,1807.780
534,55713.999000,-74.891,121.423,-251.058,-64.474,-389.906,-326.753,393.500,-539.240,1876.780
535,55714.18000,-106.218,112.316,-257.977,-83.152,-389.741,-321.500,479.500,-301.240,2064.780
536,55714.41000,-121.881,111.304,-235.243,-95.899,-386.723,-321.278,542.500,-37.240,2123.780
537,55714.58000,-118.945,98.150,-225.359,-113.574,-381.727,-319.987,524.500,-55.240,1995.780
538,55714.86000,-139.503,89.043,-227.336,-117.574,-381.697,-314.994,480.500,-277.240,1800.780
539,55714.106000,-175.725,77.913,-217.452,-133.231,-379.618,-315.704,445.500,-325.240,1633.780
540,55714.123000,-208.031,69.818,-200.649,-146.090,-375.639,-309.574,428.500,-90.240,1576.780
541,55714.141000,-184.535,57.676,-196.695,-153.816,-367.819,-319.291,373.500,251.760,1405.780
542,55714.158000,-168.872,57.676,-189.776,-169.559,-365.746,-315.077,298.500,12.760,1129.780
543,55714.186000,-189.430,45.534,-185.822,-167.654,-367.702,-311.171,239.500,-327.240,908.780
544,55714.203000,-186.493,44.522,-195.707,-175.507,-370.536,-308.075,190.500,-355.240,728.780
545,55714.231000,-174.746,46.545,-195.707,-170.659,-365.744,-308.167,163.500,-380.240,564.780
546,55714.259000,-158.103,48.569,-199.660,-177.569,-366.653,-304.106,149.500,-410.240,444.780
547,55714.282000,-164.956,40.474,-190.764,-180.563,-371.469,-298.140,116.500,-295.240,321.780
548,55714.299000,-166.914,28.332,-185.822,-181.516,-372.426,-299.107,81.500,-197.240,229.780
549,55714.322000,-154.187,27.320,-194.718,-184.485,-374.337,-296.099,-10.500,-175.240,-14.220
550,55714.339000,-158.103,36.427,-196.695,-181.558,-377.268,-294.178,-99.500,-264.240,-246.220
551,55714.359000,-176.704,43.510,-192.741,-173.843,-374.442,-289.396,-156.500,-163.240,-391.220
552,55714.379000,-169.851,42.498,-189.776,-177.677,-381.177,-290.304,-212.500,-42.240,-537.220
553,55714.399000,-162.998,54.640,-195.707,-175.737,-383.132,-288.367,-257.500,-62.240,-692.220
554,55714.417000,-162.998,53.628,-201.637,-168.790,-391.900,-289.465,-270.500,-103.240,-808.220
555,55714.439000,-173.767,50.593,-203.614,-163.968,-388.077,-287.585,-288.500,-114.240,-886.220
556,55714.462000,-174.746,63.747,-199.660,-154.086,-394.935,-289.721,-323.500,-104.240,-1014.220
557,55714.468000,-167.893,73.866,-189.776,-144.352,-398.899,-284.966,-346.500,-90.240,-1092.220
558,55714.494000,-141.461,66.783,-180.880,-131.560,-408.690,-284.197,-448.500,-123.240,-1257.220
559,55714.529000,-116.008,71.842,-197.683,-133.535,-408.673,-283.178,-600.500,-361.240,-1430.220
560,55714.556000,-117.966,77.913,-203.614,-118.924,-418.489,-274.564,-716.500,-583.240,-1567.220
561,55714.574000,-144.398,83.984,-221.405,-107.250,-422.471,-268.860,-749.500,-435.240,-1653.220
562,55714.583000,-150.272,87.020,-226.347,-87.601,-427.484,-271.170,-750.500,43.760,-1704.220
563,55714.603000,-122.860,100.174,-234.255,-75.834,-424.686,-274.335,-747.500,405.760,-1776.220
564,55714.626000,-88.597,108.269,-240.185,-69.868,-425.702,-279.362,-725.500,410.760,-1851.220
565,55714.643000,-62.164,98.150,-243.151,-49.241,-426.852,-283.663,-717.500,322.760,-1887.220
566,55714.666000,-53.354,96.126,-239.197,-40.401,-424.994,-286.775,-705.500,140.760,-1915.220
567,55714.684000,-51.396,97.138,-240.185,-23.644,-429.010,-291.989,-726.500,164.760,-1890.220
568,55714.706000,-43.564,110.292,-253.035,-9.955,-424.296,-294.206,-714.500,234.760,-1873.220
569,55714.722000,-29.859,102.198,-258.965,8.765,-421.554,-303.400,-660.500,315.760,-1863.220
570,55714.743000,-8.321,89.043,-255.012,24.446,-418.791,-306.634,-628.500,246.760,-1817.220
571,55714.764000,21.048,97.138,-262.919,29.338,-416.900,-307.707,-596.500,-28.240,-1723.220
572,55714.787000,9.300,110.292,-271.815,43.028,-414.121,-308.937,-501.500,-68.240,-1562.220
573,55714.802000,7.342,86.008,-270.826,59.739,-413.300,-314.156,-422.500,46.760,-1444.220
574,55714.816000,37.690,77.913,-273.792,73.445,-404.713,-319.331,-389.500,308.760,-1389.220
575,55714.866000,51.396,64.759,-273.792,71.574,-404.691,-324.220,-330.500,360.760,-1239.220
576,55714.884000,60.207,53.628,-273.792,85.263,-399.976,-326.437,-263.500,269.760,-1045.220
577,55714.888000,69.996,54.640,-267.861,96.059,-392.329,-332.544,-201.500,170.760,-839.220
578,55714.911000,76.849,58.688,-264.896,101.896,-392.384,-330.678,-162.500,17.760,-664.220
579,55714.933000,69.996,46.545,-270.826,99.895,-389.465,-329.661,-121.500,-86.240,-478.220
580,55714.956000,66.080,37.439,-268.849,110.719,-392.464,-331.818,-75.500,-46.240,-284.220
581,55714.973000,61.185,32.379,-268.849,109.714,-389.552,-331.804,-16.500,11.760,-80.220
582,55714.997000,62.164,32.379,-264.896,103.774,-387.567,-328.748,10.500,43.760,20.780
583,55715.19000,65.101,40.474,-260.942,103.827,-391.436,-329.729,46.500,41.760,184.780
584,55715.34000,59.228,36.427,-270.826,103.878,-391.433,-332.683,86.500,16.760,332.780
585,55715.62000,61.185,39.462,-273.792,98.909,-394.297,-326.685,125.500,32.760,504.780
586,55715.72000,56.291,52.617,-274.780,89.193,-392.268,-331.438,172.500,78.760,669.780
587,55715.99000,68.038,53.628,-279.722,85.261,-392.233,-330.384,220.500,145.760,809.780
588,55715.114000,65.101,58.688,-286.641,77.504,-397.965,-331.224,268.500,92.760,946.780
589,55715.136000,54.333,62.735,-285.652,70.645,-393.064,-333.078,333.500,164.760,1139.780
590,55715.149000,61.185,70.830,-283.676,53.059,-395.806,-332.763,396.500,222.760,1332.780
591,55715.178000,56.291,71.842,-280.710,52.055,-398.703,-329.789,430.500,159.760,1426.780
592,55715.200000,42.585,87.020,-278.734,40.296,-400.533,-327.610,472.500,4.760,1577.780
593,55715.222000,28.880,98.150,-282.687,25.541,-401.371,-322.425,507.500,-74.240,1684.780
594,55715.249000,19.090,94.103,-278.734,14.805,-406.111,-321.245,570.500,-168.240,1761.780
595,55715.258000,-5.384,94.103,-266.873,-5.838,-408.834,-313.986,628.500,-195.240,1855.780
596,55715.281000,-20.069,95.115,-259.954,-13.657,-409.730,-313.846,667.500,-61.240,1963.780
597,55715.298000,-23.985,99.162,-243.151,-35.193,-408.567,-313.467,679.500,-75.240,1992.780
598,55715.321000,-43.564,102.198,-228.324,-41.079,-414.322,-309.418,641.500,-188.240,1955.780
599,55715.344000,-68.038,108.269,-223.382,-58.762,-410.294,-307.141,622.500,-208.240,1933.780
600,55715.358000,-80.765,106.245,-218.440,-71.579,-407.280,-302.980,586.500,-100.240,1897.780
601,55715.379000,-73.912,100.174,-213.498,-84.334,-405.230,-301.772,542.500,-110.240,1840.780
602,55715.400000,-87.618,99.162,-215.475,-104.034,-404.092,-294.534,521.500,-316.240,1780.780
603,55715.428000,-126.776,96.126,-206.579,-105.991,-404.074,-294.499,529.500,-308.240,1740.780
604,55715.442000,-149.293,89.043,-191.753,-127.623,-400.013,-290.183,511.500,-62.240,1704.780
605,55715.458000,-157.124,77.913,-183.846,-138.352,-397.977,-292.949,465.500,119.760,1655.780
606,55715.476000,-147.335,83.984,-189.776,-155.075,-390.088,-291.678,400.500,48.760,1555.780
607,55715.506000,-163.977,76.901,-189.776,-157.993,-388.124,-293.598,351.500,-106.240,1426.780
608,55715.514000,-176.704,65.771,-186.811,-172.768,-381.221,-291.376,322.500,-166.240,1336.780
609,55715.542000,-186.493,60.711,-185.822,-177.754,-386.021,-283.406,262.500,-305.240,1139.780
610,55715.564000,-206.073,55.652,-190.764,-184.604,-382.087,-285.258,202.500,-319.240,929.780
611,55715.592000,-207.052,50.593,-189.776,-193.551,-376.208,-280.185,151.500,-222.240,724.780
612,55715.612000,-202.157,43.510,-191.753,-197.456,-375.204,-281.101,86.500,-187.240,510.780
613,55715.639000,-189.430,44.522,-189.776,-198.460,-380.036,-277.140,8.500,-249.240,267.780
614,55715.643000,-189.430,39.462,-195.707,-199.437,-383.898,-275.149,-73.500,-290.240,3.780
615,55715.662000,-179.641,38.451,-202.625,-196.571,-383.929,-271.262,-144.500,-305.240,-234.220
616,55715.689000,-173.767,42.498,-209.544,-193.687,-385.894,-267.373,-164.500,-286.240,-309.220
617,55715.712000,-178.662,44.522,-207.568,-195.608,-389.746,-267.335,-185.500,-101.240,-369.220
618,55715.729000,-171.809,52.617,-198.672,-191.651,-390.747,-269.372,-215.500,75.760,-440.220
619,55715.749000,-159.082,59.700,-203.614,-188.767,-392.713,-265.483,-225.500,30.760,-596.220
620,55715.793000,-174.746,57.676,-199.660,-181.909,-391.807,-266.590,-244.500,64.760,-753.220
621,55715.797000,-171.809,54.640,-202.625,-176.955,-396.687,-267.656,-271.500,126.760,-857.220
622,55715.809000,-165.935,64.759,-204.602,-166.138,-400.654,-268.828,-276.500,93.760,-918.220
623,55715.832000,-187.472,73.866,-189.776,-164.077,-402.601,-273.784,-290.500,192.760,-1007.220
624,55715.850000,-195.304,68.806,-178.903,-154.310,-400.755,-273.959,-361.500,263.760,-1199.220
625,55715.880000,-179.641,76.901,-176.927,-140.427,-409.581,-280.101,-411.500,199.760,-1326.220
626,55715.901000,-167.893,83.984,-182.857,-128.746,-408.723,-277.355,-522.500,25.760,-1583.220
627,55715.926000,-168.872,100.174,-198.672,-112.041,-412.742,-279.615,-611.500,35.760,-1761.220
628,55715.941000,-157.124,113.328,-213.498,-107.140,-415.690,-278.714,-667.500,137.760,-1877.220
629,55715.957000,-135.587,123.447,-230.301,-89.422,-417.780,-283.947,-664.500,233.760,-1967.220
630,55715.983000,-125.797,122.435,-229.313,-74.728,-417.912,-285.192,-657.500,363.760,-2059.220
631,55716.11000,-69.996,125.470,-249.081,-57.012,-416.131,-292.398,-622.500,374.760,-2125.220
632,55716.29000,-60.207,116.364,-248.093,-31.389,-415.384,-303.681,-581.500,438.760,-2110.220
633,55716.48000,-39.648,110.292,-244.139,-22.531,-413.525,-307.778,-559.500,517.760,-2076.220
634,55716.66000,-1.468,112.316,-237.220,0.042,-409.854,-314.089,-534.500,568.760,-2003.220
635,55716.83000,8.321,114.340,-240.185,6.943,-407.978,-318.151,-537.500,253.760,-1997.220
636,55716.106000,2.447,110.292,-249.081,25.559,-405.242,-321.437,-547.500,-114.240,-2015.220
637,55716.123000,0.489,101.186,-263.907,40.211,-406.345,-319.726,-559.500,-130.240,-1993.220
638,55716.146000,18.111,99.162,-266.873,56.914,-402.621,-325.932,-547.500,66.760,-1886.220
639,55716.168000,35.732,105.233,-260.942,78.387,-395.076,-327.305,-508.500,231.760,-1739.220
640,55716.191000,65.101,97.138,-264.896,87.218,-390.315,-331.405,-438.500,343.760,-1602.220
641,55716.213000,85.660,80.949,-266.873,97.087,-382.656,-340.449,-357.500,273.760,-1450.220
642,55716.233000,95.449,61.723,-268.849,101.044,-379.786,-344.460,-317.500,209.760,-1343.220
643,55716.253000,90.554,57.676,-263.907,111.797,-373.109,-347.611,-262.500,94.760,-1090.220
644,55716.271000,84.681,57.676,-261.931,117.703,-375.096,-348.698,-220.500,76.760,-852.220
645,55716.288000,77.828,41.486,-258.965,126.525,-369.368,-352.799,-158.500,189.760,-636.220
646,55716.316000,87.618,27.320,-257.977,122.619,-366.428,-354.702,-110.500,300.760,-413.220
647,55716.333000,85.660,20.237,-256.000,125.536,-360.648,-356.729,-80.500,189.760,-210.220
648,55716.356000,60.207,19.225,-256.000,124.548,-359.672,-356.713,-54.500,-39.240,-59.220
649,55716.388000,34.753,18.213,-264.896,132.359,-357.808,-356.853,-35.500,-40.240,69.780
650,55716.402000,37.690,33.391,-263.907,126.540,-361.624,-357.730,-25.500,21.760,110.780
651,55716.431000,39.648,33.391,-262.919,120.652,-361.571,-356.642,-5.500,67.760,197.780
652,55716.431000,47.480,35.415,-268.849,115.829,-361.523,-360.494,14.500,78.760,316.780
653,55716.447000,52.375,40.474,-274.780,123.666,-364.497,-359.645,48.500,0.760,447.780
654,55716.464000,40.627,49.581,-276.757,107.933,-365.327,-354.443,106.500,-33.240,568.780
655,55716.490000,48.459,52.617,-280.710,103.154,-368.180,-359.278,164.500,91.760,696.780
656,55716.512000,59.228,51.605,-288.618,103.040,-365.283,-354.357,214.500,174.760,842.780
657,55716.532000,66.080,56.664,-286.641,96.321,-366.181,-361.128,277.500,217.760,998.780
658,55716.559000,69.996,60.711,-285.652,91.377,-366.139,-358.087,351.500,243.760,1202.780
659,55716.579000,74.891,65.771,-281.699,73.843,-370.814,-359.740,384.500,225.760,1315.780
660,55716.603000,69.996,76.901,-275.768,75.757,-371.802,-356.820,441.500,135.760,1525.780
661,55716.618000,63.143,84.996,-273.792,55.279,-375.483,-358.422,479.500,71.760,1667.780
662,55716.641000,61.185,90.055,-271.815,43.528,-376.345,-357.229,502.500,10.760,1740.780
663,55716.658000,46.501,92.079,-271.815,30.749,-381.072,-351.090,523.500,-18.240,1823.780
664,55716.676000,29.859,90.055,-267.861,14.132,-382.856,-350.794,548.500,20.760,1935.780
665,55716.697000,25.943,98.150,-248.093,4.251,-379.868,-346.685,547.500,17.760,2010.780
666,55716.733000,16.153,103.209,-246.116,-17.240,-385.478,-345.314,545.500,-105.240,2081.780
667,55716.766000,0.489,97.138,-244.139,-22.183,-389.308,-340.300,538.500,-190.240,2100.780
668,55716.766000,-20.069,104.221,-237.220,-40.834,-392.046,-335.044,538.500,-328.240,2115.780
669,55716.780000,-42.585,112.316,-231.290,-56.603,-390.942,-328.860,550.500,-438.240,2112.780
670,55716.793000,-62.164,112.316,-221.405,-70.413,-395.663,-319.750,591.500,-511.240,2136.780
671,55716.821000,-96.428,113.328,-209.544,-92.953,-393.525,-318.369,628.500,-426.240,2172.780
672,55716.838000,-109.155,101.186,-205.591,-99.855,-393.466,-315.294,635.500,-291.240,2167.780
673,55716.861000,-100.344,100.174,-216.463,-121.555,-391.344,-306.052,654.500,-467.240,2127.780
674,55716.886000,-106.218,122.435,-224.371,-132.318,-393.182,-304.875,745.500,-721.240,2115.780
675,55716.903000,-130.692,125.470,-217.452,-154.044,-390.094,-294.650,826.500,-643.240,2114.780
676,55716.927000,-191.388,92.079,-184.834,-160.929,-388.097,-293.546,810.500,-443.240,2064.780
677,55716.949000,-194.325,60.711,-184.834,-173.746,-381.212,-291.358,687.500,-43.240,1850.780
678,55716.973000,-162.019,57.676,-197.683,-183.549,-379.188,-291.187,551.500,-130.240,1556.780
679,55716.987000,-151.250,54.640,-194.718,-189.438,-377.200,-291.085,426.500,-413.240,1271.780
680,55717.9000,-179.641,40.474,-183.846,-196.461,-375.212,-282.103,318.500,-388.240,1066.780
681,55717.37000,-196.283,31.368,-179.892,-208.143,-372.198,-286.822,212.500,-176.240,859.780
682,55717.56000,-190.409,25.296,-177.915,-208.221,-369.298,-283.871,99.500,-18.240,629.780
683,55717.77000,-173.767,24.285,-177.915,-206.230,-369.314,-285.875,-19.500,-16.240,398.780
684,55717.92000,-159.082,26.308,-186.811,-211.210,-365.403,-282.838,-73.500,-71.240,298.780
685,55717.105000,-156.145,29.344,-189.776,-220.067,-367.262,-278.742,-156.500,-136.240,145.780
686,55717.123000,-159.082,36.427,-197.683,-223.029,-368.204,-276.719,-218.500,-122.240,24.780
687,55717.148000,-159.082,40.474,-205.591,-223.989,-370.130,-276.700,-252.500,-30.240,-73.220
688,55717.176000,-160.061,42.498,-214.486,-224.042,-366.262,-275.719,-263.500,4.760,-197.220
689,55717.193000,-171.809,51.605,-228.324,-220.144,-374.041,-270.857,-251.500,-38.240,-346.220
690,55717.221000,-179.641,54.640,-228.324,-214.256,-370.222,-273.919,-260.500,-66.240,-499.220
691,55717.238000,-185.514,55.652,-227.336,-209.267,-377.037,-275.968,-268.500,-73.240,-675.220
692,55717.256000,-183.556,61.723,-225.359,-213.310,-377.976,-268.020,-295.500,-66.240,-849.220
693,55717.278000,-178.662,65.771,-225.359,-199.479,-388.740,-270.221,-305.500,-67.240,-928.220
694,55717.308000,-179.641,66.783,-219.429,-193.608,-390.729,-269.338,-323.500,-105.240,-1089.220
695,55717.341000,-175.725,71.842,-214.486,-180.938,-394.720,-264.635,-353.500,-82.240,-1276.220
696,55717.341000,-170.830,81.960,-213.498,-167.064,-404.513,-269.791,-394.500,4.760,-1457.220
697,55717.373000,-159.082,90.055,-204.602,-162.206,-404.560,-267.908,-416.500,162.760,-1604.220
698,55717.376000,-150.272,84.996,-195.707,-143.457,-410.527,-274.140,-426.500,301.760,-1689.220
699,55717.407000,-134.608,82.972,-188.788,-137.613,-409.614,-273.260,-464.500,277.760,-1743.220
700,55717.422000,-123.839,90.055,-186.811,-116.898,-416.567,-279.525,-537.500,118.760,-1805.220
701,55717.445000,-120.902,97.138,-189.776,-92.400,-422.595,-278.967,-579.500,24.760,-1839.220
702,55717.472000,-114.050,98.150,-202.625,-83.611,-422.676,-278.138,-668.500,-101.240,-1936.220
703,55717.487000,-104.260,102.198,-215.475,-65.988,-429.611,-275.488,-754.500,-177.240,-2059.220
704,55717.509000,-91.533,105.233,-223.382,-62.038,-431.580,-276.540,-824.500,-213.240,-2146.220
705,55717.527000,-93.491,108.269,-235.243,-36.588,-434.715,-276.002,-879.500,-152.240,-2193.220
706,55717.544000,-81.744,104.221,-238.208,-23.806,-439.667,-277.207,-903.500,123.760,-2215.220
707,55717.572000,-45.522,106.245,-243.151,3.677,-434.103,-285.575,-907.500,252.760,-2267.220
708,55717.601000,-11.258,102.198,-246.116,12.475,-435.152,-284.745,-877.500,16.760,-2300.220
709,55717.605000,-19.090,99.162,-242.162,32.044,-431.458,-287.065,-875.500,-92.240,-2254.220
710,55717.625000,-24.964,98.150,-243.151,57.526,-426.848,-292.443,-888.500,-4.240,-2202.220
711,55717.646000,8.321,98.150,-258.965,64.436,-424.003,-297.491,-896.500,229.760,-2083.220
712,55717.668000,33.774,100.174,-279.722,82.038,-417.388,-300.764,-838.500,203.760,-1966.220
713,55717.686000,38.669,93.091,-278.734,94.845,-415.563,-306.899,-717.500,137.760,-1815.220
714,55717.715000,45.522,89.043,-281.699,111.485,-405.067,-313.113,-601.500,227.760,-1601.220
715,55717.729000,60.207,81.960,-287.629,115.459,-404.132,-317.122,-491.500,360.760,-1385.220
716,55717.751000,81.744,66.783,-292.571,122.323,-394.514,-323.161,-381.500,363.760,-1185.220
717,55717.780000,90.554,58.688,-295.537,133.197,-385.894,-334.193,-263.500,348.760,-977.220
718,55717.798000,97.407,45.534,-289.606,139.023,-379.175,-335.288,-198.500,384.760,-847.220
719,55717.818000,100.344,30.356,-275.768,143.958,-374.378,-340.303,-93.500,367.760,-572.220
720,55717.836000,94.470,21.249,-260.942,150.842,-374.438,-342.394,-24.500,252.760,-289.220
721,55717.858000,77.828,18.213,-256.000,151.829,-373.478,-343.397,11.500,114.760,-42.220
722,55717.881000,54.333,18.213,-253.035,143.974,-370.505,-343.261,45.500,-0.240,130.780
723,55717.899000,44.543,24.285,-252.046,144.954,-376.321,-340.319,70.500,-106.240,252.780
724,55717.917000,25.943,22.261,-253.035,146.937,-375.370,-342.324,96.500,-84.240,389.780
725,55717.933000,20.069,27.320,-249.081,139.992,-374.345,-337.280,118.500,40.760,529.780
726,55717.959000,21.048,33.391,-250.069,134.269,-379.123,-343.080,148.500,106.760,673.780
727,55717.981000,45.522,28.332,-260.942,124.432,-379.037,-339.952,153.500,190.760,738.780
728,55717.997000,62.164,39.462,-272.803,113.687,-382.809,-338.773,164.500,53.760,848.780
729,55718.25000,53.354,45.534,-281.699,110.796,-385.684,-339.703,200.500,-56.240,963.780
730,55718.39000,43.564,48.569,-288.618,102.907,-386.584,-335.625,250.500,37.760,1078.780
731,55718.62000,47.480,53.628,-292.571,96.101,-387.487,-337.472,303.500,193.760,1207.780
732,55718.84000,59.228,63.747,-295.537,84.430,-391.248,-339.230,365.500,268.760,1336.780
733,55718.97000,70.975,67.794,-294.548,72.645,-394.047,-335.081,426.500,107.760,1476.780
734,55718.111000,66.080,84.996,-293.560,59.925,-393.932,-334.856,505.500,-20.240,1646.780
735,55718.141000,42.585,92.079,-287.629,43.291,-397.652,-332.588,551.500,-11.240,1748.780
736,55718.162000,30.837,93.091,-277.745,36.399,-396.624,-330.499,622.500,95.760,1932.780
737,55718.194000,33.774,101.186,-269.838,20.770,-401.320,-329.232,643.500,25.760,2030.780
738,55718.213000,15.174,116.364,-257.977,5.019,-402.151,-323.046,665.500,-129.240,2086.780
739,55718.238000,-21.048,104.221,-256.000,-16.525,-403.892,-320.694,681.500,-76.240,2166.780
740,55718.247000,-42.585,92.079,-242.162,-24.422,-403.825,-316.616,668.500,12.760,2208.780
741,55718.272000,-51.396,94.103,-232.278,-45.993,-400.728,-315.254,637.500,-133.240,2196.780
742,55718.290000,-62.164,109.281,-214.486,-63.734,-405.414,-305.090,611.500,-295.240,2162.780
743,55718.298000,-96.428,116.364,-195.707,-73.406,-406.287,-310.824,577.500,-274.240,2119.780
744,55718.321000,-117.966,103.209,-181.869,-91.124,-400.325,-307.565,546.500,-78.240,2090.780
745,55718.355000,-125.797,96.126,-177.915,-108.799,-395.329,-306.273,463.500,74.760,2014.780
746,55718.368000,-113.071,81.960,-171.985,-127.503,-394.199,-300.037,346.500,-27.240,1887.780
747,55718.388000,-118.945,65.771,-187.799,-133.433,-398.988,-294.020,200.500,-580.240,1721.780
748,55718.411000,-170.830,82.972,-202.625,-151.306,-396.907,-279.923,129.500,-1152.240,1506.780
749,55718.451000,-236.421,74.877,-204.602,-168.070,-397.731,-271.750,188.500,-1080.240,1351.780
750,55718.464000,-245.231,64.759,-205.591,-170.113,-401.589,-264.818,219.500,-306.240,1275.780
751,55718.478000,-186.493,60.711,-218.440,-186.758,-390.792,-269.459,188.500,203.760,1136.780
752,55718.501000,-175.725,66.783,-213.498,-193.608,-388.794,-270.324,168.500,122.760,1014.780
753,55718.522000,-203.136,57.676,-207.568,-196.700,-386.840,-262.396,154.500,-275.240,798.780
754,55718.541000,-227.610,56.664,-204.602,-202.553,-386.786,-263.277,138.500,-370.240,617.780
755,55718.558000,-224.673,53.628,-196.695,-205.524,-386.761,-261.256,120.500,-155.240,441.780
756,55718.581000,-207.052,53.628,-192.741,-209.411,-387.692,-262.171,77.500,-5.240,230.780
757,55718.601000,-198.241,48.569,-190.764,-211.412,-384.773,-261.154,20.500,-34.240,19.780
758,55718.623000,-198.241,47.557,-185.822,-203.531,-388.712,-262.273,-57.500,-87.240,-185.220
759,55718.641000,-197.262,51.605,-183.846,-203.654,-384.848,-257.353,-142.500,-108.240,-380.220
760,55718.661000,-198.241,57.676,-184.834,-201.600,-391.635,-259.351,-177.500,-118.240,-566.220
761,55718.683000,-193.346,61.723,-184.834,-200.647,-392.614,-257.398,-241.500,-102.240,-655.220
762,55718.703000,-193.346,59.700,-177.915,-183.006,-399.548,-255.733,-296.500,-21.240,-827.220
763,55718.722000,-177.683,61.723,-174.950,-182.953,-405.352,-255.727,-369.500,37.760,-973.220
764,55718.741000,-162.998,66.783,-171.985,-179.091,-403.455,-253.828,-463.500,-75.240,-1109.220
765,55718.758000,-162.998,73.866,-175.938,-170.334,-415.152,-245.110,-558.500,-308.240,-1261.220
766,55718.777000,-178.662,69.818,-178.903,-155.638,-419.156,-244.380,-652.500,-390.240,-1400.220
767,55718.795000,-187.472,79.937,-185.822,-143.851,-427.972,-242.610,-741.500,-204.240,-1505.220
768,55718.822000,-167.893,89.043,-188.788,-139.997,-428.979,-238.739,-819.500,9.760,-1605.220
769,55718.844000,-142.440,103.209,-205.591,-129.067,-437.778,-243.844,-859.500,37.760,-1675.220
770,55718.862000,-141.461,110.292,-223.382,-112.519,-439.870,-238.228,-893.500,24.760,-1806.220
771,55718.882000,-145.377,110.292,-226.347,-97.737,-441.934,-243.409,-884.500,175.760,-1889.220
772,55718.902000,-116.987,111.304,-232.278,-80.012,-443.055,-249.628,-878.500,416.760,-1944.220
773,55718.945000,-91.533,116.364,-237.220,-69.187,-446.053,-251.785,-872.500,401.760,-2013.220
774,55718.958000,-93.491,114.340,-238.208,-42.708,-441.451,-258.166,-840.500,333.760,-2064.220
775,55718.980000,-87.618,115.352,-235.243,-36.690,-444.400,-265.160,-807.500,450.760,-2085.220
776,55718.988000,-62.164,117.375,-234.255,-13.165,-435.900,-272.477,-779.500,555.760,-2051.220
777,55719.5000,-28.880,126.482,-238.208,1.643,-438.930,-278.643,-748.500,537.760,-2005.220
778,55719.31000,-17.132,125.470,-245.127,18.362,-429.397,-288.794,-712.500,445.760,-1961.220
779,55719.51000,-16.153,107.257,-241.174,36.033,-420.843,-296.992,-650.500,530.760,-1830.220
780,55719.68000,24.964,94.103,-250.069,39.045,-417.961,-302.956,-598.500,483.760,-1689.220
781,55719.99000,46.501,98.150,-262.919,56.675,-416.185,-305.239,-571.500,68.760,-1583.220
782,55719.103000,23.985,100.174,-275.768,70.374,-418.245,-304.494,-507.500,-127.240,-1510.220
783,55719.131000,21.048,77.913,-285.652,81.126,-405.761,-310.606,-454.500,69.760,-1435.220
784,55719.153000,64.122,76.901,-298.502,88.019,-408.724,-311.709,-364.500,74.760,-1290.220
785,55719.176000,63.143,68.806,-294.548,102.678,-403.051,-313.944,-225.500,160.760,-933.220
786,55719.196000,56.291,52.617,-280.710,110.513,-396.347,-318.028,-156.500,304.760,-715.220
787,55719.241000,73.912,59.700,-276.757,106.676,-393.403,-323.870,-56.500,428.760,-389.220
788,55719.254000,75.870,58.688,-272.803,112.599,-395.389,-325.941,18.500,211.760,-246.220
789,55719.258000,63.143,46.545,-269.838,116.530,-391.552,-328.969,49.500,66.760,-155.220
790,55719.281000,54.333,37.439,-269.838,121.387,-391.599,-327.086,73.500,130.760,-7.220
791,55719.301000,65.101,28.332,-263.907,113.603,-392.493,-328.916,117.500,163.760,197.780
792,55719.321000,71.954,29.344,-257.977,106.753,-390.495,-329.782,159.500,80.760,402.780
793,55719.343000,69.996,33.391,-260.942,108.745,-390.511,-331.786,193.500,62.760,601.780
794,55719.361000,69.996,40.474,-266.873,98.916,-389.457,-329.644,231.500,70.760,784.780
795,55719.379000,71.954,38.451,-276.757,92.137,-395.198,-330.502,256.500,7.760,871.780
796,55719.401000,70.975,48.569,-279.722,88.173,-399.037,-325.505,312.500,-71.240,1041.780
797,55719.410000,65.101,59.700,-282.687,78.407,-406.690,-322.370,378.500,-100.240,1223.780
798,55719.437000,60.207,58.688,-287.629,65.644,-407.544,-319.190,456.500,-138.240,1405.780
799,55719.457000,51.396,66.783,-284.664,52.907,-411.301,-316.007,539.500,-175.240,1570.780
800,55719.485000,38.669,73.866,-277.745,48.906,-409.335,-312.000,608.500,-150.240,1737.780
801,55719.499000,32.795,83.984,-272.803,29.373,-418.834,-308.690,657.500,-163.240,1858.780
802,55719.522000,20.069,94.103,-263.907,7.674,-420.584,-297.475,699.500,-210.240,1948.780
803,55719.540000,1.468,92.079,-253.035,-4.951,-423.366,-301.187,712.500,-212.240,1996.780
804,55719.560000,-9.300,92.079,-246.116,-25.628,-426.090,-291.957,720.500,-257.240,2072.780
805,55719.587000,-55.312,110.292,-228.324,-28.580,-428.001,-289.934,716.500,-319.240,2096.780
806,55719.604000,-71.954,116.364,-232.278,-52.203,-427.795,-281.641,700.500,-336.240,2059.780
807,55719.636000,-99.365,112.316,-227.336,-63.943,-433.495,-278.473,718.500,-432.240,1953.780
808,55719.655000,-122.860,103.209,-225.359,-81.677,-431.406,-272.255,737.500,-385.240,1870.780
809,55719.673000,-118.945,105.233,-223.382,-92.503,-426.472,-271.085,729.500,-130.240,1874.780
810,55719.691000,-104.260,104.221,-221.405,-113.130,-421.450,-268.757,717.500,-35.240,1903.780
811,55719.713000,-109.155,102.198,-217.452,-123.929,-419.419,-267.584,712.500,-104.240,1883.780
812,55719.727000,-124.818,100.174,-212.510,-133.774,-420.301,-263.471,718.500,-341.240,1860.780
813,55719.753000,-164.956,87.020,-205.591,-155.423,-414.305,-259.157,707.500,-382.240,1775.780
814,55719.768000,-168.872,72.854,-203.614,-158.341,-414.277,-260.090,672.500,-86.240,1693.780
815,55719.790000,-164.956,68.806,-196.695,-167.220,-404.522,-260.928,601.500,58.760,1547.780
816,55719.812000,-182.577,66.783,-185.822,-182.867,-401.476,-262.624,528.500,48.760,1342.780
817,55719.834000,-178.662,49.581,-177.915,-194.664,-389.757,-265.382,434.500,79.760,1138.780
818,55719.852000,-167.893,59.700,-183.846,-204.493,-388.703,-263.241,318.500,-102.240,914.780
819,55719.886000,-193.346,63.747,-178.903,-199.600,-388.747,-263.327,275.500,-183.240,749.780
820,55719.913000,-205.094,52.617,-177.915,-209.482,-383.824,-260.205,261.500,-83.240,695.780
821,55719.942000,-186.493,47.557,-173.961,-217.163,-382.777,-268.930,213.500,245.760,604.780
822,55719.945000,-163.977,39.462,-171.985,-218.221,-374.061,-268.922,133.500,284.760,503.780
823,55719.966000,-167.893,41.486,-175.938,-212.316,-374.113,-270.995,39.500,33.760,360.780
824,55719.972000,-185.514,36.427,-182.857,-221.166,-373.067,-268.871,-45.500,-169.240,187.780
825,55719.993000,-206.073,36.427,-184.834,-227.044,-377.854,-265.808,-125.500,-207.240,-28.220
826,55720.19000,-222.715,36.427,-194.718,-222.220,-379.838,-260.969,-210.500,-80.240,-277.220
827,55720.37000,-218.799,45.534,-200.649,-218.219,-383.740,-263.988,-296.500,123.760,-527.220
828,55720.59000,-199.220,55.652,-202.625,-217.285,-378.912,-264.010,-340.500,138.760,-772.220
829,55720.63000,-197.262,65.771,-207.568,-209.377,-387.690,-264.140,-406.500,8.760,-889.220
830,55720.95000,-202.157,72.854,-209.544,-200.631,-388.741,-260.356,-439.500,-65.240,-1079.220
831,55720.113000,-203.136,78.925,-207.568,-191.727,-395.591,-262.474,-458.500,22.760,-1216.220
832,55720.141000,-192.367,88.032,-205.591,-181.950,-398.584,-260.675,-482.500,148.760,-1365.220
833,55720.161000,-175.725,92.079,-201.637,-174.043,-403.490,-262.778,-524.500,138.760,-1528.220
834,55720.178000,-162.998,97.138,-202.625,-159.304,-410.396,-263.030,-585.500,57.760,-1694.220
835,55720.202000,-154.187,108.269,-204.602,-146.469,-419.216,-265.216,-635.500,40.760,-1838.220
836,55720.223000,-140.482,109.281,-201.637,-124.914,-428.121,-262.634,-689.500,120.760,-1956.220
837,55720.246000,-119.924,116.364,-209.544,-110.202,-426.317,-265.849,-716.500,144.760,-2019.220
838,55720.277000,-107.197,116.364,-219.429,-93.480,-432.271,-268.107,-757.500,141.760,-2126.220
839,55720.292000,-95.449,115.352,-220.417,-87.644,-428.455,-268.215,-792.500,165.760,-2216.220
840,55720.316000,-81.744,112.316,-229.313,-63.043,-432.541,-274.552,-828.500,173.760,-2281.220
841,55720.329000,-61.185,117.375,-240.185,-29.748,-433.810,-276.124,-851.500,132.760,-2313.220
842,55720.350000,-53.354,117.375,-250.069,-20.854,-435.821,-280.217,-824.500,31.760,-2313.220
843,55720.371000,-48.459,104.221,-245.127,3.590,-432.173,-281.638,-778.500,99.760,-2248.220
844,55720.391000,-27.901,99.162,-242.162,7.564,-433.173,-284.661,-740.500,127.760,-2132.220
845,55720.414000,-7.342,111.304,-251.058,33.992,-432.444,-286.114,-721.500,94.760,-2067.220
846,55720.431000,3.426,102.198,-249.081,41.889,-430.576,-291.178,-657.500,14.760,-1899.220
847,55720.450000,1.468,94.103,-252.046,59.509,-425.896,-294.448,-604.500,39.760,-1753.220
848,55720.470000,11.258,82.972,-259.954,70.288,-418.250,-299.570,-548.500,160.760,-1596.220
849,55720.493000,23.006,75.889,-260.942,85.027,-421.284,-301.796,-489.500,136.760,-1432.220
850,55720.507000,28.880,72.854,-258.965,100.663,-413.684,-305.035,-417.500,100.760,-1260.220
851,55720.532000,14.195,69.818,-252.046,102.698,-412.729,-309.995,-344.500,301.760,-1078.220
852,55720.561000,14.195,61.723,-242.162,117.381,-400.280,-317.160,-312.500,563.760,-941.220
853,55720.590000,62.164,50.593,-250.069,123.338,-400.328,-322.188,-322.500,305.760,-872.220
854,55720.593000,72.933,52.617,-259.954,129.199,-395.543,-324.266,-316.500,114.760,-821.220
855,55720.623000,58.249,41.486,-260.942,122.384,-393.543,-327.101,-273.500,-75.240,-666.220
856,55720.637000,48.459,38.451,-268.849,124.314,-390.658,-327.139,-213.500,56.760,-455.220
857,55720.659000,53.354,32.379,-281.699,126.287,-384.868,-331.118,-126.500,213.760,-206.220
858,55720.677000,69.017,33.391,-281.699,129.188,-386.832,-328.214,-44.500,146.760,22.780
859,55720.699000,59.228,30.356,-279.722,124.356,-385.816,-332.067,30.500,67.760,217.780
860,55720.722000,50.417,31.368,-279.722,124.295,-384.852,-329.114,93.500,3.760,362.780
861,55720.743000,41.606,29.344,-279.722,123.379,-391.615,-329.090,134.500,-43.240,480.780
862,55720.760000,30.837,35.415,-281.699,116.494,-387.683,-328.973,153.500,-29.240,536.780
863,55720.781000,27.901,37.439,-279.722,112.660,-394.418,-329.882,191.500,58.760,648.780
864,55720.802000,35.732,46.545,-284.664,101.871,-395.290,-327.721,234.500,126.760,744.780
865,55720.819000,39.648,46.545,-283.676,101.870,-391.418,-329.694,296.500,193.760,873.780
866,55720.836000,55.312,54.640,-280.710,89.175,-392.269,-330.453,350.500,239.760,1031.780
867,55720.865000,61.185,54.640,-274.780,92.138,-397.133,-329.515,410.500,101.760,1194.780
868,55720.882000,45.522,65.771,-275.768,72.535,-400.829,-325.226,464.500,-157.240,1346.780
869,55720.913000,21.048,73.866,-275.768,67.573,-402.724,-320.214,535.500,-242.240,1481.780
870,55720.923000,11.258,75.889,-269.838,48.993,-411.266,-315.937,608.500,-167.240,1625.780
871,55720.948000,4.405,76.901,-266.873,49.028,-413.200,-316.920,640.500,-136.240,1698.780
872,55720.967000,-7.342,87.020,-255.012,28.438,-417.855,-311.628,691.500,-128.240,1831.780
873,55720.992000,-26.922,93.091,-244.139,10.660,-416.736,-302.455,719.500,-131.240,1916.780
874,55721.19000,-32.795,91.067,-243.151,-2.051,-417.588,-302.229,728.500,-160.240,1957.780
875,55721.33000,-47.480,96.126,-237.220,-23.663,-423.204,-293.965,724.500,-246.240,1956.780
876,55721.52000,-60.207,94.103,-229.313,-26.607,-424.146,-292.927,718.500,-246.240,1951.780
877,55721.58000,-69.996,95.115,-224.371,-41.336,-424.015,-289.713,705.500,-159.240,1932.780
878,55721.77000,-77.828,93.091,-213.498,-59.001,-423.858,-286.447,692.500,-15.240,1942.780
879,55721.105000,-77.828,87.020,-213.498,-76.598,-419.825,-289.094,683.500,68.760,1960.780
880,55721.122000,-86.639,91.067,-201.637,-91.363,-413.889,-286.871,652.500,156.760,1971.780
881,55721.144000,-96.428,78.925,-188.788,-108.960,-409.857,-289.518,597.500,185.760,1954.780
882,55721.166000,-91.533,70.830,-192.741,-124.634,-405.844,-290.229,476.500,143.760,1889.780
883,55721.185000,-98.386,81.960,-199.660,-131.598,-397.077,-288.148,381.500,-205.240,1774.780
884,55721.210000,-133.629,82.972,-194.718,-151.263,-397.872,-281.892,355.500,-536.240,1678.780
885,55721.226000,-178.662,75.889,-194.718,-164.043,-400.664,-276.740,361.500,-445.240,1599.780
886,55721.247000,-191.388,68.806,-206.579,-180.774,-395.678,-273.497,332.500,-147.240,1469.780
887,55721.271000,-195.304,67.794,-209.544,-191.592,-383.969,-276.273,294.500,23.760,1272.780
888,55721.291000,-190.409,62.735,-217.452,-195.558,-382.000,-274.236,269.500,17.760,1153.780
889,55721.314000,-190.409,62.735,-219.429,-204.409,-379.019,-273.098,220.500,-75.240,936.780
890,55721.340000,-196.283,63.747,-215.475,-206.374,-379.969,-272.078,184.500,-141.240,747.780
891,55721.361000,-210.967,55.652,-213.498,-208.349,-378.017,-272.045,166.500,-55.240,574.780
892,55721.375000,-201.178,48.569,-213.498,-215.269,-372.151,-270.945,129.500,28.760,375.780
893,55721.393000,-194.325,50.593,-206.579,-210.290,-372.191,-275.955,84.500,-13.240,160.780
894,55721.441000,-195.304,47.557,-198.672,-211.319,-376.056,-271.010,27.500,-30.240,-29.220
895,55721.443000,-191.388,47.557,-191.753,-207.389,-374.155,-273.051,-32.500,9.760,-204.220
896,55721.463000,-183.556,47.557,-186.811,-205.370,-377.073,-275.052,-69.500,21.760,-297.220
897,55721.477000,-173.767,55.652,-187.799,-209.388,-378.979,-268.088,-151.500,-34.240,-505.220
898,55721.504000,-175.725,55.652,-187.799,-192.597,-382.993,-275.271,-211.500,-56.240,-690.220
899,55721.521000,-175.725,56.664,-186.811,-194.561,-387.815,-272.278,-262.500,44.760,-828.220
900,55721.541000,-166.914,55.652,-189.776,-186.654,-390.786,-275.367,-308.500,109.760,-936.220
901,55721.562000,-164.956,61.723,-189.776,-182.757,-394.694,-272.478,-359.500,150.760,-1047.220
902,55721.587000,-158.103,66.783,-192.741,-170.937,-395.764,-276.624,-419.500,112.760,-1189.220
903,55721.608000,-154.187,69.818,-203.614,-156.223,-401.703,-275.893,-475.500,33.760,-1358.220
904,55721.626000,-162.998,78.925,-204.602,-157.184,-403.629,-275.874,-508.500,128.760,-1482.220
905,55721.646000,-158.103,81.960,-211.521,-132.634,-407.718,-279.257,-527.500,229.760,-1537.220
906,55721.668000,-137.545,90.055,-216.463,-131.578,-406.755,-284.199,-554.500,285.760,-1672.220
907,55721.683000,-125.797,93.091,-218.440,-109.938,-411.784,-288.514,-589.500,206.760,-1810.220
908,55721.706000,-121.881,97.138,-220.417,-105.027,-413.763,-288.598,-635.500,241.760,-1931.220
909,55721.715000,-109.155,100.174,-227.336,-85.327,-414.901,-295.837,-674.500,318.760,-2044.220
910,55721.733000,-92.512,101.186,-231.290,-72.607,-415.017,-296.061,-698.500,360.760,-2127.220
911,55721.768000,-74.891,102.198,-232.278,-53.895,-413.244,-304.270,-704.500,368.760,-2173.220
912,55721.796000,-59.228,105.233,-234.255,-35.236,-409.537,-310.511,-695.500,419.760,-2169.220
913,55721.826000,-37.690,104.221,-237.220,-16.514,-412.603,-316.746,-689.500,423.760,-2162.220
914,55721.827000,-14.195,107.257,-237.220,3.038,-410.846,-317.094,-670.500,281.760,-2143.220
915,55721.848000,-0.489,104.221,-238.208,5.999,-407.967,-320.103,-659.500,68.760,-2113.220
916,55721.871000,7.342,100.174,-251.058,26.486,-405.254,-318.500,-645.500,-105.240,-2039.220
917,55721.896000,-2.447,101.186,-248.093,44.176,-402.506,-324.723,-610.500,-13.240,-1906.220
918,55721.918000,-14.195,97.138,-242.162,60.904,-397.812,-332.900,-582.500,279.760,-1766.220
919,55721.941000,20.069,100.174,-258.965,70.610,-391.130,-332.095,-543.500,253.760,-1705.220
920,55721.958000,42.585,101.186,-260.942,79.511,-390.237,-338.160,-479.500,88.760,-1600.220
921,55721.976000,51.396,77.913,-263.907,93.225,-382.618,-343.334,-421.500,194.760,-1418.220
922,55721.993000,78.807,75.889,-266.873,98.126,-381.694,-344.406,-394.500,222.760,-1313.220
923,55722.19000,89.576,71.842,-267.861,103.996,-375.940,-347.470,-340.500,106.760,-1105.220
924,55722.35000,81.744,61.723,-269.838,113.805,-371.188,-351.587,-269.500,-78.240,-887.220
925,55722.55000,74.891,50.593,-276.757,120.603,-373.189,-347.767,-202.500,-75.240,-672.220
926,55722.68000,75.870,36.427,-280.710,125.546,-367.423,-353.768,-131.500,38.760,-440.220
927,55722.111000,72.933,30.356,-274.780,123.529,-368.377,-349.793,-69.500,134.760,-241.220
928,55722.125000,72.933,22.261,-272.803,124.602,-365.476,-356.707,-7.500,221.760,-47.220
929,55722.147000,79.786,23.273,-272.803,129.485,-364.554,-356.794,31.500,172.760,119.780
930,55722.160000,71.954,30.356,-269.838,118.705,-364.457,-355.619,45.500,85.760,188.780
931,55722.177000,55.312,33.391,-265.884,112.851,-366.338,-355.514,82.500,-44.240,328.780
932,55722.196000,54.333,36.427,-264.896,116.784,-370.244,-354.594,122.500,21.760,488.780
933,55722.220000,59.228,41.486,-265.884,107.976,-366.293,-356.412,153.500,115.760,643.780
934,55722.251000,61.185,43.510,-263.907,102.106,-370.111,-354.335,180.500,115.760,783.780
935,55722.270000,62.164,47.557,-263.907,92.339,-370.021,-355.146,205.500,83.760,906.780
936,55722.287000,59.228,52.617,-266.873,90.444,-374.839,-356.092,234.500,53.760,1044.780
937,55722.304000,61.185,59.700,-271.815,80.633,-375.719,-353.948,272.500,19.760,1187.780
938,55722.327000,56.291,70.830,-268.849,75.811,-379.543,-355.827,314.500,-13.240,1325.780
939,55722.345000,48.459,69.818,-268.849,57.159,-382.281,-350.572,345.500,-20.240,1404.780
940,55722.367000,42.585,76.901,-268.849,52.216,-384.175,-346.544,397.500,0.760,1580.780
941,55722.395000,45.522,94.103,-270.826,36.569,-386.936,-345.280,439.500,-34.240,1737.780
942,55722.408000,31.816,103.209,-266.873,15.927,-391.594,-337.033,492.500,-166.240,1851.780
943,55722.437000,4.405,98.150,-262.919,12.048,-393.492,-337.947,560.500,-219.240,1954.780
944,55722.446000,-13.216,97.138,-261.931,-9.556,-396.204,-331.655,599.500,-65.240,2045.780
945,55722.463000,-13.216,104.221,-261.931,-18.363,-394.188,-332.486,605.500,30.760,2091.780
946,55722.492000,-9.300,106.245,-256.988,-39.916,-393.026,-331.121,610.500,-138.240,2091.780
947,55722.508000,-30.837,108.269,-251.058,-48.730,-395.850,-328.993,624.500,-247.240,2095.780
948,55722.531000,-65.101,103.209,-243.151,-65.478,-392.802,-323.778,645.500,-249.240,2095.780
949,55722.548000,-69.017,97.138,-234.255,-84.191,-390.704,-317.543,627.500,-28.240,2071.780
950,55722.573000,-55.312,108.269,-227.336,-89.040,-391.625,-319.425,572.500,-90.240,1983.780
951,55722.596000,-65.101,105.233,-216.463,-116.576,-389.448,-312.049,526.500,-359.240,1890.780
952,55722.616000,-82.723,98.150,-204.602,-123.478,-389.388,-308.974,491.500,-509.240,1830.780
953,55722.636000,-91.533,95.115,-199.660,-141.220,-392.139,-299.797,455.500,-641.240,1810.780
954,55722.656000,-116.008,105.233,-197.683,-148.156,-392.082,-294.752,451.500,-724.240,1780.780
955,55722.677000,-142.440,103.209,-194.718,-164.955,-389.036,-286.582,483.500,-706.240,1713.780
956,55722.697000,-163.977,90.055,-193.730,-173.753,-387.988,-287.412,498.500,-588.240,1660.780
957,55722.712000,-171.809,75.889,-198.672,-190.570,-383.007,-279.245,508.500,-381.240,1566.780
958,55722.723000,-148.314,72.854,-200.649,-201.316,-382.908,-280.040,480.500,-241.240,1492.780
959,55722.751000,-140.482,71.842,-206.579,-203.387,-378.057,-276.071,456.500,-324.240,1432.780
960,55722.765000,-161.040,56.664,-192.741,-216.134,-375.040,-275.849,404.500,-334.240,1276.780
961,55722.792000,-167.893,46.545,-205.591,-225.037,-372.061,-271.757,330.500,-321.240,1030.780
962,55722.814000,-176.704,42.498,-209.544,-231.964,-371.035,-267.698,266.500,-291.240,795.780
963,55722.837000,-187.472,37.439,-194.718,-228.994,-371.060,-269.719,201.500,-186.240,584.780
964,55722.855000,-196.283,33.391,-190.764,-236.910,-365.186,-267.617,157.500,-124.240,484.780
965,55722.877000,-180.620,38.451,-187.799,-238.849,-369.039,-266.594,48.500,-152.240,283.780
966,55722.907000,-180.620,47.557,-179.892,-239.878,-372.905,-261.649,-45.500,-391.240,83.780
967,55722.928000,-192.367,50.593,-174.950,-237.002,-375.839,-256.774,-113.500,-527.240,-139.220
968,55722.948000,-206.073,50.593,-176.927,-239.954,-379.684,-253.764,-194.500,-404.240,-324.220
969,55722.963000,-213.904,46.545,-180.880,-234.152,-381.677,-248.942,-282.500,-80.240,-507.220
970,55722.981000,-200.199,47.557,-181.869,-228.307,-380.764,-248.062,-364.500,122.760,-701.220
971,55723.3000,-182.577,53.628,-183.846,-222.287,-387.585,-253.083,-435.500,126.760,-892.220
972,55723.21000,-179.641,57.676,-185.822,-213.497,-391.537,-250.280,-495.500,113.760,-1066.220
973,55723.43000,-178.662,63.747,-191.753,-212.474,-396.383,-250.293,-519.500,122.760,-1142.220
974,55723.73000,-173.767,76.901,-191.753,-202.671,-400.343,-249.477,-556.500,120.760,-1267.220
975,55723.90000,-172.788,77.913,-199.660,-193.811,-406.227,-249.627,-595.500,130.760,-1402.220
976,55723.112000,-173.767,82.972,-198.672,-176.189,-409.291,-248.951,-626.500,166.760,-1550.220
977,55723.131000,-169.851,91.067,-202.625,-171.192,-413.201,-252.972,-651.500,203.760,-1679.220
978,55723.160000,-159.082,94.103,-202.625,-153.526,-419.165,-253.278,-689.500,209.760,-1789.220
979,55723.168000,-121.881,104.221,-210.533,-139.765,-424.126,-254.500,-729.500,92.760,-1886.220
980,55723.186000,-105.239,106.245,-215.475,-123.138,-429.117,-251.835,-774.500,-173.240,-1978.220
981,55723.208000,-101.323,103.209,-219.429,-103.635,-437.042,-244.295,-799.500,-351.240,-2021.220
982,55723.233000,-116.008,105.233,-222.394,-91.874,-446.827,-240.554,-861.500,-644.240,-2098.220
983,55723.253000,-128.734,100.174,-227.336,-67.530,-456.735,-229.160,-917.500,-625.240,-2133.220
984,55723.276000,-123.839,100.174,-234.255,-59.641,-457.771,-232.251,-977.500,-284.240,-2133.220
985,55723.293000,-98.386,109.281,-235.243,-36.192,-457.986,-230.697,-1009.500,114.760,-2134.220
986,55723.316000,-75.870,110.292,-233.266,-21.402,-459.081,-236.864,-996.500,279.760,-2134.220
987,55723.338000,-62.164,108.269,-230.301,1.172,-455.410,-243.175,-979.500,334.760,-2095.220
988,55723.353000,-45.522,114.340,-240.185,24.776,-453.681,-251.470,-946.500,385.760,-2038.220
989,55723.368000,-33.774,108.269,-245.127,31.667,-448.902,-256.520,-876.500,389.760,-1955.220
990,55723.395000,-30.837,108.269,-251.058,54.292,-443.292,-266.771,-839.500,419.760,-1909.220
991,55723.415000,-23.006,101.186,-251.058,57.252,-434.606,-272.740,-740.500,605.760,-1770.220
992,55723.435000,-2.447,96.126,-253.035,74.117,-424.098,-291.756,-637.500,953.760,-1588.220
993,55723.472000,30.837,84.996,-262.919,85.008,-415.477,-303.772,-533.500,1139.760,-1411.220
994,55723.475000,51.396,77.913,-266.873,97.880,-402.034,-319.767,-410.500,946.760,-1271.220
995,55723.501000,58.249,63.747,-272.803,97.003,-392.340,-330.591,-316.500,645.760,-1133.220
996,55723.530000,51.396,68.806,-278.734,110.718,-388.592,-333.792,-253.500,552.760,-976.220
997,55723.543000,57.270,61.723,-271.815,118.648,-378.978,-344.772,-181.500,680.760,-791.220
998,55723.567000,80.765,49.581,-272.803,125.530,-373.231,-349.823,-157.500,741.760,-707.220
999,55723.586000,107.197,40.474,-272.803,127.580,-364.533,-359.714,-125.500,701.760,-542.220
1000,55723.601000,115.029,35.415,-277.745,130.506,-359.721,-361.740,-86.500,469.760,-354.220
