Shimmer,Shimmer,Shimmer,Shimmer,Shimmer,Shimmer,Shimmer,Shimmer,Shimmer,Shimmer,Shimmer,Shimmer,Shimmer,Shimmer,Shimmer,Shimmer,Shimmer,Shimmer,Shimmer,Shimmer,
Timestamp,Timestamp,Wide Range Accelerometer X,Wide Range Accelerometer X,Wide Range Accelerometer Y,Wide Range Accelerometer Y,Wide Range Accelerometer Z,Wide Range Accelerometer Z,Gyroscope X,Gyroscope X,Gyroscope Y,Gyroscope Y,Gyroscope Z,Gyroscope Z,Magnetometer X,Magnetometer X,Magnetometer Y,Magnetometer Y,Magnetometer Z,Magnetometer Z,
RAW,CAL,RAW,CAL,RAW,CAL,RAW,CAL,RAW,CAL,RAW,CAL,RAW,CAL,RAW,CAL,RAW,CAL,RAW,CAL,
no units,mSecs,no units,m/(sec^2),no units,m/(sec^2),no units,m/(sec^2),no units,deg/sec,no units,deg/sec,no units,deg/sec,no units,local,no units,local,no units,local,
1113398,0,5440,-3.33537706928265,-14496,-8.88779889638259,-7392,4.53218884120172,223,34.3292682926829,-563,-13.5975609756098,-255,15.5487804878049,-50,0.217391304347826,34,0.147826086956522,134,-0.653658536585366,
1114038,19.53125,5408,-3.31575720416922,-14352,-8.79950950337216,-7360,4.51256897608829,261,35,-574,-15.9146341463415,-286,17.4390243902439,-50,0.217391304347826,34,0.147826086956522,136,-0.663414634146342,
1114678,39.0625,5296,-3.24708767627223,-14272,-8.7504598405886,-7296,4.47332924586143,262,36.280487804878,-595,-15.9756097560976,-322,19.6341463414634,-52,0.226086956521739,34,0.147826086956522,135,-0.658536585365854,
1115318,58.59375,5072,-3.10974862047823,-14096,-8.64255058246474,-7232,4.43408951563458,216,37.3780487804878,-613,-13.1707317073171,-366,22.3170731707317,-54,0.234782608695652,36,0.156521739130435,136,-0.663414634146342,
1115958,78.125,4960,-3.04107909258124,-13936,-8.54445125689761,-7072,4.33599019006744,135,37.9878048780488,-623,-8.23170731707317,-405,24.6951219512195,-51,0.221739130434783,28,0.121739130434783,136,-0.663414634146342,
1116598,97.65625,5008,-3.07050889025138,-13632,-8.35806253832005,-6912,4.23789086450031,71,38.109756097561,-625,-4.32926829268293,-445,27.1341463414634,-51,0.221739130434783,29,0.126086956521739,138,-0.673170731707317,
1117238,117.1875,5024,-3.08031882280809,-13648,-8.36787247087676,-6592,4.04169221336603,35,36.7682926829268,-603,-2.13414634146341,-471,28.719512195122,-54,0.234782608695652,33,0.143478260869565,138,-0.673170731707317,
1117878,136.71875,4928,-3.02145922746781,-13424,-8.23053341508277,-6432,3.9435928877989,39,35.3048780487805,-579,-2.37804878048781,-480,29.2682926829268,-54,0.234782608695652,31,0.134782608695652,141,-0.68780487804878,
1118518,156.25,4896,-3.00183936235438,-13232,-8.11281422440221,-6400,3.92397302268547,37,33.3536585365854,-547,-2.25609756097561,-490,29.8780487804878,-54,0.234782608695652,28,0.121739130434783,142,-0.692682926829268,
1119158,175.78125,4912,-3.0116492949111,-12960,-7.94604537093807,-6400,3.92397302268547,45,31.0365853658537,-509,-2.74390243902439,-487,29.6951219512195,-55,0.239130434782609,26,0.11304347826087,142,-0.692682926829268,
1119798,195.3125,4976,-3.05088902513795,-12944,-7.93623543838136,-6448,3.95340282035561,54,28.4756097560976,-467,-3.29268292682927,-484,29.5121951219512,-54,0.234782608695652,30,0.130434782608696,140,-0.682926829268293,
1120438,214.84375,5008,-3.07050889025138,-12944,-7.93623543838136,-6592,4.04169221336603,79,26.1585365853659,-429,-4.81707317073171,-489,29.8170731707317,-55,0.239130434782609,29,0.126086956521739,142,-0.692682926829268,
1121078,234.375,5200,-3.18822808093194,-13040,-7.99509503372164,-6768,4.14960147148988,83,23.9024390243902,-392,-5.0609756097561,-515,31.4024390243902,-59,0.256521739130435,29,0.126086956521739,143,-0.697560975609756,
1121718,253.90625,5248,-3.21765787860208,-13152,-8.06376456161864,-6912,4.23789086450031,81,22.8048780487805,-374,-4.9390243902439,-543,33.109756097561,-60,0.260869565217391,28,0.121739130434783,141,-0.68780487804878,
1122358,273.4375,5776,-3.54138565297364,-13184,-8.08338442673207,-7184,4.40465971796444,49,22.1951219512195,-364,-2.98780487804878,-580,35.3658536585366,-56,0.243478260869565,28,0.121739130434783,143,-0.697560975609756,
1122998,292.96875,6992,-4.28694052728387,-13824,-8.47578172900061,-7584,4.64990803188228,78,22.2560975609756,-365,-4.75609756097561,-634,38.6585365853659,-59,0.256521739130435,25,0.108695652173913,143,-0.697560975609756,
1123638,312.5,7936,-4.86572654812998,-14208,-8.71122011036174,-7856,4.81667688534641,227,25.2439024390244,-414,-13.8414634146341,-751,45.7926829268293,-60,0.260869565217391,29,0.126086956521739,144,-0.702439024390244,
1124278,332.03125,8928,-5.47394236664623,-14624,-8.9662783568363,-8384,5.14040465971796,429,29.9390243902439,-491,-26.1585365853659,-911,55.5487804878049,-59,0.256521739130435,25,0.108695652173913,145,-0.707317073170732,
1124918,351.5625,9712,-5.9546290619252,-15248,-9.34886572654813,-9104,5.58185162477008,496,35.0609756097561,-575,-30.2439024390244,-1147,69.9390243902439,-59,0.256521739130435,25,0.108695652173913,145,-0.707317073170732,
1125558,371.09375,10048,-6.16063764561619,-15776,-9.67259350091968,-9648,5.91538933169834,347,41.3414634146341,-678,-21.1585365853659,-1463,89.2073170731707,-61,0.265217391304348,29,0.126086956521739,147,-0.717073170731707,
1126198,390.625,10768,-6.6020846106683,-15872,-9.73145309625996,-10256,6.28816676885346,46,48.0487804878049,-788,-2.80487804878049,-1825,111.280487804878,-64,0.278260869565217,28,0.121739130434783,147,-0.717073170731707,
1126838,410.15625,11296,-6.92581238503985,-15600,-9.56468424279583,-11008,6.74923359901901,-190,53.7804878048781,-882,11.5853658536585,-2142,130.609756097561,-66,0.28695652173913,26,0.11304347826087,147,-0.717073170731707,
1127478,429.6875,11904,-7.29858982219497,-14912,-9.14285714285714,-11552,7.08277130594727,-570,57.8658536585366,-949,34.7560975609756,-2505,152.743902439024,-71,0.308695652173913,29,0.126086956521739,149,-0.726829268292683,
1128118,449.21875,13856,-8.49540159411404,-14160,-8.6817903126916,-11904,7.29858982219497,-1034,58.2926829268293,-956,63.0487804878049,-2860,174.390243902439,-76,0.330434782608696,27,0.117391304347826,150,-0.731707317073171,
1128758,468.75,14896,-9.13304721030043,-13312,-8.16186388718578,-11856,7.26916002452483,-1335,56.4024390243902,-925,81.4024390243902,-3194,194.756097560976,-83,0.360869565217391,24,0.104347826086957,153,-0.746341463414634,
1129398,488.28125,15152,-9.29000613120785,-11472,-7.0337216431637,-11344,6.95524218270999,-1460,57.2560975609756,-939,89.0243902439024,-3451,210.426829268293,-89,0.38695652173913,22,0.0956521739130435,155,-0.75609756097561,
1130038,507.8125,15632,-9.58430410790926,-9632,-5.90557939914163,-10656,6.53341508277131,-1516,52.0731707317073,-854,92.4390243902439,-3673,223.963414634146,-98,0.426086956521739,21,0.091304347826087,157,-0.765853658536585,
1130678,527.34375,16336,-10.0159411404047,-8000,-4.90496627835684,-10176,6.2391171060699,-1490,44.7560975609756,-734,90.8536585365854,-3833,233.719512195122,-100,0.434782608695652,17,0.0739130434782609,156,-0.760975609756098,
1131318,546.875,16032,-9.8295524218271,-6992,-4.28694052728387,-9760,5.98405885959534,-1500,34.2682926829268,-562,91.4634146341463,-3998,243.780487804878,-108,0.469565217391304,11,0.0478260869565217,158,-0.770731707317073,
1131958,566.40625,14032,-8.60331085223789,-5440,-3.33537706928265,-9168,5.62109135499693,-1774,25.3048780487805,-415,108.170731707317,-4190,255.487804878049,-115,0.5,14,0.0608695652173913,157,-0.765853658536585,
1132598,585.9375,13056,-8.00490496627836,-2832,-1.73635806253832,-7824,4.79705702023299,-2488,13.4146341463415,-220,151.707317073171,-4401,268.353658536585,-126,0.547826086956522,10,0.0434782608695652,156,-0.760975609756098,
1133238,605.46875,15808,-9.69221336603311,-1216,-0.745554874310239,-5760,3.53157572041692,-3146,-9.02439024390244,148,191.829268292683,-4539,276.768292682927,-130,0.565217391304348,2,0.00869565217391304,155,-0.75609756097561,
1133878,625,15824,-9.70202329858982,-464,-0.284488044144696,-4912,3.0116492949111,-3260,-31.219512195122,512,198.780487804878,-4610,281.09756097561,-143,0.621739130434783,-3,-0.0130434782608696,151,-0.736585365853659,
1134518,644.53125,14608,-8.95646842427958,1712,1.04966278356836,-4288,2.62906192519926,-3083,-47.0121951219512,771,187.987804878049,-4571,278.719512195122,-147,0.639130434782609,-4,-0.0173913043478261,146,-0.712195121951219,
1135158,664.0625,14736,-9.03494788473329,2560,1.56958920907419,-3456,2.11894543225015,-2878,-69.9390243902439,1147,175.487804878049,-4414,269.146341463415,-155,0.673913043478261,-9,-0.0391304347826087,142,-0.692682926829268,
1135798,683.59375,14336,-8.78969957081545,2624,1.60882893930104,-2624,1.60882893930104,-2581,-87.9268292682927,1442,157.378048780488,-4231,257.987804878049,-159,0.691304347826087,-15,-0.0652173913043478,140,-0.682926829268293,
1136438,703.125,12896,-7.90680564071122,3504,2.14837522992029,-3072,1.88350705088903,-2247,-101.524390243902,1665,137.012195121951,-3992,243.414634146341,-168,0.730434782608696,-18,-0.0782608695652174,134,-0.653658536585366,
1137078,722.65625,11392,-6.98467198038013,4224,2.58982219497241,-3696,2.26609442060086,-1744,-112.012195121951,1837,106.341463414634,-3655,222.865853658537,-168,0.730434782608696,-20,-0.0869565217391304,132,-0.64390243902439,
1137718,742.1875,10960,-6.71980380134887,4704,2.88412017167382,-3536,2.16799509503372,-1487,-118.90243902439,1950,90.6707317073171,-3353,204.451219512195,-170,0.739130434782609,-26,-0.11304347826087,129,-0.629268292682927,
1138358,761.71875,10176,-6.2391171060699,5024,3.08031882280809,-3808,2.33476394849785,-1194,-122.439024390244,2008,72.8048780487805,-3010,183.536585365854,-173,0.752173913043478,-30,-0.130434782608696,129,-0.629268292682927,
1138998,781.25,8480,-5.19926425505825,5776,3.54138565297364,-4672,2.86450030656039,-854,-121.09756097561,1986,52.0731707317073,-2655,161.890243902439,-175,0.760869565217391,-30,-0.130434782608696,126,-0.614634146341463,
1139638,800.78125,8224,-5.04230533415083,6448,3.95340282035561,-4608,2.82526057633354,-779,-117.987804878049,1935,47.5,-2316,141.219512195122,-174,0.756521739130435,-35,-0.152173913043478,124,-0.604878048780488,
1140278,820.3125,8160,-5.00306560392397,6832,4.18884120171674,-4384,2.68792152053955,-810,-113.048780487805,1854,49.390243902439,-2020,123.170731707317,-176,0.765217391304348,-32,-0.139130434782609,121,-0.590243902439024,
1140918,839.84375,8016,-4.91477621091355,7376,4.522378908645,-4752,2.91354996934396,-814,-105.487804878049,1730,49.6341463414634,-1741,106.158536585366,-177,0.769565217391304,-35,-0.152173913043478,123,-0.6,
1141558,859.375,7520,-4.61066830165543,7568,4.64009809932557,-4944,3.03126916002452,-786,-97.7439024390244,1603,47.9268292682927,-1488,90.7317073170732,-179,0.778260869565217,-36,-0.156521739130435,121,-0.590243902439024,
1142198,878.90625,8256,-5.06192519926425,7760,4.75781729000613,-4480,2.74678111587983,-885,-88.2926829268293,1448,53.9634146341463,-1268,77.3170731707317,-178,0.773913043478261,-40,-0.173913043478261,121,-0.590243902439024,
1142838,898.4375,9120,-5.59166155732679,7920,4.85591661557327,-3984,2.4426732066217,-899,-80.5487804878049,1321,54.8170731707317,-1115,67.9878048780488,-180,0.782608695652174,-41,-0.178260869565217,119,-0.580487804878049,
1143478,917.96875,9648,-5.91538933169834,8016,4.91477621091355,-4384,2.68792152053955,-821,-72.1951219512195,1184,50.0609756097561,-991,60.4268292682927,-179,0.778260869565217,-39,-0.169565217391304,117,-0.570731707317073,
1144118,937.5,9648,-5.91538933169834,8016,4.91477621091355,-4832,2.96259963212753,-691,-62.6219512195122,1027,42.1341463414634,-884,53.9024390243902,-180,0.782608695652174,-39,-0.169565217391304,116,-0.565853658536585,
1144758,957.03125,10192,-6.24892703862661,8272,5.07173513182097,-4880,2.99202942979767,-535,-52.6219512195122,863,32.6219512195122,-794,48.4146341463415,-182,0.791304347826087,-42,-0.182608695652174,116,-0.565853658536585,
1145398,976.5625,10096,-6.19006744328633,8800,5.39546290619252,-4896,3.00183936235438,-169,-42.9878048780488,705,10.3048780487805,-691,42.1341463414634,-181,0.78695652173913,-43,-0.18695652173913,117,-0.570731707317073,
1146038,996.09375,9008,-5.5229920294298,9120,5.59166155732679,-4736,2.90374003678725,173,-33.2926829268293,546,-10.5487804878049,-589,35.9146341463415,-180,0.782608695652174,-43,-0.18695652173913,116,-0.565853658536585,
1146678,1015.625,8688,-5.32679337829552,9440,5.78786020846107,-4640,2.84488044144697,199,-25.5487804878049,419,-12.1341463414634,-510,31.0975609756098,-180,0.782608695652174,-45,-0.195652173913043,115,-0.560975609756098,
1147318,1035.15625,8896,-5.4543225015328,9680,5.93500919681177,-4496,2.75659104843654,169,-19.0853658536585,313,-10.3048780487805,-438,26.7073170731707,-179,0.778260869565217,-44,-0.191304347826087,117,-0.570731707317073,
1147958,1054.6875,8864,-5.43470263641937,9776,5.99386879215205,-4240,2.59963212752912,340,-14.3292682926829,235,-20.7317073170732,-317,19.3292682926829,-180,0.782608695652174,-42,-0.182608695652174,118,-0.575609756097561,
1148598,1074.21875,8736,-5.35622317596567,10032,6.15082771305947,-4320,2.64868179031269,489,-10.4878048780488,172,-29.8170731707317,-190,11.5853658536585,-178,0.773913043478261,-46,-0.2,118,-0.575609756097561,
1149238,1093.75,8848,-5.42489270386266,10240,6.27835683629675,-5264,3.2274678111588,679,-7.98780487804878,131,-41.4024390243902,-72,4.39024390243902,-179,0.778260869565217,-43,-0.18695652173913,119,-0.580487804878049,
1149878,1113.28125,8656,-5.3071735131821,10464,6.41569589209074,-6720,4.12017167381974,769,-3.10975609756098,51,-46.890243902439,-5,0.304878048780488,-178,0.773913043478261,-43,-0.18695652173913,122,-0.595121951219512,
1150518,1132.8125,8848,-5.42489270386266,10832,6.64132434089516,-7296,4.47332924586143,776,3.96341463414634,-65,-47.3170731707317,86,-5.24390243902439,-176,0.765217391304348,-45,-0.195652173913043,123,-0.6,
1151158,1152.34375,9264,-5.67995095033722,11776,7.22011036174126,-6144,3.76701410177805,843,11.3414634146341,-186,-51.4024390243902,159,-9.69512195121951,-176,0.765217391304348,-45,-0.195652173913043,127,-0.619512195121951,
1151798,1171.875,10144,-6.21949724095647,12672,7.76946658491723,-4976,3.05088902513795,924,12.8048780487805,-210,-56.3414634146341,191,-11.6463414634146,-175,0.760869565217391,-44,-0.191304347826087,126,-0.614634146341463,
1152438,1191.40625,9296,-5.69957081545064,12656,7.75965665236051,-5600,3.43347639484979,1100,10.3048780487805,-169,-67.0731707317073,195,-11.890243902439,-176,0.765217391304348,-43,-0.18695652173913,128,-0.624390243902439,
1153078,1210.9375,8848,-5.42489270386266,12528,7.68117719190681,-6656,4.08093194359289,793,10.3658536585366,-170,-48.3536585365854,62,-3.78048780487805,-172,0.747826086956522,-42,-0.182608695652174,130,-0.634146341463415,
1153718,1230.46875,9216,-5.65052115266707,12640,7.7498467198038,-6736,4.12998160637646,293,11.5853658536585,-190,-17.8658536585366,-2,0.121951219512195,-173,0.752173913043478,-42,-0.182608695652174,129,-0.629268292682927,
1154358,1250,9424,-5.77805027590435,12496,7.66155732679338,-6704,4.11036174126303,182,12.3780487804878,-203,-11.0975609756098,-28,1.70731707317073,-175,0.760869565217391,-40,-0.173913043478261,130,-0.634146341463415,
1154998,1269.53125,8352,-5.12078479460454,12048,7.3868792152054,-7168,4.39484978540773,259,12.4390243902439,-204,-15.7926829268293,-35,2.13414634146341,-172,0.747826086956522,-46,-0.2,130,-0.634146341463415,
1155638,1289.0625,7632,-4.67933782955242,11568,7.09258123850398,-7888,4.83629675045984,228,14.4512195121951,-237,-13.9024390243902,-38,2.31707317073171,-171,0.743478260869565,-46,-0.2,131,-0.639024390243902,
1156278,1308.59375,8096,-4.96382587369712,10800,6.62170447578173,-8064,4.94420600858369,17,17.5609756097561,-288,-1.03658536585366,-39,2.37804878048781,-173,0.752173913043478,-42,-0.182608695652174,133,-0.648780487804878,
1156918,1328.125,8832,-5.41508277130595,11424,7.00429184549356,-7040,4.31637032495402,28,21.7682926829268,-357,-1.70731707317073,13,-0.792682926829268,-173,0.752173913043478,-43,-0.18695652173913,132,-0.64390243902439,
1157558,1347.65625,9424,-5.77805027590435,12432,7.62231759656652,-4816,2.95278969957082,157,26.1585365853659,-429,-9.57317073170732,125,-7.6219512195122,-172,0.747826086956522,-48,-0.208695652173913,133,-0.648780487804878,
1158198,1367.1875,9360,-5.7388105456775,14304,8.77007970570202,-3680,2.25628448804414,164,24.0243902439024,-394,-10,168,-10.2439024390244,-171,0.743478260869565,-48,-0.208695652173913,132,-0.64390243902439,
1158838,1386.71875,8192,-5.0226854690374,14336,8.78969957081545,-4464,2.73697118332311,291,18.0487804878049,-296,-17.7439024390244,224,-13.6585365853659,-171,0.743478260869565,-46,-0.2,131,-0.639024390243902,
1159478,1406.25,8016,-4.91477621091355,13952,8.55426118945432,-5008,3.07050889025138,63,13.5365853658537,-222,-3.84146341463415,205,-12.5,-170,0.739130434782609,-44,-0.191304347826087,130,-0.634146341463415,
1160118,1425.78125,8624,-5.28755364806867,14240,8.73083997547517,-4608,2.82526057633354,-339,11.0365853658537,-181,20.6707317073171,117,-7.13414634146342,-171,0.743478260869565,-46,-0.2,132,-0.64390243902439,
1160758,1445.3125,9504,-5.82709993868792,14096,8.64255058246474,-4608,2.82526057633354,-489,6.46341463414634,-106,29.8170731707317,42,-2.5609756097561,-174,0.756521739130435,-45,-0.195652173913043,131,-0.639024390243902,
1161398,1464.84375,9616,-5.89576946658492,13296,8.15205395462906,-5104,3.12936848559166,-497,1.09756097560976,-18,30.3048780487805,-35,2.13414634146341,-173,0.752173913043478,-44,-0.191304347826087,128,-0.624390243902439,
1162038,1484.375,9808,-6.01348865726548,12864,7.88718577559779,-5248,3.21765787860208,-483,-2.5609756097561,42,29.4512195121951,-107,6.52439024390244,-174,0.756521739130435,-41,-0.178260869565217,126,-0.614634146341463,
1162678,1503.90625,10112,-6.19987737584304,12592,7.72041692213366,-5232,3.20784794604537,-461,-5.1219512195122,84,28.109756097561,-158,9.63414634146342,-174,0.756521739130435,-48,-0.208695652173913,128,-0.624390243902439,
1163318,1523.4375,10176,-6.2391171060699,12416,7.61250766400981,-5040,3.09012875536481,-296,-6.34146341463415,104,18.0487804878049,-187,11.4024390243902,-173,0.752173913043478,-47,-0.204347826086957,126,-0.614634146341463,
1163958,1542.96875,10048,-6.16063764561619,12272,7.52421827099939,-5248,3.21765787860208,-100,-6.58536585365854,108,6.09756097560976,-187,11.4024390243902,-173,0.752173913043478,-48,-0.208695652173913,127,-0.619512195121951,
1164598,1562.5,9856,-6.04291845493562,11856,7.26916002452483,-5488,3.36480686695279,49,-5.67073170731707,93,-2.98780487804878,-162,9.87804878048781,-175,0.760869565217391,-44,-0.191304347826087,127,-0.619512195121951,
1165238,1582.03125,9584,-5.87614960147149,11680,7.16125076640098,-5488,3.36480686695279,187,-4.02439024390244,66,-11.4024390243902,-140,8.53658536585366,-175,0.760869565217391,-44,-0.191304347826087,128,-0.624390243902439,
1165878,1601.5625,8928,-5.47394236664623,11232,6.886572654813,-5680,3.48252605763335,194,-2.31707317073171,38,-11.8292682926829,-113,6.89024390243902,-174,0.756521739130435,-48,-0.208695652173913,129,-0.629268292682927,
1166518,1621.09375,8896,-5.4543225015328,10928,6.70018393623544,-6192,3.79644389944819,138,-0.0609756097560976,1,-8.41463414634146,-87,5.30487804878049,-173,0.752173913043478,-46,-0.2,127,-0.619512195121951,
1167158,1640.625,9136,-5.60147148988351,10464,6.41569589209074,-6464,3.96321275291232,143,4.81707317073171,-79,-8.71951219512195,-42,2.5609756097561,-173,0.752173913043478,-46,-0.2,127,-0.619512195121951,
1167798,1660.15625,8336,-5.11097486204782,10800,6.62170447578173,-6592,4.04169221336603,147,10.3048780487805,-169,-8.96341463414634,27,-1.64634146341463,-174,0.756521739130435,-45,-0.195652173913043,126,-0.614634146341463,
1168438,1679.6875,7472,-4.58123850398528,11168,6.84733292458614,-6688,4.10055180870631,2,15.1219512195122,-248,-0.121951219512195,130,-7.92682926829268,-174,0.756521739130435,-49,-0.21304347826087,128,-0.624390243902439,
1169078,1699.21875,7952,-4.8755364806867,11328,6.94543225015328,-6688,4.10055180870631,-90,17.8048780487805,-292,5.48780487804878,223,-13.5975609756098,-176,0.765217391304348,-45,-0.195652173913043,129,-0.629268292682927,
1169718,1718.75,8256,-5.06192519926425,11056,6.77866339668915,-6880,4.21827099938688,-43,19.8780487804878,-326,2.6219512195122,334,-20.3658536585366,-172,0.747826086956522,-45,-0.195652173913043,128,-0.624390243902439,
1170358,1738.28125,8192,-5.0226854690374,10144,6.21949724095647,-7936,4.86572654812998,11,21.5243902439024,-353,-0.670731707317073,477,-29.0853658536585,-172,0.747826086956522,-46,-0.2,128,-0.624390243902439,
1170998,1757.8125,8752,-5.36603310852238,9504,5.82709993868792,-10320,6.32740649908032,313,26.0975609756098,-428,-19.0853658536585,750,-45.7317073170732,-175,0.760869565217391,-47,-0.204347826086957,129,-0.629268292682927,
1171638,1777.34375,9504,-5.82709993868792,9568,5.86633966891478,-12208,7.48497854077253,979,36.890243902439,-605,-59.6951219512195,1153,-70.3048780487805,-173,0.752173913043478,-39,-0.169565217391304,132,-0.64390243902439,
1172278,1796.875,8992,-5.51318209687308,10464,6.41569589209074,-12544,7.69098712446352,2489,59.0853658536585,-969,-151.768292682927,1930,-117.682926829268,-170,0.739130434782609,-43,-0.18695652173913,133,-0.648780487804878,
1172918,1816.40625,8096,-4.96382587369712,11488,7.04353157572042,-11920,7.30839975475169,3268,60.1219512195122,-986,-199.268292682927,2421,-147.621951219512,-166,0.721739130434783,-40,-0.173913043478261,140,-0.682926829268293,
1173558,1835.9375,7808,-4.78724708767627,12176,7.4653586756591,-11632,7.13182096873084,4089,57.5,-943,-249.329268292683,2820,-171.951219512195,-165,0.717391304347826,-36,-0.156521739130435,143,-0.697560975609756,
1174198,1855.46875,7440,-4.56161863887186,12304,7.54383813611281,-11600,7.11220110361741,4946,49.0853658536585,-805,-301.585365853659,3283,-200.182926829268,-156,0.678260869565217,-33,-0.143478260869565,150,-0.731707317073171,
1174838,1875,8880,-5.44451256897609,11744,7.20049049662784,-10960,6.71980380134887,5945,38.4756097560976,-631,-362.5,3633,-221.524390243902,-148,0.643478260869565,-32,-0.139130434782609,156,-0.760975609756098,
1175478,1894.53125,9888,-6.06253832004905,11408,6.99448191293685,-10464,6.41569589209074,6906,19.0853658536585,-313,-421.09756097561,3910,-238.414634146341,-133,0.578260869565217,-27,-0.117391304347826,167,-0.814634146341463,
1176118,1914.0625,7808,-4.78724708767627,11360,6.96505211526671,-10048,6.16063764561619,6810,-6.64634146341464,109,-415.243902439024,3901,-237.865853658537,-123,0.534782608695652,-22,-0.0956521739130435,169,-0.824390243902439,
1176758,1933.59375,2928,-1.7952176578786,11264,6.90619251992643,-9552,5.85652973635806,5643,-31.4634146341463,516,-344.085365853659,3848,-234.634146341463,-104,0.452173913043478,-19,-0.0826086956521739,175,-0.853658536585366,
1177398,1953.125,2016,-1.23605150214592,10336,6.33721643163703,-10256,6.28816676885346,4475,-47.9878048780488,787,-272.865853658537,3724,-227.073170731707,-97,0.421739130434783,-20,-0.0869565217391304,176,-0.858536585365854,
1178038,1972.65625,1536,-0.941753525444513,8400,5.15021459227468,-12272,7.52421827099939,3340,-58.7804878048781,964,-203.658536585366,3539,-215.792682926829,-82,0.356521739130435,-17,-0.0739130434782609,177,-0.863414634146341,
1178678,1992.1875,688,-0.421827099938688,6256,3.83568362967505,-15184,9.30962599632127,2118,-64.4512195121951,1057,-129.146341463415,3394,-206.951219512195,-76,0.330434782608696,-16,-0.0695652173913043,174,-0.848780487804878,
1179318,2011.71875,1456,-0.892703862660944,4720,2.89393010423053,-17200,10.5456774984672,268,-62.1341463414634,1019,-16.3414634146341,3058,-186.463414634146,-70,0.304347826086957,-12,-0.0521739130434783,173,-0.84390243902439,
1179958,2031.25,2944,-1.80502759043532,2960,1.81483752299203,-17024,10.4377682403433,-1691,-50.1219512195122,822,103.109756097561,2724,-166.09756097561,-68,0.295652173913043,-8,-0.0347826086956522,174,-0.848780487804878,
1180598,2050.78125,7200,-4.41446965052115,960,0.58859595340282,-15632,9.58430410790926,-2719,-34.8170731707317,571,165.792682926829,2452,-149.512195121951,-73,0.317391304347826,-8,-0.0347826086956522,175,-0.853658536585366,
1181238,2070.3125,13280,-8.14224402207235,-432,-0.264868179031269,-14400,8.8289393010423,-1778,-16.8292682926829,276,108.414634146341,2519,-153.59756097561,-77,0.334782608695652,-6,-0.0260869565217391,174,-0.848780487804878,
1181878,2089.84375,18928,-11.6051502145923,-848,-0.519926425505825,-15056,9.23114653586757,582,0.182926829268293,-3,-35.4878048780488,2668,-162.682926829268,-77,0.334782608695652,-11,-0.0478260869565217,176,-0.858536585365854,
1182518,2109.375,19728,-12.095646842428,-1376,-0.843654199877376,-15936,9.77069282648682,2052,10.4878048780488,-172,-125.121951219512,2559,-156.036585365854,-77,0.334782608695652,-8,-0.0347826086956522,174,-0.848780487804878,
1183158,2128.90625,15728,-9.64316370324954,-1376,-0.843654199877376,-16128,9.88841201716738,2105,10.4878048780488,-172,-128.353658536585,2377,-144.939024390244,-69,0.3,-10,-0.0434782608695652,172,-0.839024390243902,
1183798,2148.4375,10688,-6.55303494788473,-960,-0.58859595340282,-15456,9.47639484978541,1230,5.73170731707317,-94,-75,2101,-128.109756097561,-65,0.282608695652174,-8,-0.0347826086956522,174,-0.848780487804878,
1184438,2167.96875,9536,-5.84671980380135,-832,-0.510116492949111,-15120,9.27038626609442,627,4.81707317073171,-79,-38.2317073170732,1935,-117.987804878049,-61,0.265217391304348,-7,-0.0304347826086957,172,-0.839024390243902,
1185078,2187.5,11056,-6.77866339668915,-1824,-1.11833231146536,-15040,9.22133660331085,999,6.95121951219512,-114,-60.9146341463415,1872,-114.146341463415,-59,0.256521739130435,-10,-0.0434782608695652,171,-0.834146341463415,
1185718,2207.03125,11136,-6.82771305947272,-2304,-1.41263028816677,-15264,9.35867565910484,1665,10.7317073170732,-176,-101.524390243902,1879,-114.573170731707,-52,0.226086956521739,-14,-0.0608695652173913,171,-0.834146341463415,
1186358,2226.5625,9872,-6.05272838749234,-2032,-1.24586143470264,-15280,9.36848559166156,2217,11.890243902439,-195,-135.182926829268,1945,-118.59756097561,-50,0.217391304347826,-18,-0.0782608695652174,171,-0.834146341463415,
1186998,2246.09375,8064,-4.94420600858369,-1904,-1.16738197424893,-14720,9.02513795217658,2606,8.04878048780488,-132,-158.90243902439,1993,-121.524390243902,-41,0.178260869565217,-18,-0.0782608695652174,170,-0.829268292682927,
1187638,2265.625,5776,-3.54138565297364,-1872,-1.1477621091355,-14256,8.74064990803188,2738,2.01219512195122,-33,-166.951219512195,2001,-122.012195121951,-36,0.156521739130435,-21,-0.091304347826087,166,-0.809756097560976,
1188278,2285.15625,3344,-2.05027590435316,-2240,-1.37339055793991,-13632,8.35806253832005,2510,-7.68292682926829,126,-153.048780487805,1959,-119.451219512195,-27,0.117391304347826,-18,-0.0782608695652174,162,-0.790243902439024,
1188918,2304.6875,2352,-1.44206008583691,-3088,-1.89331698344574,-13504,8.27958307786634,2185,-15.0609756097561,247,-133.231707317073,1875,-114.329268292683,-27,0.117391304347826,-19,-0.0826086956521739,161,-0.785365853658537,
1189558,2324.21875,1408,-0.863274064990803,-3424,-2.09932556713673,-13536,8.29920294297977,1924,-21.0975609756098,346,-117.317073170732,1769,-107.865853658537,-19,0.0826086956521739,-23,-0.1,159,-0.775609756097561,
1190198,2343.75,592,-0.362967504598406,-4112,-2.52115266707541,-14112,8.65236051502146,1683,-22.4390243902439,368,-102.621951219512,1616,-98.5365853658537,-16,0.0695652173913043,-27,-0.117391304347826,157,-0.765853658536585,
1190838,2363.28125,128,-0.0784794604537094,-4880,-2.99202942979767,-14736,9.03494788473329,1398,-17.5609756097561,288,-85.2439024390244,1407,-85.7926829268293,-11,0.0478260869565217,-25,-0.108695652173913,154,-0.751219512195122,
1191478,2382.8125,-624,0.382587369711833,-4544,-2.78602084610668,-14608,8.95646842427958,1001,-12.5609756097561,206,-61.0365853658537,1177,-71.7682926829268,-12,0.0521739130434783,-25,-0.108695652173913,150,-0.731707317073171,
1192118,2402.34375,-1376,0.843654199877376,-3872,-2.37400367872471,-14240,8.73083997547517,483,-9.75609756097561,160,-29.4512195121951,914,-55.7317073170732,-8,0.0347826086956522,-27,-0.117391304347826,149,-0.726829268292683,
1192758,2421.875,-912,0.559166155732679,-3920,-2.40343347639485,-14160,8.6817903126916,22,-4.75609756097561,78,-1.34146341463415,654,-39.8780487804878,-8,0.0347826086956522,-27,-0.117391304347826,148,-0.721951219512195,
1193398,2441.40625,-544,0.333537706928265,-3664,-2.24647455548743,-14288,8.76026977314531,-177,-0.182926829268293,3,10.7926829268293,407,-24.8170731707317,-9,0.0391304347826087,-30,-0.130434782608696,150,-0.731707317073171,
1194038,2460.9375,-304,0.18638871857756,-3056,-1.87369711833231,-14272,8.7504598405886,-230,1.89024390243902,-31,14.0243902439024,208,-12.6829268292683,-8,0.0347826086956522,-30,-0.130434782608696,150,-0.731707317073171,
1194678,2480.46875,288,-0.176578786020846,-2864,-1.75597792765175,-14480,8.87798896382587,-27,3.10975609756098,-51,1.64634146341463,76,-4.63414634146342,-10,0.0434782608695652,-28,-0.121739130434783,148,-0.721951219512195,
1195318,2500,-64,0.0392397302268547,-2512,-1.54015941140405,-14576,8.93684855916615,132,2.74390243902439,-45,-8.04878048780488,-12,0.731707317073171,-9,0.0391304347826087,-32,-0.139130434782609,149,-0.726829268292683,
1195958,2519.53125,-800,0.490496627835684,-2160,-1.32434089515635,-14544,8.91722869405273,186,1.58536585365854,-26,-11.3414634146341,-30,1.82926829268293,-7,0.0304347826086957,-28,-0.121739130434783,151,-0.736585365853659,
1196598,2539.0625,-1248,0.765174739423666,-2112,-1.2949110974862,-14864,9.113427345187,232,0.914634146341463,-15,-14.1463414634146,-9,0.548780487804878,-8,0.0347826086956522,-31,-0.134782608695652,150,-0.731707317073171,
1197238,2558.59375,-1728,1.05947271612508,-2192,-1.34396076026977,-15584,9.55487431023912,130,0.731707317073171,-12,-7.92682926829268,-6,0.365853658536585,-9,0.0391304347826087,-25,-0.108695652173913,148,-0.721951219512195,
1197878,2578.125,-2032,1.24586143470264,-2064,-1.26548129981606,-15920,9.7608828939301,-121,0.731707317073171,-12,7.37804878048781,-23,1.40243902439024,-8,0.0347826086956522,-30,-0.130434782608696,151,-0.736585365853659,
1198518,2597.65625,-1520,0.931943592887799,-2048,-1.25567136725935,-16000,9.80993255671367,-291,0.365853658536585,-6,17.7439024390244,-45,2.74390243902439,-10,0.0434782608695652,-32,-0.139130434782609,149,-0.726829268292683,
1199158,2617.1875,-688,0.421827099938688,-2032,-1.24586143470264,-16016,9.81974248927039,-258,1.28048780487805,-21,15.7317073170732,-35,2.13414634146341,-9,0.0391304347826087,-28,-0.121739130434783,149,-0.726829268292683,
1199798,2636.71875,-544,0.333537706928265,-2048,-1.25567136725935,-15952,9.78050275904353,-89,1.52439024390244,-25,5.42682926829268,-9,0.548780487804878,-8,0.0347826086956522,-32,-0.139130434782609,151,-0.736585365853659,
1200438,2656.25,-832,0.510116492949111,-1936,-1.18700183936235,-15760,9.66278356836297,-7,1.15853658536585,-19,0.426829268292683,10,-0.609756097560976,-9,0.0391304347826087,-28,-0.121739130434783,150,-0.731707317073171,
1201078,2675.78125,-880,0.539546290619252,-1968,-1.20662170447578,-15920,9.7608828939301,73,0.24390243902439,-4,-4.45121951219512,33,-2.01219512195122,-6,0.0260869565217391,-30,-0.130434782608696,150,-0.731707317073171,
1201718,2695.3125,-1200,0.735744941753525,-2000,-1.22624156958921,-16000,9.80993255671367,73,-0.853658536585366,14,-4.45121951219512,43,-2.6219512195122,-9,0.0391304347826087,-34,-0.147826086956522,151,-0.736585365853659,
1202358,2714.84375,-1168,0.716125076640098,-2016,-1.23605150214592,-16048,9.83936235438381,95,-0.975609756097561,16,-5.79268292682927,64,-3.90243902439024,-9,0.0391304347826087,-32,-0.139130434782609,149,-0.726829268292683,
1202998,2734.375,-1360,0.833844267320662,-2096,-1.28510116492949,-16080,9.85898221949724,133,-1.03658536585366,17,-8.10975609756098,89,-5.42682926829268,-8,0.0347826086956522,-30,-0.130434782608696,149,-0.726829268292683,
1203638,2753.90625,-1584,0.971183323114654,-2080,-1.27529123237278,-15872,9.73145309625996,114,-0.853658536585366,14,-6.95121951219512,97,-5.91463414634146,-7,0.0304347826086957,-32,-0.139130434782609,149,-0.726829268292683,
1204278,2773.4375,-1248,0.765174739423666,-2080,-1.27529123237278,-15904,9.75107296137339,101,-0.365853658536585,6,-6.15853658536585,87,-5.30487804878049,-9,0.0391304347826087,-29,-0.126086956521739,150,-0.731707317073171,
1204918,2792.96875,-1296,0.794604537093807,-2240,-1.37339055793991,-15936,9.77069282648682,47,0.121951219512195,-2,-2.86585365853659,64,-3.90243902439024,-6,0.0260869565217391,-33,-0.143478260869565,150,-0.731707317073171,
1205558,2812.5,-1232,0.755364806866953,-2192,-1.34396076026977,-16032,9.8295524218271,14,0.731707317073171,-12,-0.853658536585366,45,-2.74390243902439,-8,0.0347826086956522,-29,-0.126086956521739,151,-0.736585365853659,
1206198,2832.03125,-1072,0.657265481299816,-2144,-1.31453096259963,-15968,9.79031269160024,2,0.0609756097560976,-1,-0.121951219512195,35,-2.13414634146341,-7,0.0304347826086957,-29,-0.126086956521739,150,-0.731707317073171,
1206838,2851.5625,-672,0.412017167381974,-2176,-1.33415082771306,-15920,9.7608828939301,60,-1.40243902439024,23,-3.65853658536585,48,-2.92682926829268,-7,0.0304347826086957,-31,-0.134782608695652,150,-0.731707317073171,
1207478,2871.09375,-640,0.392397302268547,-2256,-1.38320049049663,-15968,9.79031269160024,184,-1.52439024390244,25,-11.219512195122,83,-5.0609756097561,-8,0.0347826086956522,-28,-0.121739130434783,148,-0.721951219512195,
1208118,2890.625,-912,0.559166155732679,-2160,-1.32434089515635,-15968,9.79031269160024,293,-1.95121951219512,32,-17.8658536585366,113,-6.89024390243902,-6,0.0260869565217391,-29,-0.126086956521739,148,-0.721951219512195,
1208758,2910.15625,-1088,0.66707541385653,-2128,-1.30472103004292,-16304,9.99632127529123,356,-2.25609756097561,37,-21.7073170731707,138,-8.41463414634146,-5,0.0217391304347826,-30,-0.130434782608696,148,-0.721951219512195,
1209398,2929.6875,-1136,0.696505211526671,-2192,-1.34396076026977,-16560,10.1532801961987,384,-1.82926829268293,30,-23.4146341463415,146,-8.90243902439025,-4,0.0173913043478261,-31,-0.134782608695652,148,-0.721951219512195,
1210038,2949.21875,-1632,1.00061312078479,-2224,-1.3635806253832,-16544,10.1434702636419,265,-1.15853658536585,19,-16.1585365853659,121,-7.37804878048781,-8,0.0347826086956522,-27,-0.117391304347826,147,-0.717073170731707,
1210678,2968.75,-1632,1.00061312078479,-2256,-1.38320049049663,-16480,10.1042305334151,105,-0.426829268292683,7,-6.40243902439024,87,-5.30487804878049,-4,0.0173913043478261,-29,-0.126086956521739,146,-0.712195121951219,
1211318,2988.28125,-1520,0.931943592887799,-2192,-1.34396076026977,-16528,10.1336603310852,19,0.792682926829268,-13,-1.15853658536585,61,-3.71951219512195,-5,0.0217391304347826,-29,-0.126086956521739,146,-0.712195121951219,
1211958,3007.8125,-1408,0.863274064990803,-2224,-1.3635806253832,-16384,10.0453709380748,-22,1.76829268292683,-29,1.34146341463415,37,-2.25609756097561,-3,0.0130434782608696,-34,-0.147826086956522,148,-0.721951219512195,
1212598,3027.34375,-1184,0.725935009196812,-2320,-1.42244022072348,-16320,10.0061312078479,-4,2.5,-41,0.24390243902439,21,-1.28048780487805,-4,0.0173913043478261,-31,-0.134782608695652,147,-0.717073170731707,
1213238,3046.875,-1136,0.696505211526671,-2224,-1.3635806253832,-16400,10.0551808706315,33,2.92682926829268,-48,-2.01219512195122,7,-0.426829268292683,-4,0.0173913043478261,-30,-0.130434782608696,146,-0.712195121951219,
1213878,3066.40625,-1344,0.824034334763949,-2272,-1.39301042305334,-16288,9.98651134273452,31,2.98780487804878,-49,-1.89024390243902,-2,0.121951219512195,-6,0.0260869565217391,-34,-0.147826086956522,147,-0.717073170731707,
1214518,3085.9375,-1616,0.990803188228081,-2144,-1.31453096259963,-16224,9.94727161250766,-4,3.35365853658537,-55,0.24390243902439,-4,0.24390243902439,-4,0.0173913043478261,-34,-0.147826086956522,147,-0.717073170731707,
1215158,3105.46875,-1776,1.08890251379522,-2032,-1.24586143470264,-16144,9.89822194972409,-61,3.71951219512195,-61,3.71951219512195,-12,0.731707317073171,-3,0.0130434782608696,-30,-0.130434782608696,145,-0.707317073170732,
1215798,3125,-1536,0.941753525444513,-2048,-1.25567136725935,-16160,9.90803188228081,-66,3.53658536585366,-58,4.02439024390244,-7,0.426829268292683,-3,0.0130434782608696,-31,-0.134782608695652,147,-0.717073170731707,
1216438,3144.53125,-1312,0.804414469650521,-2160,-1.32434089515635,-16128,9.88841201716738,-14,3.53658536585366,-58,0.853658536585366,5,-0.304878048780488,-6,0.0260869565217391,-34,-0.147826086956522,148,-0.721951219512195,
1217078,3164.0625,-1168,0.716125076640098,-2096,-1.28510116492949,-15984,9.80012262415696,31,3.29268292682927,-54,-1.89024390243902,1,-0.0609756097560976,-6,0.0260869565217391,-32,-0.139130434782609,145,-0.707317073170732,
1217718,3183.59375,-1312,0.804414469650521,-2080,-1.27529123237278,-15872,9.73145309625996,20,3.47560975609756,-57,-1.21951219512195,-17,1.03658536585366,-4,0.0173913043478261,-29,-0.126086956521739,145,-0.707317073170732,
1218358,3203.125,-1600,0.980993255671367,-1968,-1.20662170447578,-15856,9.72164316370325,-25,2.86585365853659,-47,1.52439024390244,-30,1.82926829268293,-4,0.0173913043478261,-30,-0.130434782608696,146,-0.712195121951219,
1218998,3222.65625,-1392,0.853464132434089,-2000,-1.22624156958921,-15952,9.78050275904353,-33,2.4390243902439,-40,2.01219512195122,-24,1.46341463414634,-4,0.0173913043478261,-29,-0.126086956521739,147,-0.717073170731707,
1219638,3242.1875,-1440,0.88289393010423,-2160,-1.32434089515635,-16048,9.83936235438381,35,2.07317073170732,-34,-2.13414634146341,-4,0.24390243902439,-5,0.0217391304347826,-30,-0.130434782608696,146,-0.712195121951219,
1220278,3261.71875,-1664,1.02023298589822,-2080,-1.27529123237278,-16128,9.88841201716738,32,2.01219512195122,-33,-1.95121951219512,3,-0.182926829268293,-3,0.0130434782608696,-34,-0.147826086956522,147,-0.717073170731707,
1220918,3281.25,-1536,0.941753525444513,-2128,-1.30472103004292,-16224,9.94727161250766,21,2.07317073170732,-34,-1.28048780487805,3,-0.182926829268293,-6,0.0260869565217391,-27,-0.117391304347826,145,-0.707317073170732,
1221558,3300.78125,-1568,0.96137339055794,-2192,-1.34396076026977,-16288,9.98651134273452,26,2.4390243902439,-40,-1.58536585365854,1,-0.0609756097560976,-4,0.0173913043478261,-32,-0.139130434782609,145,-0.707317073170732,
1222198,3320.3125,-1760,1.0790925812385,-2208,-1.35377069282649,-16128,9.88841201716738,-16,2.80487804878049,-46,0.975609756097561,0,0,-3,0.0130434782608696,-31,-0.134782608695652,146,-0.712195121951219,
1222838,3339.84375,-1712,1.04966278356836,-2144,-1.31453096259963,-16112,9.87860208461067,-66,3.17073170731707,-52,4.02439024390244,-3,0.182926829268293,-3,0.0130434782608696,-34,-0.147826086956522,148,-0.721951219512195,
1223478,3359.375,-1488,0.912323727774372,-2064,-1.26548129981606,-16080,9.85898221949724,-47,2.86585365853659,-47,2.86585365853659,3,-0.182926829268293,-6,0.0260869565217391,-31,-0.134782608695652,145,-0.707317073170732,
1224118,3378.90625,-1376,0.843654199877376,-2192,-1.34396076026977,-16032,9.8295524218271,11,2.31707317073171,-38,-0.670731707317073,6,-0.365853658536585,-5,0.0217391304347826,-26,-0.11304347826087,146,-0.712195121951219,
1224758,3398.4375,-1424,0.873083997547517,-2304,-1.41263028816677,-16032,9.8295524218271,34,2.01219512195122,-33,-2.07317073170732,-5,0.304878048780488,-6,0.0260869565217391,-30,-0.130434782608696,147,-0.717073170731707,
1225398,3417.96875,-1584,0.971183323114654,-2240,-1.37339055793991,-15968,9.79031269160024,-2,2.4390243902439,-40,0.121951219512195,-20,1.21951219512195,-5,0.0217391304347826,-30,-0.130434782608696,145,-0.707317073170732,
1226038,3437.5,-1488,0.912323727774372,-2304,-1.41263028816677,-16000,9.80993255671367,-25,2.80487804878049,-46,1.52439024390244,-27,1.64634146341463,-6,0.0260869565217391,-28,-0.121739130434783,147,-0.717073170731707,
1226678,3457.03125,-1472,0.902513795217658,-2272,-1.39301042305334,-16048,9.83936235438381,-6,2.98780487804878,-49,0.365853658536585,-27,1.64634146341463,-6,0.0260869565217391,-29,-0.126086956521739,146,-0.712195121951219,
1227318,3476.5625,-1424,0.873083997547517,-2224,-1.3635806253832,-15984,9.80012262415696,12,2.92682926829268,-48,-0.731707317073171,-24,1.46341463414634,-3,0.0130434782608696,-34,-0.147826086956522,147,-0.717073170731707,
1227958,3496.09375,-1408,0.863274064990803,-2272,-1.39301042305334,-15936,9.77069282648682,18,2.98780487804878,-49,-1.09756097560976,-29,1.76829268292683,-5,0.0217391304347826,-30,-0.130434782608696,148,-0.721951219512195,
1228598,3515.625,-1408,0.863274064990803,-2240,-1.37339055793991,-15952,9.78050275904353,25,2.5,-41,-1.52439024390244,-29,1.76829268292683,-7,0.0304347826086957,-29,-0.126086956521739,146,-0.712195121951219,
1229238,3535.15625,-1440,0.88289393010423,-2240,-1.37339055793991,-16000,9.80993255671367,47,2.5,-41,-2.86585365853659,-26,1.58536585365854,-8,0.0347826086956522,-28,-0.121739130434783,144,-0.702439024390244,
1229878,3554.6875,-1552,0.951563458001226,-2144,-1.31453096259963,-16016,9.81974248927039,61,1.95121951219512,-32,-3.71951219512195,-26,1.58536585365854,-6,0.0260869565217391,-29,-0.126086956521739,145,-0.707317073170732,
1230518,3574.21875,-1616,0.990803188228081,-2128,-1.30472103004292,-16112,9.87860208461067,87,1.95121951219512,-32,-5.30487804878049,-25,1.52439024390244,-3,0.0130434782608696,-30,-0.130434782608696,147,-0.717073170731707,
1231158,3593.75,-1728,1.05947271612508,-2256,-1.38320049049663,-16128,9.88841201716738,93,2.19512195121951,-36,-5.67073170731707,-22,1.34146341463415,-5,0.0217391304347826,-26,-0.11304347826087,147,-0.717073170731707,
1231798,3613.28125,-1872,1.1477621091355,-2256,-1.38320049049663,-16080,9.85898221949724,70,2.74390243902439,-45,-4.26829268292683,-28,1.70731707317073,-5,0.0217391304347826,-33,-0.143478260869565,147,-0.717073170731707,
1232438,3632.8125,-2096,1.28510116492949,-2128,-1.30472103004292,-16064,9.84917228694053,22,3.04878048780488,-50,-1.34146341463415,-30,1.82926829268293,-3,0.0130434782608696,-30,-0.130434782608696,145,-0.707317073170732,
1233078,3652.34375,-1952,1.19681177191907,-2192,-1.34396076026977,-16176,9.91784181483752,-13,2.92682926829268,-48,0.792682926829268,-26,1.58536585365854,-3,0.0130434782608696,-28,-0.121739130434783,146,-0.712195121951219,
1233718,3671.875,-1728,1.05947271612508,-2288,-1.40282035561006,-16160,9.90803188228081,7,2.6219512195122,-43,-0.426829268292683,-12,0.731707317073171,-3,0.0130434782608696,-29,-0.126086956521739,146,-0.712195121951219,
1234358,3691.40625,-1824,1.11833231146536,-2208,-1.35377069282649,-16080,9.85898221949724,25,2.68292682926829,-44,-1.52439024390244,-7,0.426829268292683,-5,0.0217391304347826,-29,-0.126086956521739,147,-0.717073170731707,
1234998,3710.9375,-1792,1.09871244635193,-2128,-1.30472103004292,-16160,9.90803188228081,14,3.17073170731707,-52,-0.853658536585366,-5,0.304878048780488,-4,0.0173913043478261,-30,-0.130434782608696,147,-0.717073170731707,
1235638,3730.46875,-1792,1.09871244635193,-2080,-1.27529123237278,-16096,9.86879215205395,-9,3.41463414634146,-56,0.548780487804878,-13,0.792682926829268,-3,0.0130434782608696,-33,-0.143478260869565,147,-0.717073170731707,
1236278,3750,-1712,1.04966278356836,-2064,-1.26548129981606,-16176,9.91784181483752,10,3.84146341463415,-63,-0.609756097560976,-14,0.853658536585366,-2,0.00869565217391304,-34,-0.147826086956522,148,-0.721951219512195,
1236918,3769.53125,-1712,1.04966278356836,-2144,-1.31453096259963,-16224,9.94727161250766,49,4.20731707317073,-69,-2.98780487804878,-15,0.914634146341463,-4,0.0173913043478261,-28,-0.121739130434783,145,-0.707317073170732,
1237558,3789.0625,-1632,1.00061312078479,-2160,-1.32434089515635,-16160,9.90803188228081,74,4.45121951219512,-73,-4.51219512195122,-16,0.975609756097561,-5,0.0217391304347826,-28,-0.121739130434783,145,-0.707317073170732,
1238198,3808.59375,-1744,1.06928264868179,-2096,-1.28510116492949,-16032,9.8295524218271,87,3.96341463414634,-65,-5.30487804878049,-8,0.487804878048781,-2,0.00869565217391304,-29,-0.126086956521739,145,-0.707317073170732,
1238838,3828.125,-1888,1.15757204169221,-2192,-1.34396076026977,-15904,9.75107296137339,91,3.84146341463415,-63,-5.54878048780488,-1,0.0609756097560976,-3,0.0130434782608696,-31,-0.134782608695652,145,-0.707317073170732,
1239478,3847.65625,-2016,1.23605150214592,-2304,-1.41263028816677,-15920,9.7608828939301,73,3.35365853658537,-55,-4.45121951219512,6,-0.365853658536585,-2,0.00869565217391304,-32,-0.139130434782609,146,-0.712195121951219,
1240118,3867.1875,-1936,1.18700183936235,-2240,-1.37339055793991,-15872,9.73145309625996,53,2.92682926829268,-48,-3.23170731707317,14,-0.853658536585366,-1,0.00434782608695652,-34,-0.147826086956522,146,-0.712195121951219,
1240758,3886.71875,-1856,1.13795217657879,-2176,-1.33415082771306,-15840,9.71183323114654,37,2.5,-41,-2.25609756097561,18,-1.09756097560976,-2,0.00869565217391304,-31,-0.134782608695652,145,-0.707317073170732,
1241398,3906.25,-1824,1.11833231146536,-2272,-1.39301042305334,-15968,9.79031269160024,36,2.74390243902439,-45,-2.19512195121951,14,-0.853658536585366,-4,0.0173913043478261,-28,-0.121739130434783,145,-0.707317073170732,
1242038,3925.78125,-1888,1.15757204169221,-2208,-1.35377069282649,-16000,9.80993255671367,19,2.98780487804878,-49,-1.15853658536585,-4,0.24390243902439,-4,0.0173913043478261,-31,-0.134782608695652,145,-0.707317073170732,
1242678,3945.3125,-1952,1.19681177191907,-2272,-1.39301042305334,-16096,9.86879215205395,17,3.10975609756098,-51,-1.03658536585366,-15,0.914634146341463,-3,0.0130434782608696,-30,-0.130434782608696,145,-0.707317073170732,
1243318,3964.84375,-1920,1.17719190680564,-2208,-1.35377069282649,-16064,9.84917228694053,20,3.47560975609756,-57,-1.21951219512195,-11,0.670731707317073,-4,0.0173913043478261,-31,-0.134782608695652,145,-0.707317073170732,
1243958,3984.375,-1968,1.20662170447578,-2176,-1.33415082771306,-15968,9.79031269160024,32,3.41463414634146,-56,-1.95121951219512,-3,0.182926829268293,-4,0.0173913043478261,-28,-0.121739130434783,143,-0.697560975609756,
1244598,4003.90625,-1984,1.2164316370325,-2176,-1.33415082771306,-16032,9.8295524218271,33,2.74390243902439,-45,-2.01219512195122,5,-0.304878048780488,-5,0.0217391304347826,-28,-0.121739130434783,143,-0.697560975609756,
1245238,4023.4375,-2016,1.23605150214592,-2144,-1.31453096259963,-16016,9.81974248927039,38,2.37804878048781,-39,-2.31707317073171,15,-0.914634146341463,-6,0.0260869565217391,-30,-0.130434782608696,144,-0.702439024390244,
1245878,4042.96875,-2128,1.30472103004292,-2176,-1.33415082771306,-15984,9.80012262415696,20,2.25609756097561,-37,-1.21951219512195,24,-1.46341463414634,-3,0.0130434782608696,-31,-0.134782608695652,143,-0.697560975609756,
1246518,4062.5,-2160,1.32434089515635,-2144,-1.31453096259963,-15968,9.79031269160024,-8,2.6219512195122,-43,0.487804878048781,28,-1.70731707317073,-3,0.0130434782608696,-32,-0.139130434782609,146,-0.712195121951219,
1247158,4082.03125,-2048,1.25567136725935,-2176,-1.33415082771306,-16000,9.80993255671367,-11,2.6219512195122,-43,0.670731707317073,24,-1.46341463414634,-3,0.0130434782608696,-32,-0.139130434782609,146,-0.712195121951219,
1247798,4101.5625,-1952,1.19681177191907,-2208,-1.35377069282649,-16032,9.8295524218271,5,2.80487804878049,-46,-0.304878048780488,25,-1.52439024390244,-1,0.00434782608695652,-34,-0.147826086956522,146,-0.712195121951219,
1248438,4121.09375,-1936,1.18700183936235,-2192,-1.34396076026977,-16032,9.8295524218271,24,2.86585365853659,-47,-1.46341463414634,14,-0.853658536585366,-1,0.00434782608695652,-34,-0.147826086956522,144,-0.702439024390244,
1249078,4140.625,-1920,1.17719190680564,-2224,-1.3635806253832,-15968,9.79031269160024,11,2.92682926829268,-48,-0.670731707317073,6,-0.365853658536585,-2,0.00869565217391304,-27,-0.117391304347826,145,-0.707317073170732,
1249718,4160.15625,-2016,1.23605150214592,-2224,-1.3635806253832,-16000,9.80993255671367,5,2.80487804878049,-46,-0.304878048780488,4,-0.24390243902439,-4,0.0173913043478261,-29,-0.126086956521739,144,-0.702439024390244,
1250358,4179.6875,-2016,1.23605150214592,-2096,-1.28510116492949,-16000,9.80993255671367,4,2.92682926829268,-48,-0.24390243902439,10,-0.609756097560976,-3,0.0130434782608696,-27,-0.117391304347826,144,-0.702439024390244,
1250998,4199.21875,-1968,1.20662170447578,-2128,-1.30472103004292,-16000,9.80993255671367,11,2.6219512195122,-43,-0.670731707317073,12,-0.731707317073171,-4,0.0173913043478261,-27,-0.117391304347826,144,-0.702439024390244,
1251638,4218.75,-1968,1.20662170447578,-2112,-1.2949110974862,-16064,9.84917228694053,16,2.5609756097561,-42,-0.975609756097561,13,-0.792682926829268,-3,0.0130434782608696,-29,-0.126086956521739,144,-0.702439024390244,
1252278,4238.28125,-1968,1.20662170447578,-2144,-1.31453096259963,-16048,9.83936235438381,8,2.4390243902439,-40,-0.487804878048781,11,-0.670731707317073,-3,0.0130434782608696,-29,-0.126086956521739,144,-0.702439024390244,
1252918,4257.8125,-1968,1.20662170447578,-2256,-1.38320049049663,-16064,9.84917228694053,-4,2.19512195121951,-36,0.24390243902439,11,-0.670731707317073,-3,0.0130434782608696,-33,-0.143478260869565,145,-0.707317073170732,
1253558,4277.34375,-1856,1.13795217657879,-2304,-1.41263028816677,-16000,9.80993255671367,-2,2.37804878048781,-39,0.121951219512195,10,-0.609756097560976,-3,0.0130434782608696,-32,-0.139130434782609,144,-0.702439024390244,
1254198,4296.875,-1872,1.1477621091355,-2352,-1.44206008583691,-16048,9.83936235438381,2,2.4390243902439,-40,-0.121951219512195,3,-0.182926829268293,0,0,-30,-0.130434782608696,145,-0.707317073170732,
1254838,4316.40625,-1840,1.12814224402207,-2352,-1.44206008583691,-16000,9.80993255671367,-5,2.5,-41,0.304878048780488,-2,0.121951219512195,0,0,-32,-0.139130434782609,146,-0.712195121951219,
1255478,4335.9375,-1888,1.15757204169221,-2240,-1.37339055793991,-15856,9.72164316370325,-32,2.74390243902439,-45,1.95121951219512,-15,0.914634146341463,-2,0.00869565217391304,-34,-0.147826086956522,145,-0.707317073170732,
1256118,4355.46875,-1808,1.10852237890864,-2272,-1.39301042305334,-15776,9.67259350091968,-49,2.31707317073171,-38,2.98780487804878,-30,1.82926829268293,-2,0.00869565217391304,-30,-0.130434782608696,146,-0.712195121951219,
1256758,4375,-1552,0.951563458001226,-2144,-1.31453096259963,-15680,9.6137339055794,-17,1.40243902439024,-23,1.03658536585366,-23,1.40243902439024,-4,0.0173913043478261,-29,-0.126086956521739,143,-0.697560975609756,
1257398,4394.53125,-1568,0.96137339055794,-2112,-1.2949110974862,-15712,9.63335377069283,50,0.426829268292683,-7,-3.04878048780488,-21,1.28048780487805,-4,0.0173913043478261,-25,-0.108695652173913,143,-0.697560975609756,
1258038,4414.0625,-1824,1.11833231146536,-2064,-1.26548129981606,-16000,9.80993255671367,94,0.0609756097560976,-1,-5.73170731707317,-15,0.914634146341463,-3,0.0130434782608696,-27,-0.117391304347826,145,-0.707317073170732,
1258678,4433.59375,-1984,1.2164316370325,-2112,-1.2949110974862,-16160,9.90803188228081,89,0.609756097560976,-10,-5.42682926829268,-16,0.975609756097561,-2,0.00869565217391304,-31,-0.134782608695652,142,-0.692682926829268,
1259318,4453.125,-2192,1.34396076026977,-2192,-1.34396076026977,-16256,9.96689147762109,61,1.58536585365854,-26,-3.71951219512195,-18,1.09756097560976,-3,0.0130434782608696,-28,-0.121739130434783,143,-0.697560975609756,
1259958,4472.65625,-2352,1.44206008583691,-2208,-1.35377069282649,-16224,9.94727161250766,4,2.13414634146341,-35,-0.24390243902439,-28,1.70731707317073,-4,0.0173913043478261,-33,-0.143478260869565,143,-0.697560975609756,
1260598,4492.1875,-2272,1.39301042305334,-2240,-1.37339055793991,-16224,9.94727161250766,-24,2.13414634146341,-35,1.46341463414634,-32,1.95121951219512,-2,0.00869565217391304,-29,-0.126086956521739,144,-0.702439024390244,
1261238,4511.71875,-2144,1.31453096259963,-2272,-1.39301042305334,-16192,9.92765174739424,9,2.6219512195122,-43,-0.548780487804878,-26,1.58536585365854,0,0,-31,-0.134782608695652,145,-0.707317073170732,
1261878,4531.25,-2304,1.41263028816677,-2272,-1.39301042305334,-16208,9.93746167995095,17,2.74390243902439,-45,-1.03658536585366,-27,1.64634146341463,-2,0.00869565217391304,-30,-0.130434782608696,143,-0.697560975609756,
1262518,4550.78125,-2336,1.4322501532802,-2240,-1.37339055793991,-16176,9.91784181483752,-1,2.80487804878049,-46,0.0609756097560976,-22,1.34146341463415,-2,0.00869565217391304,-34,-0.147826086956522,145,-0.707317073170732,
1263158,4570.3125,-2320,1.42244022072348,-2272,-1.39301042305334,-16112,9.87860208461067,-4,2.86585365853659,-47,0.24390243902439,-16,0.975609756097561,-4,0.0173913043478261,-27,-0.117391304347826,144,-0.702439024390244,
1263798,4589.84375,-2224,1.3635806253832,-2304,-1.41263028816677,-16048,9.83936235438381,8,3.10975609756098,-51,-0.487804878048781,-8,0.487804878048781,-1,0.00434782608695652,-28,-0.121739130434783,143,-0.697560975609756,
1264438,4609.375,-2320,1.42244022072348,-2272,-1.39301042305334,-16000,9.80993255671367,-2,2.86585365853659,-47,0.121951219512195,-1,0.0609756097560976,-3,0.0130434782608696,-28,-0.121739130434783,144,-0.702439024390244,
1265078,4628.90625,-2208,1.35377069282649,-2208,-1.35377069282649,-16016,9.81974248927039,-15,2.5,-41,0.914634146341463,5,-0.304878048780488,-1,0.00434782608695652,-30,-0.130434782608696,144,-0.702439024390244,
1265718,4648.4375,-2208,1.35377069282649,-2336,-1.4322501532802,-16000,9.80993255671367,-8,2.37804878048781,-39,0.487804878048781,15,-0.914634146341463,-1,0.00434782608695652,-33,-0.143478260869565,145,-0.707317073170732,
1266358,4667.96875,-2192,1.34396076026977,-2304,-1.41263028816677,-16016,9.81974248927039,-8,2.37804878048781,-39,0.487804878048781,11,-0.670731707317073,-1,0.00434782608695652,-27,-0.117391304347826,143,-0.697560975609756,
1266998,4687.5,-1984,1.2164316370325,-2400,-1.47148988350705,-16016,9.81974248927039,-37,2.5,-41,2.25609756097561,6,-0.365853658536585,0,0,-30,-0.130434782608696,144,-0.702439024390244,
1267638,4707.03125,-1920,1.17719190680564,-2384,-1.46167995095034,-16048,9.83936235438381,-16,2.5609756097561,-42,0.975609756097561,8,-0.487804878048781,0,0,-30,-0.130434782608696,145,-0.707317073170732,
1268278,4726.5625,-1888,1.15757204169221,-2368,-1.45187001839362,-16080,9.85898221949724,16,2.5609756097561,-42,-0.975609756097561,11,-0.670731707317073,-2,0.00869565217391304,-33,-0.143478260869565,145,-0.707317073170732,
1268918,4746.09375,-2064,1.26548129981606,-2400,-1.47148988350705,-16096,9.86879215205395,23,2.92682926829268,-48,-1.40243902439024,4,-0.24390243902439,-2,0.00869565217391304,-34,-0.147826086956522,145,-0.707317073170732,
1269558,4765.625,-2112,1.2949110974862,-2336,-1.4322501532802,-16096,9.86879215205395,-16,3.41463414634146,-56,0.975609756097561,-7,0.426829268292683,-4,0.0173913043478261,-27,-0.117391304347826,143,-0.697560975609756,
1270198,4785.15625,-2064,1.26548129981606,-2352,-1.44206008583691,-16160,9.90803188228081,-25,3.59756097560976,-59,1.52439024390244,-19,1.15853658536585,-1,0.00434782608695652,-29,-0.126086956521739,144,-0.702439024390244,
1270838,4804.6875,-2032,1.24586143470264,-2368,-1.45187001839362,-16176,9.91784181483752,7,3.84146341463415,-63,-0.426829268292683,-21,1.28048780487805,-2,0.00869565217391304,-28,-0.121739130434783,143,-0.697560975609756,
1271478,4824.21875,-2128,1.30472103004292,-2320,-1.42244022072348,-16176,9.91784181483752,14,4.20731707317073,-69,-0.853658536585366,-27,1.64634146341463,-2,0.00869565217391304,-28,-0.121739130434783,145,-0.707317073170732,
1272118,4843.75,-2224,1.3635806253832,-2352,-1.44206008583691,-16160,9.90803188228081,5,4.57317073170732,-75,-0.304878048780488,-23,1.40243902439024,-1,0.00434782608695652,-32,-0.139130434782609,146,-0.712195121951219,
1272758,4863.28125,-2208,1.35377069282649,-2272,-1.39301042305334,-16096,9.86879215205395,-14,4.75609756097561,-78,0.853658536585366,-18,1.09756097560976,-1,0.00434782608695652,-33,-0.143478260869565,146,-0.712195121951219,
1273398,4882.8125,-2224,1.3635806253832,-2320,-1.42244022072348,-16000,9.80993255671367,-25,4.87804878048781,-80,1.52439024390244,-16,0.975609756097561,-3,0.0130434782608696,-28,-0.121739130434783,143,-0.697560975609756,
1274038,4902.34375,-2128,1.30472103004292,-2224,-1.3635806253832,-15968,9.79031269160024,-13,4.69512195121951,-77,0.792682926829268,-15,0.914634146341463,-3,0.0130434782608696,-29,-0.126086956521739,144,-0.702439024390244,
1274678,4921.875,-2064,1.26548129981606,-2256,-1.38320049049663,-15968,9.79031269160024,7,4.26829268292683,-70,-0.426829268292683,-6,0.365853658536585,-3,0.0130434782608696,-33,-0.143478260869565,145,-0.707317073170732,
1275318,4941.40625,-2144,1.31453096259963,-2240,-1.37339055793991,-15936,9.77069282648682,13,4.02439024390244,-66,-0.792682926829268,-2,0.121951219512195,-5,0.0217391304347826,-31,-0.134782608695652,144,-0.702439024390244,
1275958,4960.9375,-2224,1.3635806253832,-2176,-1.33415082771306,-15984,9.80012262415696,4,3.84146341463415,-63,-0.24390243902439,-12,0.731707317073171,-3,0.0130434782608696,-27,-0.117391304347826,144,-0.702439024390244,
1276598,4980.46875,-2080,1.27529123237278,-2224,-1.3635806253832,-15984,9.80012262415696,-8,3.84146341463415,-63,0.487804878048781,-14,0.853658536585366,-1,0.00434782608695652,-32,-0.139130434782609,144,-0.702439024390244,
1277238,5000,-2160,1.32434089515635,-2208,-1.35377069282649,-15888,9.74126302881668,9,3.78048780487805,-62,-0.548780487804878,-8,0.487804878048781,-2,0.00869565217391304,-31,-0.134782608695652,144,-0.702439024390244,
1277878,5019.53125,-2224,1.3635806253832,-2192,-1.34396076026977,-15824,9.70202329858982,0,3.78048780487805,-62,0,-4,0.24390243902439,-3,0.0130434782608696,-30,-0.130434782608696,144,-0.702439024390244,
1278518,5039.0625,-2128,1.30472103004292,-2064,-1.26548129981606,-15920,9.7608828939301,-20,3.59756097560976,-59,1.21951219512195,-12,0.731707317073171,-1,0.00434782608695652,-30,-0.130434782608696,143,-0.697560975609756,
1279158,5058.59375,-2032,1.24586143470264,-2176,-1.33415082771306,-15968,9.79031269160024,4,3.29268292682927,-54,-0.24390243902439,-4,0.24390243902439,-1,0.00434782608695652,-30,-0.130434782608696,144,-0.702439024390244,
1279798,5078.125,-2064,1.26548129981606,-2192,-1.34396076026977,-15888,9.74126302881668,33,2.98780487804878,-49,-2.01219512195122,0,0,-3,0.0130434782608696,-31,-0.134782608695652,145,-0.707317073170732,
1280438,5097.65625,-2192,1.34396076026977,-2160,-1.32434089515635,-15920,9.7608828939301,16,2.68292682926829,-44,-0.975609756097561,7,-0.426829268292683,-1,0.00434782608695652,-31,-0.134782608695652,143,-0.697560975609756,
1281078,5117.1875,-2096,1.28510116492949,-2128,-1.30472103004292,-15952,9.78050275904353,-10,2.4390243902439,-40,0.609756097560976,9,-0.548780487804878,0,0,-33,-0.143478260869565,146,-0.712195121951219,
1281718,5136.71875,-2240,1.37339055793991,-2144,-1.31453096259963,-16048,9.83936235438381,-5,2.86585365853659,-47,0.304878048780488,1,-0.0609756097560976,0,0,-33,-0.143478260869565,146,-0.712195121951219,
1282358,5156.25,-2144,1.31453096259963,-2112,-1.2949110974862,-16016,9.81974248927039,-25,3.17073170731707,-52,1.52439024390244,-6,0.365853658536585,0,0,-31,-0.134782608695652,145,-0.707317073170732,
1282998,5175.78125,-1984,1.2164316370325,-2176,-1.33415082771306,-16160,9.90803188228081,-16,3.23170731707317,-53,0.975609756097561,-7,0.426829268292683,-2,0.00869565217391304,-27,-0.117391304347826,143,-0.697560975609756,
1283638,5195.3125,-2144,1.31453096259963,-2144,-1.31453096259963,-16112,9.87860208461067,15,3.23170731707317,-53,-0.914634146341463,-5,0.304878048780488,-2,0.00869565217391304,-33,-0.143478260869565,145,-0.707317073170732,
1284278,5214.84375,-2272,1.39301042305334,-2112,-1.2949110974862,-16112,9.87860208461067,12,3.35365853658537,-55,-0.731707317073171,-1,0.0609756097560976,-4,0.0173913043478261,-31,-0.134782608695652,143,-0.697560975609756,
1284918,5234.375,-2384,1.46167995095034,-2080,-1.27529123237278,-16160,9.90803188228081,-35,3.84146341463415,-63,2.13414634146341,-7,0.426829268292683,0,0,-34,-0.147826086956522,145,-0.707317073170732,
1285558,5253.90625,-2272,1.39301042305334,-2144,-1.31453096259963,-16128,9.88841201716738,-77,3.90243902439024,-64,4.69512195121951,-16,0.975609756097561,-2,0.00869565217391304,-30,-0.130434782608696,144,-0.702439024390244,
1286198,5273.4375,-2144,1.31453096259963,-2224,-1.3635806253832,-16096,9.86879215205395,-73,4.20731707317073,-69,4.45121951219512,-14,0.853658536585366,-3,0.0130434782608696,-28,-0.121739130434783,145,-0.707317073170732,
1286838,5292.96875,-2224,1.3635806253832,-2272,-1.39301042305334,-15984,9.80012262415696,-68,4.02439024390244,-66,4.14634146341463,-10,0.609756097560976,-3,0.0130434782608696,-33,-0.143478260869565,145,-0.707317073170732,
1287478,5312.5,-2320,1.42244022072348,-2272,-1.39301042305334,-15984,9.80012262415696,-73,3.90243902439024,-64,4.45121951219512,-12,0.731707317073171,-4,0.0173913043478261,-27,-0.117391304347826,143,-0.697560975609756,
1288118,5332.03125,-2336,1.4322501532802,-2352,-1.44206008583691,-15968,9.79031269160024,-100,3.90243902439024,-64,6.09756097560976,-8,0.487804878048781,-2,0.00869565217391304,-31,-0.134782608695652,144,-0.702439024390244,
1288758,5351.5625,-2272,1.39301042305334,-2416,-1.48129981606376,-16160,9.90803188228081,-124,4.69512195121951,-77,7.5609756097561,-7,0.426829268292683,-3,0.0130434782608696,-32,-0.139130434782609,144,-0.702439024390244,
1289398,5371.09375,-2160,1.32434089515635,-2464,-1.51072961373391,-16176,9.91784181483752,-171,4.81707317073171,-79,10.4268292682927,-13,0.792682926829268,-3,0.0130434782608696,-28,-0.121739130434783,146,-0.712195121951219,
1290038,5390.625,-2032,1.24586143470264,-2400,-1.47148988350705,-16144,9.89822194972409,-194,5.1219512195122,-84,11.8292682926829,-15,0.914634146341463,-4,0.0173913043478261,-32,-0.139130434782609,145,-0.707317073170732,
1290678,5410.15625,-1808,1.10852237890864,-2368,-1.45187001839362,-16128,9.88841201716738,-187,5.1219512195122,-84,11.4024390243902,-7,0.426829268292683,-6,0.0260869565217391,-30,-0.130434782608696,145,-0.707317073170732,
1291318,5429.6875,-1696,1.03985285101165,-2240,-1.37339055793991,-16176,9.91784181483752,-151,5.60975609756098,-92,9.20731707317073,0,0,-2,0.00869565217391304,-31,-0.134782608695652,147,-0.717073170731707,
1291958,5449.21875,-1648,1.01042305334151,-2224,-1.3635806253832,-16352,10.0257510729614,-144,5.67073170731707,-93,8.78048780487805,-1,0.0609756097560976,-3,0.0130434782608696,-34,-0.147826086956522,148,-0.721951219512195,
1292598,5468.75,-1648,1.01042305334151,-2336,-1.4322501532802,-16336,10.0159411404047,-157,5.60975609756098,-92,9.57317073170732,-8,0.487804878048781,-4,0.0173913043478261,-30,-0.130434782608696,146,-0.712195121951219,
1293238,5488.28125,-1520,0.931943592887799,-2224,-1.3635806253832,-16288,9.98651134273452,-197,5.73170731707317,-94,12.0121951219512,-17,1.03658536585366,-3,0.0130434782608696,-35,-0.152173913043478,146,-0.712195121951219,
1293878,5507.8125,-1392,0.853464132434089,-2064,-1.26548129981606,-16224,9.94727161250766,-252,6.15853658536585,-101,15.3658536585366,-38,2.31707317073171,-3,0.0130434782608696,-30,-0.130434782608696,146,-0.712195121951219,
1294518,5527.34375,-1088,0.66707541385653,-2016,-1.23605150214592,-16320,10.0061312078479,-250,6.70731707317073,-110,15.2439024390244,-48,2.92682926829268,-7,0.0304347826086957,-29,-0.126086956521739,147,-0.717073170731707,
1295158,5546.875,-896,0.549356223175966,-2016,-1.23605150214592,-16240,9.95708154506438,-178,6.89024390243902,-113,10.8536585365854,-47,2.86585365853659,-6,0.0260869565217391,-31,-0.134782608695652,148,-0.721951219512195,
1295798,5566.40625,-944,0.578786020846107,-1920,-1.17719190680564,-16272,9.9767014101778,-101,7.37804878048781,-121,6.15853658536585,-56,3.41463414634146,-6,0.0260869565217391,-27,-0.117391304347826,147,-0.717073170731707,
1296438,5585.9375,-1296,0.794604537093807,-1920,-1.17719190680564,-16384,10.0453709380748,-169,7.6219512195122,-125,10.3048780487805,-89,5.42682926829268,-6,0.0260869565217391,-30,-0.130434782608696,148,-0.721951219512195,
1297078,5605.46875,-1152,0.706315144083384,-1936,-1.18700183936235,-16240,9.95708154506438,-319,7.74390243902439,-127,19.4512195121951,-131,7.98780487804878,-8,0.0347826086956522,-29,-0.126086956521739,148,-0.721951219512195,
1297718,5625,-688,0.421827099938688,-1968,-1.20662170447578,-16288,9.98651134273452,-381,8.53658536585366,-140,23.2317073170732,-154,9.39024390243902,-9,0.0391304347826087,-30,-0.130434782608696,149,-0.726829268292683,
1298358,5644.53125,-352,0.215818516247701,-2000,-1.22624156958921,-16224,9.94727161250766,-307,9.26829268292683,-152,18.719512195122,-164,10,-8,0.0347826086956522,-30,-0.130434782608696,148,-0.721951219512195,
1298998,5664.0625,-176,0.10790925812385,-1840,-1.12814224402207,-16048,9.83936235438381,-157,9.63414634146342,-158,9.57317073170732,-165,10.0609756097561,-9,0.0391304347826087,-30,-0.130434782608696,151,-0.736585365853659,
1299638,5683.59375,-640,0.392397302268547,-1824,-1.11833231146536,-15952,9.78050275904353,-63,9.51219512195122,-156,3.84146341463415,-160,9.75609756097561,-7,0.0304347826086957,-33,-0.143478260869565,149,-0.726829268292683,
1300278,5703.125,-800,0.490496627835684,-1728,-1.05947271612508,-16064,9.84917228694053,-78,8.84146341463415,-145,4.75609756097561,-172,10.4878048780488,-10,0.0434782608695652,-27,-0.117391304347826,150,-0.731707317073171,
1300918,5722.65625,-576,0.353157572041692,-1696,-1.03985285101165,-16016,9.81974248927039,-95,8.47560975609756,-139,5.79268292682927,-173,10.5487804878049,-8,0.0347826086956522,-31,-0.134782608695652,152,-0.741463414634146,
1301558,5742.1875,-512,0.313917841814838,-1712,-1.04966278356836,-15984,9.80012262415696,-49,7.92682926829268,-130,2.98780487804878,-154,9.39024390243902,-9,0.0391304347826087,-29,-0.126086956521739,152,-0.741463414634146,
1302198,5761.71875,-592,0.362967504598406,-1680,-1.03004291845494,-15904,9.75107296137339,35,7.37804878048781,-121,-2.13414634146341,-136,8.29268292682927,-8,0.0347826086956522,-34,-0.147826086956522,152,-0.741463414634146,
1302838,5781.25,-688,0.421827099938688,-1600,-0.980993255671367,-15984,9.80012262415696,103,6.46341463414634,-106,-6.28048780487805,-109,6.64634146341464,-8,0.0347826086956522,-33,-0.143478260869565,151,-0.736585365853659,
1303478,5800.78125,-800,0.490496627835684,-1520,-0.931943592887799,-15984,9.80012262415696,137,6.15853658536585,-101,-8.35365853658537,-87,5.30487804878049,-8,0.0347826086956522,-31,-0.134782608695652,151,-0.736585365853659,
1304118,5820.3125,-896,0.549356223175966,-1504,-0.922133660331085,-15952,9.78050275904353,173,5.36585365853659,-88,-10.5487804878049,-56,3.41463414634146,-7,0.0304347826086957,-30,-0.130434782608696,150,-0.731707317073171,
1304758,5839.84375,-1248,0.765174739423666,-1392,-0.853464132434089,-15936,9.77069282648682,175,4.87804878048781,-80,-10.6707317073171,-40,2.4390243902439,-7,0.0304347826086957,-28,-0.121739130434783,148,-0.721951219512195,
1305398,5859.375,-1376,0.843654199877376,-1424,-0.873083997547517,-16112,9.87860208461067,65,4.02439024390244,-66,-3.96341463414634,-37,2.25609756097561,-8,0.0347826086956522,-33,-0.143478260869565,150,-0.731707317073171,
1306038,5878.90625,-1200,0.735744941753525,-1408,-0.863274064990803,-16032,9.8295524218271,-36,3.29268292682927,-54,2.19512195121951,-22,1.34146341463415,-11,0.0478260869565217,-30,-0.130434782608696,150,-0.731707317073171,
1306678,5898.4375,-864,0.529736358062538,-1456,-0.892703862660944,-16048,9.83936235438381,-24,2.5609756097561,-42,1.46341463414634,-2,0.121951219512195,-10,0.0434782608695652,-28,-0.121739130434783,149,-0.726829268292683,
1307318,5917.96875,-800,0.490496627835684,-1488,-0.912323727774372,-15984,9.80012262415696,21,1.64634146341463,-27,-1.28048780487805,15,-0.914634146341463,-8,0.0347826086956522,-34,-0.147826086956522,151,-0.736585365853659,
1307958,5937.5,-752,0.461066830165543,-1472,-0.902513795217658,-16112,9.87860208461067,44,1.09756097560976,-18,-2.68292682926829,18,-1.09756097560976,-8,0.0347826086956522,-33,-0.143478260869565,150,-0.731707317073171,
1308598,5957.03125,-800,0.490496627835684,-1552,-0.951563458001226,-16128,9.88841201716738,55,0.792682926829268,-13,-3.35365853658537,17,-1.03658536585366,-6,0.0260869565217391,-34,-0.147826086956522,151,-0.736585365853659,
1309238,5976.5625,-800,0.490496627835684,-1600,-0.980993255671367,-16144,9.89822194972409,73,1.21951219512195,-20,-4.45121951219512,18,-1.09756097560976,-9,0.0391304347826087,-29,-0.126086956521739,148,-0.721951219512195,
1309878,5996.09375,-816,0.500306560392397,-1664,-1.02023298589822,-16288,9.98651134273452,91,1.52439024390244,-25,-5.54878048780488,13,-0.792682926829268,-8,0.0347826086956522,-29,-0.126086956521739,150,-0.731707317073171,
1310518,6015.625,-960,0.58859595340282,-1616,-0.990803188228081,-16336,10.0159411404047,87,1.40243902439024,-23,-5.30487804878049,10,-0.609756097560976,-7,0.0304347826086957,-30,-0.130434782608696,150,-0.731707317073171,
1311158,6035.15625,-1024,0.627835683629675,-1696,-1.03985285101165,-16384,10.0453709380748,50,1.58536585365854,-26,-3.04878048780488,-2,0.121951219512195,-7,0.0304347826086957,-30,-0.130434782608696,150,-0.731707317073171,
1311798,6054.6875,-1024,0.627835683629675,-1776,-1.08890251379522,-16240,9.95708154506438,35,2.01219512195122,-33,-2.13414634146341,-6,0.365853658536585,-8,0.0347826086956522,-28,-0.121739130434783,148,-0.721951219512195,
1312438,6074.21875,-1072,0.657265481299816,-1632,-1.00061312078479,-16384,10.0453709380748,31,2.25609756097561,-37,-1.89024390243902,-14,0.853658536585366,-9,0.0391304347826087,-29,-0.126086956521739,148,-0.721951219512195,
1313078,6093.75,-1008,0.618025751072961,-1664,-1.02023298589822,-16320,10.0061312078479,35,2.68292682926829,-44,-2.13414634146341,-12,0.731707317073171,-7,0.0304347826086957,-28,-0.121739130434783,148,-0.721951219512195,
1313718,6113.28125,-1024,0.627835683629675,-1664,-1.02023298589822,-16384,10.0453709380748,42,2.4390243902439,-40,-2.5609756097561,-15,0.914634146341463,-8,0.0347826086956522,-28,-0.121739130434783,148,-0.721951219512195,
1314358,6132.8125,-1056,0.647455548743102,-1744,-1.06928264868179,-16272,9.9767014101778,45,2.6219512195122,-43,-2.74390243902439,-17,1.03658536585366,-8,0.0347826086956522,-30,-0.130434782608696,150,-0.731707317073171,
1314998,6152.34375,-1104,0.676885346413243,-1616,-0.990803188228081,-16288,9.98651134273452,50,2.92682926829268,-48,-3.04878048780488,-11,0.670731707317073,-5,0.0217391304347826,-31,-0.134782608695652,149,-0.726829268292683,
1315638,6171.875,-1136,0.696505211526671,-1728,-1.05947271612508,-16224,9.94727161250766,46,2.98780487804878,-49,-2.80487804878049,-6,0.365853658536585,-8,0.0347826086956522,-28,-0.121739130434783,148,-0.721951219512195,
1316278,6191.40625,-1264,0.77498467198038,-1680,-1.03004291845494,-16096,9.86879215205395,-2,2.74390243902439,-45,0.121951219512195,-9,0.548780487804878,-6,0.0260869565217391,-27,-0.117391304347826,150,-0.731707317073171,
1316918,6210.9375,-1056,0.647455548743102,-1808,-1.10852237890864,-16064,9.84917228694053,-6,2.25609756097561,-37,0.365853658536585,-15,0.914634146341463,-7,0.0304347826086957,-28,-0.121739130434783,149,-0.726829268292683,
1317558,6230.46875,-960,0.58859595340282,-1760,-1.0790925812385,-16160,9.90803188228081,42,2.13414634146341,-35,-2.5609756097561,-16,0.975609756097561,-8,0.0347826086956522,-25,-0.108695652173913,147,-0.717073170731707,
1318198,6250,-1088,0.66707541385653,-1792,-1.09871244635193,-16128,9.88841201716738,82,2.19512195121951,-36,-5,-19,1.15853658536585,-5,0.0217391304347826,-34,-0.147826086956522,150,-0.731707317073171,
1318838,6269.53125,-1232,0.755364806866953,-1760,-1.0790925812385,-16160,9.90803188228081,81,2.4390243902439,-40,-4.9390243902439,-25,1.52439024390244,-8,0.0347826086956522,-30,-0.130434782608696,148,-0.721951219512195,
1319478,6289.0625,-1232,0.755364806866953,-1712,-1.04966278356836,-16240,9.95708154506438,79,2.6219512195122,-43,-4.81707317073171,-24,1.46341463414634,-7,0.0304347826086957,-29,-0.126086956521739,147,-0.717073170731707,
1320118,6308.59375,-1296,0.794604537093807,-1792,-1.09871244635193,-16128,9.88841201716738,80,2.13414634146341,-35,-4.87804878048781,-17,1.03658536585366,-5,0.0217391304347826,-28,-0.121739130434783,147,-0.717073170731707,
1320758,6328.125,-1328,0.814224402207235,-1776,-1.08890251379522,-16256,9.96689147762109,52,2.31707317073171,-38,-3.17073170731707,-13,0.792682926829268,-7,0.0304347826086957,-29,-0.126086956521739,146,-0.712195121951219,
1321398,6347.65625,-1424,0.873083997547517,-1728,-1.05947271612508,-16160,9.90803188228081,31,2.19512195121951,-36,-1.89024390243902,-4,0.24390243902439,-6,0.0260869565217391,-31,-0.134782608695652,148,-0.721951219512195,
1322038,6367.1875,-1360,0.833844267320662,-1696,-1.03985285101165,-16336,10.0159411404047,23,2.31707317073171,-38,-1.40243902439024,11,-0.670731707317073,-9,0.0391304347826087,-27,-0.117391304347826,147,-0.717073170731707,
1322678,6386.71875,-1440,0.88289393010423,-1792,-1.09871244635193,-16352,10.0257510729614,10,2.6219512195122,-43,-0.609756097560976,21,-1.28048780487805,-6,0.0260869565217391,-33,-0.143478260869565,149,-0.726829268292683,
1323318,6406.25,-1408,0.863274064990803,-1728,-1.05947271612508,-16352,10.0257510729614,-3,2.80487804878049,-46,0.182926829268293,17,-1.03658536585366,-8,0.0347826086956522,-27,-0.117391304347826,147,-0.717073170731707,
1323958,6425.78125,-1248,0.765174739423666,-1808,-1.10852237890864,-16384,10.0453709380748,-13,2.74390243902439,-45,0.792682926829268,4,-0.24390243902439,-5,0.0217391304347826,-29,-0.126086956521739,147,-0.717073170731707,
1324598,6445.3125,-1216,0.745554874310239,-1776,-1.08890251379522,-16400,10.0551808706315,9,3.29268292682927,-54,-0.548780487804878,-9,0.548780487804878,-6,0.0260869565217391,-29,-0.126086956521739,148,-0.721951219512195,
1325238,6464.84375,-1344,0.824034334763949,-1808,-1.10852237890864,-16352,10.0257510729614,19,3.71951219512195,-61,-1.15853658536585,-22,1.34146341463415,-7,0.0304347826086957,-28,-0.121739130434783,148,-0.721951219512195,
1325878,6484.375,-1296,0.794604537093807,-1792,-1.09871244635193,-16336,10.0159411404047,21,3.90243902439024,-64,-1.28048780487805,-24,1.46341463414634,-6,0.0260869565217391,-25,-0.108695652173913,147,-0.717073170731707,
1326518,6503.90625,-1264,0.77498467198038,-1792,-1.09871244635193,-16256,9.96689147762109,41,4.20731707317073,-69,-2.5,-18,1.09756097560976,-7,0.0304347826086957,-26,-0.11304347826087,145,-0.707317073170732,
1327158,6523.4375,-1440,0.88289393010423,-1728,-1.05947271612508,-16240,9.95708154506438,52,4.51219512195122,-74,-3.17073170731707,-17,1.03658536585366,-7,0.0304347826086957,-27,-0.117391304347826,147,-0.717073170731707,
1327798,6542.96875,-1520,0.931943592887799,-1712,-1.04966278356836,-16160,9.90803188228081,28,4.39024390243902,-72,-1.70731707317073,-18,1.09756097560976,-3,0.0130434782608696,-30,-0.130434782608696,147,-0.717073170731707,
1328438,6562.5,-1424,0.873083997547517,-1744,-1.06928264868179,-16160,9.90803188228081,12,4.39024390243902,-72,-0.731707317073171,-15,0.914634146341463,-4,0.0173913043478261,-32,-0.139130434782609,149,-0.726829268292683,
1329078,6582.03125,-1376,0.843654199877376,-1664,-1.02023298589822,-16112,9.87860208461067,0,4.20731707317073,-69,0,-13,0.792682926829268,-6,0.0260869565217391,-32,-0.139130434782609,146,-0.712195121951219,
1329718,6601.5625,-1216,0.745554874310239,-1584,-0.971183323114654,-16032,9.8295524218271,22,3.65853658536585,-60,-1.34146341463415,-6,0.365853658536585,-6,0.0260869565217391,-32,-0.139130434782609,148,-0.721951219512195,
1330358,6621.09375,-1248,0.765174739423666,-1536,-0.941753525444513,-16048,9.83936235438381,45,2.74390243902439,-45,-2.74390243902439,2,-0.121951219512195,-6,0.0260869565217391,-27,-0.117391304347826,147,-0.717073170731707,
1330998,6640.625,-1280,0.784794604537094,-1552,-0.951563458001226,-16016,9.81974248927039,32,2.13414634146341,-35,-1.95121951219512,8,-0.487804878048781,-6,0.0260869565217391,-33,-0.143478260869565,149,-0.726829268292683,
1331638,6660.15625,-1248,0.765174739423666,-1456,-0.892703862660944,-16112,9.87860208461067,49,2.19512195121951,-36,-2.98780487804878,16,-0.975609756097561,-4,0.0173913043478261,-27,-0.117391304347826,148,-0.721951219512195,
1332278,6679.6875,-1216,0.745554874310239,-1504,-0.922133660331085,-16160,9.90803188228081,74,2.07317073170732,-34,-4.51219512195122,24,-1.46341463414634,-6,0.0260869565217391,-33,-0.143478260869565,148,-0.721951219512195,
1332918,6699.21875,-1392,0.853464132434089,-1648,-1.01042305334151,-16272,9.9767014101778,105,1.95121951219512,-32,-6.40243902439024,22,-1.34146341463415,-5,0.0217391304347826,-26,-0.11304347826087,145,-0.707317073170732,
1333558,6718.75,-1440,0.88289393010423,-1712,-1.04966278356836,-16288,9.98651134273452,65,2.13414634146341,-35,-3.96341463414634,10,-0.609756097560976,-4,0.0173913043478261,-31,-0.134782608695652,148,-0.721951219512195,
1334198,6738.28125,-1520,0.931943592887799,-1776,-1.08890251379522,-16128,9.88841201716738,8,2.6219512195122,-43,-0.487804878048781,-9,0.548780487804878,-5,0.0217391304347826,-32,-0.139130434782609,146,-0.712195121951219,
1334838,6757.8125,-1360,0.833844267320662,-1680,-1.03004291845494,-16016,9.81974248927039,-34,3.17073170731707,-52,2.07317073170732,-18,1.09756097560976,-3,0.0130434782608696,-34,-0.147826086956522,148,-0.721951219512195,
1335478,6777.34375,-1280,0.784794604537094,-1776,-1.08890251379522,-16000,9.80993255671367,-15,3.10975609756098,-51,0.914634146341463,-21,1.28048780487805,-4,0.0173913043478261,-33,-0.143478260869565,146,-0.712195121951219,
1336118,6796.875,-1248,0.765174739423666,-1760,-1.0790925812385,-16096,9.86879215205395,29,2.74390243902439,-45,-1.76829268292683,-27,1.64634146341463,-5,0.0217391304347826,-28,-0.121739130434783,146,-0.712195121951219,
1336758,6816.40625,-1408,0.863274064990803,-1728,-1.05947271612508,-16096,9.86879215205395,47,2.5609756097561,-42,-2.86585365853659,-29,1.76829268292683,-5,0.0217391304347826,-30,-0.130434782608696,147,-0.717073170731707,
1337398,6835.9375,-1520,0.931943592887799,-1712,-1.04966278356836,-16160,9.90803188228081,48,2.6219512195122,-43,-2.92682926829268,-28,1.70731707317073,-6,0.0260869565217391,-33,-0.143478260869565,146,-0.712195121951219,
1338038,6855.46875,-1648,1.01042305334151,-1728,-1.05947271612508,-16176,9.91784181483752,29,2.6219512195122,-43,-1.76829268292683,-27,1.64634146341463,-4,0.0173913043478261,-34,-0.147826086956522,147,-0.717073170731707,
1338678,6875,-1664,1.02023298589822,-1744,-1.06928264868179,-16176,9.91784181483752,10,2.4390243902439,-40,-0.609756097560976,-25,1.52439024390244,-6,0.0260869565217391,-26,-0.11304347826087,145,-0.707317073170732,
1339318,6894.53125,-1632,1.00061312078479,-1664,-1.02023298589822,-16256,9.96689147762109,1,2.25609756097561,-37,-0.0609756097560976,-27,1.64634146341463,-3,0.0130434782608696,-33,-0.143478260869565,148,-0.721951219512195,
1339958,6914.0625,-1632,1.00061312078479,-1712,-1.04966278356836,-16320,10.0061312078479,6,2.31707317073171,-38,-0.365853658536585,-24,1.46341463414634,-4,0.0173913043478261,-28,-0.121739130434783,146,-0.712195121951219,
1340598,6933.59375,-1616,0.990803188228081,-1744,-1.06928264868179,-16352,10.0257510729614,11,2.86585365853659,-47,-0.670731707317073,-22,1.34146341463415,-4,0.0173913043478261,-29,-0.126086956521739,148,-0.721951219512195,
1341238,6953.125,-1664,1.02023298589822,-1712,-1.04966278356836,-16304,9.99632127529123,10,2.92682926829268,-48,-0.609756097560976,-27,1.64634146341463,-2,0.00869565217391304,-33,-0.143478260869565,147,-0.717073170731707,
1341878,6972.65625,-1584,0.971183323114654,-1664,-1.02023298589822,-16192,9.92765174739424,20,3.10975609756098,-51,-1.21951219512195,-23,1.40243902439024,-5,0.0217391304347826,-25,-0.108695652173913,145,-0.707317073170732,
1342518,6992.1875,-1472,0.902513795217658,-1648,-1.01042305334151,-16256,9.96689147762109,88,2.5609756097561,-42,-5.36585365853659,-17,1.03658536585366,-6,0.0260869565217391,-30,-0.130434782608696,146,-0.712195121951219,
1343158,7011.71875,-1728,1.05947271612508,-1696,-1.03985285101165,-16384,10.0453709380748,151,2.5609756097561,-42,-9.20731707317073,-9,0.548780487804878,-2,0.00869565217391304,-30,-0.130434782608696,146,-0.712195121951219,
1343798,7031.25,-2064,1.26548129981606,-1824,-1.11833231146536,-16432,10.0748007357449,143,2.74390243902439,-45,-8.71951219512195,-1,0.0609756097560976,-3,0.0130434782608696,-28,-0.121739130434783,143,-0.697560975609756,
1344438,7050.78125,-2144,1.31453096259963,-1808,-1.10852237890864,-16496,10.1140404659718,62,3.41463414634146,-56,-3.78048780487805,0,0,-4,0.0173913043478261,-29,-0.126086956521739,144,-0.702439024390244,
1345078,7070.3125,-2000,1.22624156958921,-1696,-1.03985285101165,-16416,10.0649908031882,12,3.84146341463415,-63,-0.731707317073171,11,-0.670731707317073,-1,0.00434782608695652,-30,-0.130434782608696,146,-0.712195121951219,
1345718,7089.84375,-1856,1.13795217657879,-1744,-1.06928264868179,-16288,9.98651134273452,-2,3.90243902439024,-64,0.121951219512195,16,-0.975609756097561,-3,0.0130434782608696,-31,-0.134782608695652,146,-0.712195121951219,
1346358,7109.375,-1696,1.03985285101165,-1584,-0.971183323114654,-16208,9.93746167995095,3,3.59756097560976,-59,-0.182926829268293,21,-1.28048780487805,-6,0.0260869565217391,-31,-0.134782608695652,146,-0.712195121951219,
1346998,7128.90625,-1632,1.00061312078479,-1664,-1.02023298589822,-16080,9.85898221949724,21,3.65853658536585,-60,-1.28048780487805,13,-0.792682926829268,-5,0.0217391304347826,-28,-0.121739130434783,147,-0.717073170731707,
1347638,7148.4375,-1760,1.0790925812385,-1744,-1.06928264868179,-16016,9.81974248927039,47,3.65853658536585,-60,-2.86585365853659,12,-0.731707317073171,-2,0.00869565217391304,-33,-0.143478260869565,145,-0.707317073170732,
1348278,7167.96875,-1936,1.18700183936235,-1616,-0.990803188228081,-15904,9.75107296137339,11,3.90243902439024,-64,-0.670731707317073,7,-0.426829268292683,-1,0.00434782608695652,-33,-0.143478260869565,146,-0.712195121951219,
1348918,7187.5,-1728,1.05947271612508,-1600,-0.980993255671367,-15776,9.67259350091968,-36,3.59756097560976,-59,2.19512195121951,0,0,-3,0.0130434782608696,-30,-0.130434782608696,146,-0.712195121951219,
1349558,7207.03125,-1520,0.931943592887799,-1712,-1.04966278356836,-15792,9.6824034334764,2,2.80487804878049,-46,-0.121951219512195,-1,0.0609756097560976,-3,0.0130434782608696,-28,-0.121739130434783,147,-0.717073170731707,
1350198,7226.5625,-1792,1.09871244635193,-1584,-0.971183323114654,-15696,9.62354383813611,60,1.70731707317073,-28,-3.65853658536585,-1,0.0609756097560976,-3,0.0130434782608696,-33,-0.143478260869565,147,-0.717073170731707,
1350838,7246.09375,-2016,1.23605150214592,-1648,-1.01042305334151,-15728,9.64316370324954,26,1.21951219512195,-20,-1.58536585365854,-14,0.853658536585366,-3,0.0130434782608696,-26,-0.11304347826087,145,-0.707317073170732,
1351478,7265.625,-2112,1.2949110974862,-1696,-1.03985285101165,-15872,9.73145309625996,-63,1.03658536585366,-17,3.84146341463415,-20,1.21951219512195,-2,0.00869565217391304,-30,-0.130434782608696,145,-0.707317073170732,
1352118,7285.15625,-1920,1.17719190680564,-1664,-1.02023298589822,-16112,9.87860208461067,-108,0.975609756097561,-16,6.58536585365854,2,-0.121951219512195,-3,0.0130434782608696,-30,-0.130434782608696,146,-0.712195121951219,
1352758,7304.6875,-1600,0.980993255671367,-1696,-1.03985285101165,-16240,9.95708154506438,-65,0.487804878048781,-8,3.96341463414634,28,-1.70731707317073,-2,0.00869565217391304,-32,-0.139130434782609,147,-0.717073170731707,
1353398,7324.21875,-1664,1.02023298589822,-1680,-1.03004291845494,-16320,10.0061312078479,9,0.121951219512195,-2,-0.548780487804878,48,-2.92682926829268,-4,0.0173913043478261,-30,-0.130434782608696,146,-0.712195121951219,
1354038,7343.75,-1776,1.08890251379522,-1840,-1.12814224402207,-16464,10.0944206008584,24,0.24390243902439,-4,-1.46341463414634,54,-3.29268292682927,-2,0.00869565217391304,-30,-0.130434782608696,146,-0.712195121951219,
1354678,7363.28125,-1808,1.10852237890864,-1856,-1.13795217657879,-16512,10.1238503985285,-25,0.914634146341463,-15,1.52439024390244,49,-2.98780487804878,-4,0.0173913043478261,-32,-0.139130434782609,147,-0.717073170731707,
1355318,7382.8125,-1600,0.980993255671367,-1856,-1.13795217657879,-16432,10.0748007357449,-56,1.46341463414634,-24,3.41463414634146,45,-2.74390243902439,-4,0.0173913043478261,-32,-0.139130434782609,146,-0.712195121951219,
1355958,7402.34375,-1424,0.873083997547517,-1920,-1.17719190680564,-16384,10.0453709380748,-45,1.95121951219512,-32,2.74390243902439,24,-1.46341463414634,-3,0.0130434782608696,-29,-0.126086956521739,147,-0.717073170731707,
1356598,7421.875,-1552,0.951563458001226,-1808,-1.10852237890864,-16416,10.0649908031882,-20,2.92682926829268,-48,1.21951219512195,8,-0.487804878048781,-3,0.0130434782608696,-29,-0.126086956521739,145,-0.707317073170732,
1357238,7441.40625,-1584,0.971183323114654,-1872,-1.1477621091355,-16320,10.0061312078479,-17,3.29268292682927,-54,1.03658536585366,-12,0.731707317073171,-5,0.0217391304347826,-25,-0.108695652173913,144,-0.702439024390244,
1357878,7460.9375,-1600,0.980993255671367,-1744,-1.06928264868179,-16224,9.94727161250766,-13,3.59756097560976,-59,0.792682926829268,-20,1.21951219512195,-5,0.0217391304347826,-29,-0.126086956521739,146,-0.712195121951219,
1358518,7480.46875,-1632,1.00061312078479,-1824,-1.11833231146536,-16064,9.84917228694053,-2,3.65853658536585,-60,0.121951219512195,-26,1.58536585365854,-4,0.0173913043478261,-29,-0.126086956521739,145,-0.707317073170732,
1359158,7500,-1664,1.02023298589822,-1632,-1.00061312078479,-16064,9.84917228694053,-3,3.35365853658537,-55,0.182926829268293,-26,1.58536585365854,-3,0.0130434782608696,-32,-0.139130434782609,146,-0.712195121951219,
1359798,7519.53125,-1664,1.02023298589822,-1632,-1.00061312078479,-15984,9.80012262415696,-6,2.86585365853659,-47,0.365853658536585,-18,1.09756097560976,-3,0.0130434782608696,-33,-0.143478260869565,147,-0.717073170731707,
1360438,7539.0625,-1600,0.980993255671367,-1680,-1.03004291845494,-15920,9.7608828939301,-9,2.5,-41,0.548780487804878,-11,0.670731707317073,-2,0.00869565217391304,-30,-0.130434782608696,146,-0.712195121951219,
1361078,7558.59375,-1568,0.96137339055794,-1664,-1.02023298589822,-15904,9.75107296137339,1,2.13414634146341,-35,-0.0609756097560976,-1,0.0609756097560976,-5,0.0217391304347826,-28,-0.121739130434783,146,-0.712195121951219,
1361718,7578.125,-1632,1.00061312078479,-1760,-1.0790925812385,-15968,9.79031269160024,7,1.70731707317073,-28,-0.426829268292683,-1,0.0609756097560976,-4,0.0173913043478261,-29,-0.126086956521739,144,-0.702439024390244,
1362358,7597.65625,-1632,1.00061312078479,-1776,-1.08890251379522,-16080,9.85898221949724,10,1.46341463414634,-24,-0.609756097560976,-2,0.121951219512195,-7,0.0304347826086957,-31,-0.134782608695652,145,-0.707317073170732,
1362998,7617.1875,-1568,0.96137339055794,-1904,-1.16738197424893,-15952,9.78050275904353,4,1.64634146341463,-27,-0.24390243902439,-5,0.304878048780488,-2,0.00869565217391304,-33,-0.143478260869565,147,-0.717073170731707,
1363638,7636.71875,-1616,0.990803188228081,-1792,-1.09871244635193,-15840,9.71183323114654,-16,1.70731707317073,-28,0.975609756097561,-18,1.09756097560976,-3,0.0130434782608696,-34,-0.147826086956522,147,-0.717073170731707,
1364278,7656.25,-1536,0.941753525444513,-1776,-1.08890251379522,-15744,9.65297363580625,-29,1.40243902439024,-23,1.76829268292683,-26,1.58536585365854,-3,0.0130434782608696,-28,-0.121739130434783,147,-0.717073170731707,
1364918,7675.78125,-1440,0.88289393010423,-1744,-1.06928264868179,-15824,9.70202329858982,-30,0.670731707317073,-11,1.82926829268293,-25,1.52439024390244,-3,0.0130434782608696,-32,-0.139130434782609,146,-0.712195121951219,
1365558,7695.3125,-1488,0.912323727774372,-1776,-1.08890251379522,-15904,9.75107296137339,-8,-0.24390243902439,4,0.487804878048781,-21,1.28048780487805,-5,0.0217391304347826,-24,-0.104347826086957,145,-0.707317073170732,
1366198,7714.84375,-1520,0.931943592887799,-1872,-1.1477621091355,-16064,9.84917228694053,11,-0.853658536585366,14,-0.670731707317073,-13,0.792682926829268,-4,0.0173913043478261,-30,-0.130434782608696,147,-0.717073170731707,
1366838,7734.375,-1680,1.03004291845494,-1936,-1.18700183936235,-16224,9.94727161250766,7,-0.914634146341463,15,-0.426829268292683,-19,1.15853658536585,-3,0.0130434782608696,-31,-0.134782608695652,146,-0.712195121951219,
1367478,7753.90625,-1696,1.03985285101165,-2016,-1.23605150214592,-16224,9.94727161250766,-24,-0.365853658536585,6,1.46341463414634,-21,1.28048780487805,-4,0.0173913043478261,-33,-0.143478260869565,147,-0.717073170731707,
1368118,7773.4375,-1632,1.00061312078479,-2096,-1.28510116492949,-16352,10.0257510729614,-41,0.365853658536585,-6,2.5,-26,1.58536585365854,-5,0.0217391304347826,-27,-0.117391304347826,144,-0.702439024390244,
1368758,7792.96875,-1552,0.951563458001226,-2000,-1.22624156958921,-16528,10.1336603310852,-42,1.09756097560976,-18,2.5609756097561,-32,1.95121951219512,-2,0.00869565217391304,-29,-0.126086956521739,144,-0.702439024390244,
1369398,7812.5,-1552,0.951563458001226,-1968,-1.20662170447578,-16464,10.0944206008584,-13,1.34146341463415,-22,0.792682926829268,-39,2.37804878048781,-5,0.0217391304347826,-28,-0.121739130434783,145,-0.707317073170732,
1370038,7832.03125,-1696,1.03985285101165,-1968,-1.20662170447578,-16352,10.0257510729614,14,1.89024390243902,-31,-0.853658536585366,-39,2.37804878048781,-6,0.0260869565217391,-26,-0.11304347826087,144,-0.702439024390244,
1370678,7851.5625,-1856,1.13795217657879,-1984,-1.2164316370325,-16336,10.0159411404047,28,2.37804878048781,-39,-1.70731707317073,-40,2.4390243902439,-4,0.0173913043478261,-33,-0.143478260869565,147,-0.717073170731707,
1371318,7871.09375,-1856,1.13795217657879,-2000,-1.22624156958921,-16368,10.0355610055181,12,2.37804878048781,-39,-0.731707317073171,-36,2.19512195121951,-7,0.0304347826086957,-26,-0.11304347826087,145,-0.707317073170732,
1371958,7890.625,-1792,1.09871244635193,-2128,-1.30472103004292,-16272,9.9767014101778,-4,2.5609756097561,-42,0.24390243902439,-34,2.07317073170732,-2,0.00869565217391304,-33,-0.143478260869565,147,-0.717073170731707,
1372598,7910.15625,-1744,1.06928264868179,-2048,-1.25567136725935,-16096,9.86879215205395,-4,2.5,-41,0.24390243902439,-31,1.89024390243902,-5,0.0217391304347826,-27,-0.117391304347826,146,-0.712195121951219,
1373238,7929.6875,-1744,1.06928264868179,-2016,-1.23605150214592,-16176,9.91784181483752,9,2.92682926829268,-48,-0.548780487804878,-27,1.64634146341463,-4,0.0173913043478261,-28,-0.121739130434783,146,-0.712195121951219,
1373878,7949.21875,-1776,1.08890251379522,-1968,-1.20662170447578,-16272,9.9767014101778,39,2.74390243902439,-45,-2.37804878048781,-24,1.46341463414634,-2,0.00869565217391304,-31,-0.134782608695652,146,-0.712195121951219,
1374518,7968.75,-2064,1.26548129981606,-2096,-1.28510116492949,-16272,9.9767014101778,75,2.86585365853659,-47,-4.57317073170732,-17,1.03658536585366,-2,0.00869565217391304,-29,-0.126086956521739,144,-0.702439024390244,
1375158,7988.28125,-2160,1.32434089515635,-2016,-1.23605150214592,-16288,9.98651134273452,80,3.17073170731707,-52,-4.87804878048781,-9,0.548780487804878,-5,0.0217391304347826,-27,-0.117391304347826,144,-0.702439024390244,
1375798,8007.8125,-2208,1.35377069282649,-2080,-1.27529123237278,-16320,10.0061312078479,65,3.23170731707317,-53,-3.96341463414634,-1,0.0609756097560976,-5,0.0217391304347826,-26,-0.11304347826087,144,-0.702439024390244,
1376438,8027.34375,-2128,1.30472103004292,-2128,-1.30472103004292,-16272,9.9767014101778,50,3.47560975609756,-57,-3.04878048780488,15,-0.914634146341463,-3,0.0130434782608696,-31,-0.134782608695652,144,-0.702439024390244,
1377078,8046.875,-2032,1.24586143470264,-2096,-1.28510116492949,-16224,9.94727161250766,29,3.59756097560976,-59,-1.76829268292683,26,-1.58536585365854,-3,0.0130434782608696,-30,-0.130434782608696,147,-0.717073170731707,
1377718,8066.40625,-1984,1.2164316370325,-2112,-1.2949110974862,-16208,9.93746167995095,18,3.35365853658537,-55,-1.09756097560976,33,-2.01219512195122,-2,0.00869565217391304,-28,-0.121739130434783,145,-0.707317073170732,
1378358,8085.9375,-2000,1.22624156958921,-1968,-1.20662170447578,-16224,9.94727161250766,16,3.29268292682927,-54,-0.975609756097561,38,-2.31707317073171,-2,0.00869565217391304,-30,-0.130434782608696,145,-0.707317073170732,
1378998,8105.46875,-1968,1.20662170447578,-2032,-1.24586143470264,-16160,9.90803188228081,-5,3.17073170731707,-52,0.304878048780488,37,-2.25609756097561,-6,0.0260869565217391,-27,-0.117391304347826,144,-0.702439024390244,
1379638,8125,-1792,1.09871244635193,-2032,-1.24586143470264,-16128,9.88841201716738,-21,3.59756097560976,-59,1.28048780487805,36,-2.19512195121951,-3,0.0130434782608696,-32,-0.139130434782609,146,-0.712195121951219,
1380278,8144.53125,-1696,1.03985285101165,-2000,-1.22624156958921,-16144,9.89822194972409,-15,3.90243902439024,-64,0.914634146341463,35,-2.13414634146341,-1,0.00434782608695652,-32,-0.139130434782609,146,-0.712195121951219,
1380918,8164.0625,-1632,1.00061312078479,-2048,-1.25567136725935,-16096,9.86879215205395,6,3.65853658536585,-60,-0.365853658536585,32,-1.95121951219512,-2,0.00869565217391304,-32,-0.139130434782609,145,-0.707317073170732,
1381558,8183.59375,-1696,1.03985285101165,-2048,-1.25567136725935,-16032,9.8295524218271,4,3.71951219512195,-61,-0.24390243902439,20,-1.21951219512195,-4,0.0173913043478261,-29,-0.126086956521739,146,-0.712195121951219,
1382198,8203.125,-1760,1.0790925812385,-1968,-1.20662170447578,-15952,9.78050275904353,-15,3.96341463414634,-65,0.914634146341463,11,-0.670731707317073,-4,0.0173913043478261,-29,-0.126086956521739,146,-0.712195121951219,
1382838,8222.65625,-1696,1.03985285101165,-1952,-1.19681177191907,-15984,9.80012262415696,-29,3.84146341463415,-63,1.76829268292683,5,-0.304878048780488,-4,0.0173913043478261,-33,-0.143478260869565,147,-0.717073170731707,
1383478,8242.1875,-1616,0.990803188228081,-1984,-1.2164316370325,-16000,9.80993255671367,-15,3.53658536585366,-58,0.914634146341463,7,-0.426829268292683,-1,0.00434782608695652,-33,-0.143478260869565,146,-0.712195121951219,
1384118,8261.71875,-1728,1.05947271612508,-1936,-1.18700183936235,-16016,9.81974248927039,15,3.35365853658537,-55,-0.914634146341463,11,-0.670731707317073,-4,0.0173913043478261,-27,-0.117391304347826,145,-0.707317073170732,
1384758,8281.25,-1808,1.10852237890864,-1872,-1.1477621091355,-15936,9.77069282648682,-4,3.29268292682927,-54,0.24390243902439,10,-0.609756097560976,-2,0.00869565217391304,-28,-0.121739130434783,145,-0.707317073170732,
1385398,8300.78125,-1744,1.06928264868179,-1904,-1.16738197424893,-15920,9.7608828939301,-15,3.23170731707317,-53,0.914634146341463,10,-0.609756097560976,-3,0.0130434782608696,-30,-0.130434782608696,147,-0.717073170731707,
1386038,8320.3125,-1744,1.06928264868179,-1840,-1.12814224402207,-15952,9.78050275904353,-5,2.92682926829268,-48,0.304878048780488,5,-0.304878048780488,-4,0.0173913043478261,-33,-0.143478260869565,147,-0.717073170731707,
1386678,8339.84375,-1792,1.09871244635193,-1840,-1.12814224402207,-16112,9.87860208461067,11,2.98780487804878,-49,-0.670731707317073,-1,0.0609756097560976,-1,0.00434782608695652,-31,-0.134782608695652,145,-0.707317073170732,
1387318,8359.375,-2016,1.23605150214592,-1856,-1.13795217657879,-16160,9.90803188228081,-11,2.98780487804878,-49,0.670731707317073,-1,0.0609756097560976,-2,0.00869565217391304,-32,-0.139130434782609,145,-0.707317073170732,
1387958,8378.90625,-2080,1.27529123237278,-1888,-1.15757204169221,-16192,9.92765174739424,-18,3.04878048780488,-50,1.09756097560976,7,-0.426829268292683,-3,0.0130434782608696,-30,-0.130434782608696,146,-0.712195121951219,
1388598,8398.4375,-1936,1.18700183936235,-1904,-1.16738197424893,-16128,9.88841201716738,-8,2.68292682926829,-44,0.487804878048781,22,-1.34146341463415,-4,0.0173913043478261,-26,-0.11304347826087,145,-0.707317073170732,
1389238,8417.96875,-1904,1.16738197424893,-1840,-1.12814224402207,-16144,9.89822194972409,16,2.5,-41,-0.975609756097561,35,-2.13414634146341,-4,0.0173913043478261,-30,-0.130434782608696,145,-0.707317073170732,
1389878,8437.5,-1808,1.10852237890864,-1872,-1.1477621091355,-16208,9.93746167995095,40,1.64634146341463,-27,-2.4390243902439,43,-2.6219512195122,-2,0.00869565217391304,-32,-0.139130434782609,146,-0.712195121951219,
1390518,8457.03125,-1904,1.16738197424893,-1840,-1.12814224402207,-16176,9.91784181483752,48,1.64634146341463,-27,-2.92682926829268,48,-2.92682926829268,-4,0.0173913043478261,-30,-0.130434782608696,146,-0.712195121951219,
1391158,8476.5625,-1792,1.09871244635193,-1856,-1.13795217657879,-16144,9.89822194972409,17,1.58536585365854,-26,-1.03658536585366,41,-2.5,-5,0.0217391304347826,-27,-0.117391304347826,144,-0.702439024390244,
1391798,8496.09375,-1680,1.03004291845494,-1904,-1.16738197424893,-16128,9.88841201716738,2,2.37804878048781,-39,-0.121951219512195,41,-2.5,-3,0.0130434782608696,-26,-0.11304347826087,143,-0.697560975609756,
1392438,8515.625,-1600,0.980993255671367,-1920,-1.17719190680564,-16048,9.83936235438381,10,2.13414634146341,-35,-0.609756097560976,28,-1.70731707317073,-2,0.00869565217391304,-33,-0.143478260869565,146,-0.712195121951219,
1393078,8535.15625,-1584,0.971183323114654,-2032,-1.24586143470264,-16048,9.83936235438381,24,2.19512195121951,-36,-1.46341463414634,22,-1.34146341463415,-1,0.00434782608695652,-30,-0.130434782608696,146,-0.712195121951219,
1393718,8554.6875,-1632,1.00061312078479,-2032,-1.24586143470264,-16096,9.86879215205395,22,2.5,-41,-1.34146341463415,12,-0.731707317073171,-2,0.00869565217391304,-31,-0.134782608695652,146,-0.712195121951219,
1394358,8574.21875,-1616,0.990803188228081,-2000,-1.22624156958921,-16096,9.86879215205395,-17,2.6219512195122,-43,1.03658536585366,1,-0.0609756097560976,-3,0.0130434782608696,-31,-0.134782608695652,146,-0.712195121951219,
1394998,8593.75,-1712,1.04966278356836,-2016,-1.23605150214592,-16112,9.87860208461067,-34,2.5609756097561,-42,2.07317073170732,-8,0.487804878048781,-2,0.00869565217391304,-32,-0.139130434782609,146,-0.712195121951219,
1395638,8613.28125,-1760,1.0790925812385,-2064,-1.26548129981606,-16096,9.86879215205395,-46,2.92682926829268,-48,2.80487804878049,-7,0.426829268292683,-4,0.0173913043478261,-27,-0.117391304347826,145,-0.707317073170732,
1396278,8632.8125,-1856,1.13795217657879,-1920,-1.17719190680564,-16160,9.90803188228081,-93,3.23170731707317,-53,5.67073170731707,-13,0.792682926829268,-4,0.0173913043478261,-28,-0.121739130434783,144,-0.702439024390244,
1396918,8652.34375,-1728,1.05947271612508,-1808,-1.10852237890864,-16352,10.0257510729614,-126,3.65853658536585,-60,7.68292682926829,-27,1.64634146341463,-3,0.0130434782608696,-28,-0.121739130434783,147,-0.717073170731707,
1397558,8671.875,-1632,1.00061312078479,-1920,-1.17719190680564,-16384,10.0453709380748,-121,3.84146341463415,-63,7.37804878048781,-23,1.40243902439024,-4,0.0173913043478261,-29,-0.126086956521739,147,-0.717073170731707,
1398198,8691.40625,-1808,1.10852237890864,-2032,-1.24586143470264,-16496,10.1140404659718,-50,4.14634146341463,-68,3.04878048780488,-8,0.487804878048781,-5,0.0217391304347826,-34,-0.147826086956522,147,-0.717073170731707,
1398838,8710.9375,-1712,1.04966278356836,-2000,-1.22624156958921,-16384,10.0453709380748,-38,4.26829268292683,-70,2.31707317073171,-1,0.0609756097560976,-2,0.00869565217391304,-32,-0.139130434782609,148,-0.721951219512195,
1399478,8730.46875,-1584,0.971183323114654,-2048,-1.25567136725935,-16352,10.0257510729614,-19,4.20731707317073,-69,1.15853658536585,7,-0.426829268292683,-2,0.00869565217391304,-29,-0.126086956521739,145,-0.707317073170732,
1400118,8750,-1680,1.03004291845494,-2064,-1.26548129981606,-16160,9.90803188228081,27,4.14634146341463,-68,-1.64634146341463,3,-0.182926829268293,-1,0.00434782608695652,-31,-0.134782608695652,146,-0.712195121951219,
1400758,8769.53125,-1808,1.10852237890864,-2080,-1.27529123237278,-16080,9.85898221949724,26,4.08536585365854,-67,-1.58536585365854,-4,0.24390243902439,-1,0.00434782608695652,-32,-0.139130434782609,147,-0.717073170731707,
1401398,8789.0625,-1664,1.02023298589822,-1888,-1.15757204169221,-16096,9.86879215205395,4,4.51219512195122,-74,-0.24390243902439,-14,0.853658536585366,-2,0.00869565217391304,-33,-0.143478260869565,147,-0.717073170731707,
1402038,8808.59375,-1632,1.00061312078479,-1936,-1.18700183936235,-15984,9.80012262415696,16,4.45121951219512,-73,-0.975609756097561,-13,0.792682926829268,-1,0.00434782608695652,-31,-0.134782608695652,146,-0.712195121951219,
1402678,8828.125,-1824,1.11833231146536,-1904,-1.16738197424893,-15904,9.75107296137339,45,4.32926829268293,-71,-2.74390243902439,-16,0.975609756097561,-3,0.0130434782608696,-33,-0.143478260869565,146,-0.712195121951219,
1403318,8847.65625,-1904,1.16738197424893,-1872,-1.1477621091355,-15904,9.75107296137339,26,4.20731707317073,-69,-1.58536585365854,-12,0.731707317073171,-3,0.0130434782608696,-34,-0.147826086956522,146,-0.712195121951219,
1403958,8867.1875,-1840,1.12814224402207,-1888,-1.15757204169221,-15824,9.70202329858982,-7,3.78048780487805,-62,0.426829268292683,-17,1.03658536585366,-1,0.00434782608695652,-33,-0.143478260869565,146,-0.712195121951219,
1404598,8886.71875,-1792,1.09871244635193,-1872,-1.1477621091355,-15792,9.6824034334764,-24,3.53658536585366,-58,1.46341463414634,-10,0.609756097560976,-2,0.00869565217391304,-34,-0.147826086956522,147,-0.717073170731707,
1405238,8906.25,-1648,1.01042305334151,-1808,-1.10852237890864,-15808,9.69221336603311,-26,3.23170731707317,-53,1.58536585365854,-4,0.24390243902439,-4,0.0173913043478261,-30,-0.130434782608696,147,-0.717073170731707,
1405878,8925.78125,-1568,0.96137339055794,-1872,-1.1477621091355,-15760,9.66278356836297,-4,2.25609756097561,-37,0.24390243902439,-4,0.24390243902439,-3,0.0130434782608696,-31,-0.134782608695652,146,-0.712195121951219,
1406518,8945.3125,-1648,1.01042305334151,-1872,-1.1477621091355,-15808,9.69221336603311,19,1.34146341463415,-22,-1.15853658536585,-5,0.304878048780488,-2,0.00869565217391304,-33,-0.143478260869565,147,-0.717073170731707,
1407158,8964.84375,-1808,1.10852237890864,-1888,-1.15757204169221,-15920,9.7608828939301,24,1.21951219512195,-20,-1.46341463414634,-9,0.548780487804878,-3,0.0130434782608696,-33,-0.143478260869565,147,-0.717073170731707,
1407798,8984.375,-1728,1.05947271612508,-1936,-1.18700183936235,-15952,9.78050275904353,-8,1.40243902439024,-23,0.487804878048781,-10,0.609756097560976,-6,0.0260869565217391,-28,-0.121739130434783,144,-0.702439024390244,
1408438,9003.90625,-1808,1.10852237890864,-1824,-1.11833231146536,-16080,9.85898221949724,-39,1.46341463414634,-24,2.37804878048781,-7,0.426829268292683,-4,0.0173913043478261,-29,-0.126086956521739,145,-0.707317073170732,
1409078,9023.4375,-1776,1.08890251379522,-1936,-1.18700183936235,-16208,9.93746167995095,-41,1.34146341463415,-22,2.5,-12,0.731707317073171,-5,0.0217391304347826,-28,-0.121739130434783,144,-0.702439024390244,
1409718,9042.96875,-1824,1.11833231146536,-1904,-1.16738197424893,-16272,9.9767014101778,-14,1.28048780487805,-21,0.853658536585366,-3,0.182926829268293,-4,0.0173913043478261,-32,-0.139130434782609,145,-0.707317073170732,
1410358,9062.5,-1664,1.02023298589822,-1936,-1.18700183936235,-16304,9.99632127529123,6,1.58536585365854,-26,-0.365853658536585,6,-0.365853658536585,-6,0.0260869565217391,-26,-0.11304347826087,144,-0.702439024390244,
1410998,9082.03125,-1808,1.10852237890864,-1968,-1.20662170447578,-16320,10.0061312078479,29,1.28048780487805,-21,-1.76829268292683,7,-0.426829268292683,-3,0.0130434782608696,-33,-0.143478260869565,146,-0.712195121951219,
1411638,9101.5625,-1824,1.11833231146536,-1968,-1.20662170447578,-16368,10.0355610055181,45,1.34146341463415,-22,-2.74390243902439,6,-0.365853658536585,-3,0.0130434782608696,-28,-0.121739130434783,147,-0.717073170731707,
1412278,9121.09375,-1808,1.10852237890864,-2064,-1.26548129981606,-16352,10.0257510729614,21,2.13414634146341,-35,-1.28048780487805,3,-0.182926829268293,-3,0.0130434782608696,-27,-0.117391304347826,144,-0.702439024390244,
1412918,9140.625,-1824,1.11833231146536,-2016,-1.23605150214592,-16384,10.0453709380748,10,2.68292682926829,-44,-0.609756097560976,4,-0.24390243902439,-4,0.0173913043478261,-33,-0.143478260869565,147,-0.717073170731707,
1413558,9160.15625,-1824,1.11833231146536,-2016,-1.23605150214592,-16368,10.0355610055181,27,3.17073170731707,-52,-1.64634146341463,4,-0.24390243902439,-5,0.0217391304347826,-32,-0.139130434782609,146,-0.712195121951219,
1414198,9179.6875,-1712,1.04966278356836,-2016,-1.23605150214592,-16368,10.0355610055181,31,3.29268292682927,-54,-1.89024390243902,1,-0.0609756097560976,-2,0.00869565217391304,-30,-0.130434782608696,145,-0.707317073170732,
1414838,9199.21875,-1872,1.1477621091355,-2000,-1.22624156958921,-16256,9.96689147762109,19,3.59756097560976,-59,-1.15853658536585,-1,0.0609756097560976,-4,0.0173913043478261,-28,-0.121739130434783,144,-0.702439024390244,
1415478,9218.75,-1968,1.20662170447578,-2032,-1.24586143470264,-16176,9.91784181483752,-12,3.59756097560976,-59,0.731707317073171,-1,0.0609756097560976,-4,0.0173913043478261,-28,-0.121739130434783,143,-0.697560975609756,
1416118,9238.28125,-1792,1.09871244635193,-2016,-1.23605150214592,-16176,9.91784181483752,-18,3.41463414634146,-56,1.09756097560976,0,0,-3,0.0130434782608696,-28,-0.121739130434783,144,-0.702439024390244,
1416758,9257.8125,-1712,1.04966278356836,-1920,-1.17719190680564,-16160,9.90803188228081,6,3.35365853658537,-55,-0.365853658536585,4,-0.24390243902439,-2,0.00869565217391304,-30,-0.130434782608696,145,-0.707317073170732,
1417398,9277.34375,-1728,1.05947271612508,-1888,-1.15757204169221,-16128,9.88841201716738,17,3.59756097560976,-59,-1.03658536585366,3,-0.182926829268293,-2,0.00869565217391304,-31,-0.134782608695652,146,-0.712195121951219,
1418038,9296.875,-1664,1.02023298589822,-1952,-1.19681177191907,-16192,9.92765174739424,21,3.71951219512195,-61,-1.28048780487805,2,-0.121951219512195,-3,0.0130434782608696,-33,-0.143478260869565,146,-0.712195121951219,
1418678,9316.40625,-1808,1.10852237890864,-2032,-1.24586143470264,-16128,9.88841201716738,4,3.96341463414634,-65,-0.24390243902439,-6,0.365853658536585,-4,0.0173913043478261,-29,-0.126086956521739,146,-0.712195121951219,
1419318,9335.9375,-1808,1.10852237890864,-1888,-1.15757204169221,-16080,9.85898221949724,-33,4.20731707317073,-69,2.01219512195122,-14,0.853658536585366,-5,0.0217391304347826,-33,-0.143478260869565,146,-0.712195121951219,
1419958,9355.46875,-1632,1.00061312078479,-1888,-1.15757204169221,-15984,9.80012262415696,-13,3.59756097560976,-59,0.792682926829268,-10,0.609756097560976,-1,0.00434782608695652,-33,-0.143478260869565,147,-0.717073170731707,
1420598,9375,-1648,1.01042305334151,-1952,-1.19681177191907,-15936,9.77069282648682,20,2.98780487804878,-49,-1.21951219512195,-1,0.0609756097560976,-4,0.0173913043478261,-29,-0.126086956521739,146,-0.712195121951219,
1421238,9394.53125,-1792,1.09871244635193,-1968,-1.20662170447578,-16016,9.81974248927039,8,2.98780487804878,-49,-0.487804878048781,-3,0.182926829268293,-3,0.0130434782608696,-29,-0.126086956521739,146,-0.712195121951219,
1421878,9414.0625,-1840,1.12814224402207,-1920,-1.17719190680564,-16048,9.83936235438381,-13,2.92682926829268,-48,0.792682926829268,-5,0.304878048780488,-3,0.0130434782608696,-26,-0.11304347826087,144,-0.702439024390244,
1422518,9433.59375,-1840,1.12814224402207,-1856,-1.13795217657879,-16176,9.91784181483752,-11,3.29268292682927,-54,0.670731707317073,-1,0.0609756097560976,-2,0.00869565217391304,-27,-0.117391304347826,144,-0.702439024390244,
1423158,9453.125,-1728,1.05947271612508,-1936,-1.18700183936235,-16208,9.93746167995095,7,3.41463414634146,-56,-0.426829268292683,1,-0.0609756097560976,-2,0.00869565217391304,-29,-0.126086956521739,146,-0.712195121951219,
1423798,9472.65625,-1904,1.16738197424893,-1936,-1.18700183936235,-16112,9.87860208461067,-8,3.53658536585366,-58,0.487804878048781,-4,0.24390243902439,-3,0.0130434782608696,-29,-0.126086956521739,145,-0.707317073170732,
1424438,9492.1875,-1840,1.12814224402207,-1824,-1.11833231146536,-16080,9.85898221949724,-14,3.41463414634146,-56,0.853658536585366,-4,0.24390243902439,-4,0.0173913043478261,-31,-0.134782608695652,147,-0.717073170731707,
1425078,9511.71875,-1840,1.12814224402207,-1728,-1.05947271612508,-16128,9.88841201716738,10,3.10975609756098,-51,-0.609756097560976,-5,0.304878048780488,-5,0.0217391304347826,-29,-0.126086956521739,146,-0.712195121951219,
1425718,9531.25,-1936,1.18700183936235,-1856,-1.13795217657879,-16288,9.98651134273452,11,3.17073170731707,-52,-0.670731707317073,-7,0.426829268292683,-4,0.0173913043478261,-32,-0.139130434782609,145,-0.707317073170732,
1426358,9550.78125,-1968,1.20662170447578,-1888,-1.15757204169221,-16192,9.92765174739424,-12,3.84146341463415,-63,0.731707317073171,-6,0.365853658536585,-2,0.00869565217391304,-33,-0.143478260869565,146,-0.712195121951219,
1426998,9570.3125,-1856,1.13795217657879,-1776,-1.08890251379522,-16160,9.90803188228081,-9,3.96341463414634,-65,0.548780487804878,-4,0.24390243902439,-3,0.0130434782608696,-31,-0.134782608695652,146,-0.712195121951219,
1427638,9589.84375,-1776,1.08890251379522,-1936,-1.18700183936235,-16144,9.89822194972409,16,3.65853658536585,-60,-0.975609756097561,5,-0.304878048780488,-3,0.0130434782608696,-28,-0.121739130434783,147,-0.717073170731707,
1428278,9609.375,-1856,1.13795217657879,-1904,-1.16738197424893,-16032,9.8295524218271,5,3.41463414634146,-56,-0.304878048780488,0,0,-4,0.0173913043478261,-24,-0.104347826086957,144,-0.702439024390244,
1428918,9628.90625,-1840,1.12814224402207,-1888,-1.15757204169221,-16112,9.87860208461067,-12,3.35365853658537,-55,0.731707317073171,-5,0.304878048780488,-5,0.0217391304347826,-26,-0.11304347826087,144,-0.702439024390244,
1429558,9648.4375,-1792,1.09871244635193,-1872,-1.1477621091355,-16032,9.8295524218271,-5,3.35365853658537,-55,0.304878048780488,-3,0.182926829268293,-4,0.0173913043478261,-31,-0.134782608695652,144,-0.702439024390244,
1430198,9667.96875,-1872,1.1477621091355,-1904,-1.16738197424893,-15984,9.80012262415696,8,3.10975609756098,-51,-0.487804878048781,2,-0.121951219512195,-3,0.0130434782608696,-30,-0.130434782608696,145,-0.707317073170732,
1430838,9687.5,-1856,1.13795217657879,-1888,-1.15757204169221,-16048,9.83936235438381,-3,3.10975609756098,-51,0.182926829268293,4,-0.24390243902439,-2,0.00869565217391304,-33,-0.143478260869565,147,-0.717073170731707,
1431478,9707.03125,-1888,1.15757204169221,-1760,-1.0790925812385,-16048,9.83936235438381,-3,2.86585365853659,-47,0.182926829268293,2,-0.121951219512195,-2,0.00869565217391304,-32,-0.139130434782609,147,-0.717073170731707,
1432118,9726.5625,-1792,1.09871244635193,-1808,-1.10852237890864,-16032,9.8295524218271,8,2.68292682926829,-44,-0.487804878048781,6,-0.365853658536585,-4,0.0173913043478261,-28,-0.121739130434783,145,-0.707317073170732,
1432758,9746.09375,-1856,1.13795217657879,-1872,-1.1477621091355,-16016,9.81974248927039,6,2.5609756097561,-42,-0.365853658536585,0,0,-2,0.00869565217391304,-32,-0.139130434782609,146,-0.712195121951219,
1433398,9765.625,-1840,1.12814224402207,-1744,-1.06928264868179,-16064,9.84917228694053,3,2.68292682926829,-44,-0.182926829268293,-2,0.121951219512195,-3,0.0130434782608696,-33,-0.143478260869565,147,-0.717073170731707,
1434038,9785.15625,-1744,1.06928264868179,-1744,-1.06928264868179,-16128,9.88841201716738,5,2.74390243902439,-45,-0.304878048780488,5,-0.304878048780488,-3,0.0130434782608696,-28,-0.121739130434783,145,-0.707317073170732,
1434678,9804.6875,-1888,1.15757204169221,-1840,-1.12814224402207,-16192,9.92765174739424,19,2.4390243902439,-40,-1.15853658536585,8,-0.487804878048781,-4,0.0173913043478261,-27,-0.117391304347826,145,-0.707317073170732,
1435318,9824.21875,-1984,1.2164316370325,-1840,-1.12814224402207,-16352,10.0257510729614,-7,2.98780487804878,-49,0.426829268292683,2,-0.121951219512195,-2,0.00869565217391304,-29,-0.126086956521739,144,-0.702439024390244,
1435958,9843.75,-1760,1.0790925812385,-1856,-1.13795217657879,-16464,10.0944206008584,-23,3.04878048780488,-50,1.40243902439024,1,-0.0609756097560976,-3,0.0130434782608696,-28,-0.121739130434783,146,-0.712195121951219,
1436598,9863.28125,-1776,1.08890251379522,-2032,-1.24586143470264,-16400,10.0551808706315,5,3.71951219512195,-61,-0.304878048780488,-5,0.304878048780488,-2,0.00869565217391304,-31,-0.134782608695652,145,-0.707317073170732,
1437238,9882.8125,-1888,1.15757204169221,-1904,-1.16738197424893,-16320,10.0061312078479,-6,4.32926829268293,-71,0.365853658536585,-9,0.548780487804878,-2,0.00869565217391304,-34,-0.147826086956522,146,-0.712195121951219,
1437878,9902.34375,-1904,1.16738197424893,-1824,-1.11833231146536,-16208,9.93746167995095,-35,4.51219512195122,-74,2.13414634146341,-12,0.731707317073171,-1,0.00434782608695652,-34,-0.147826086956522,147,-0.717073170731707,
1438518,9921.875,-1760,1.0790925812385,-1760,-1.0790925812385,-16064,9.84917228694053,-36,4.32926829268293,-71,2.19512195121951,-14,0.853658536585366,-1,0.00434782608695652,-30,-0.130434782608696,144,-0.702439024390244,
1439158,9941.40625,-1728,1.05947271612508,-1808,-1.10852237890864,-15984,9.80012262415696,-5,4.02439024390244,-66,0.304878048780488,-10,0.609756097560976,-2,0.00869565217391304,-30,-0.130434782608696,144,-0.702439024390244,
1439798,9960.9375,-1808,1.10852237890864,-1792,-1.09871244635193,-15936,9.77069282648682,2,3.90243902439024,-64,-0.121951219512195,-5,0.304878048780488,-4,0.0173913043478261,-29,-0.126086956521739,144,-0.702439024390244,
1440438,9980.46875,-1760,1.0790925812385,-1712,-1.04966278356836,-15952,9.78050275904353,-10,3.53658536585366,-58,0.609756097560976,-14,0.853658536585366,-3,0.0130434782608696,-33,-0.143478260869565,147,-0.717073170731707,
1441078,10000,-1760,1.0790925812385,-1728,-1.05947271612508,-15952,9.78050275904353,-3,3.17073170731707,-52,0.182926829268293,-6,0.365853658536585,-2,0.00869565217391304,-32,-0.139130434782609,146,-0.712195121951219,
1441718,10019.53125,-2464,1.51072961373391,-4464,-2.73697118332311,-24304,14.9012875536481,461,-379.573170731707,6225,-28.109756097561,538,-32.8048780487805,-3,0.0130434782608696,-33,-0.143478260869565,146,-0.712195121951219,
1442358,10039.0625,-4352,2.66830165542612,6240,3.82587369711833,-17904,10.9773145309626,1438,-32.0731707317073,526,-87.6829268292683,280,-17.0731707317073,1,-0.00434782608695652,-30,-0.130434782608696,143,-0.697560975609756,
1442998,10058.59375,-5968,3.6591048436542,-2064,-1.26548129981606,-15472,9.48620478234212,550,-1.76829268292683,29,-33.5365853658537,183,-11.1585365853659,2,-0.00869565217391304,-31,-0.134782608695652,140,-0.682926829268293,
1443638,10078.125,-6768,4.14960147148988,-1168,-0.716125076640098,-16096,9.86879215205395,-279,3.35365853658537,-55,17.0121951219512,254,-15.4878048780488,4,-0.0173913043478261,-31,-0.134782608695652,140,-0.682926829268293,
1444278,10097.65625,-7088,4.34580012262416,-3136,-1.92274678111588,-16656,10.2121397915389,-1309,19.390243902439,-318,79.8170731707317,85,-5.18292682926829,0,0,-28,-0.121739130434783,141,-0.68780487804878,
1444918,10117.1875,-3856,2.364193746168,-1792,-1.09871244635193,-16976,10.4083384426732,-1279,-0.548780487804878,9,77.9878048780488,-86,5.24390243902439,-1,0.00434782608695652,-28,-0.121739130434783,144,-0.702439024390244,
1445558,10136.71875,-1680,1.03004291845494,-1616,-0.990803188228081,-16368,10.0355610055181,-558,-8.04878048780488,132,34.0243902439024,186,-11.3414634146341,-2,0.00869565217391304,-29,-0.126086956521739,145,-0.707317073170732,
1446198,10156.25,-1680,1.03004291845494,-5168,-3.16860821581852,-17344,10.6339668914776,-307,1.70731707317073,-28,18.719512195122,93,-5.67073170731707,-1,0.00434782608695652,-33,-0.143478260869565,147,-0.717073170731707,
1446838,10175.78125,720,-0.441446965052115,-2336,-1.4322501532802,-17840,10.9380748007357,355,-3.41463414634146,56,-21.6463414634146,156,-9.51219512195122,-3,0.0130434782608696,-28,-0.121739130434783,145,-0.707317073170732,
1447478,10195.3125,-1792,1.09871244635193,-2720,-1.66768853464132,-17712,10.859595340282,225,0.731707317073171,-12,-13.719512195122,97,-5.91463414634146,-1,0.00434782608695652,-29,-0.126086956521739,146,-0.712195121951219,
1448118,10214.84375,-2000,1.22624156958921,-2448,-1.50091968117719,-17664,10.8301655426119,50,2.6219512195122,-43,-3.04878048780488,56,-3.41463414634146,-3,0.0130434782608696,-30,-0.130434782608696,146,-0.712195121951219,
1448758,10234.375,-2080,1.27529123237278,-2672,-1.63825873697118,-17520,10.7418761496015,-81,5.54878048780488,-91,4.9390243902439,21,-1.28048780487805,-3,0.0130434782608696,-29,-0.126086956521739,144,-0.702439024390244,
1449398,10253.90625,-1632,1.00061312078479,-2560,-1.56958920907419,-17152,10.5162477007971,-124,7.5609756097561,-124,7.5609756097561,0,0,-5,0.0217391304347826,-26,-0.11304347826087,143,-0.697560975609756,
1450038,10273.4375,-1168,0.716125076640098,-2528,-1.54996934396076,-16800,10.3004291845494,-14,8.35365853658537,-137,0.853658536585366,-15,0.914634146341463,-3,0.0130434782608696,-28,-0.121739130434783,145,-0.707317073170732,
1450678,10292.96875,-1280,0.784794604537094,-2384,-1.46167995095034,-16592,10.1729000613121,58,9.08536585365854,-149,-3.53658536585366,-16,0.975609756097561,-2,0.00869565217391304,-29,-0.126086956521739,146,-0.712195121951219,
1451318,10312.5,-1488,0.912323727774372,-2416,-1.48129981606376,-16368,10.0355610055181,60,9.20731707317073,-151,-3.65853658536585,-20,1.21951219512195,-3,0.0130434782608696,-28,-0.121739130434783,147,-0.717073170731707,
1451958,10332.03125,-1808,1.10852237890864,-2384,-1.46167995095034,-16096,9.86879215205395,-24,9.81707317073171,-161,1.46341463414634,-49,2.98780487804878,-1,0.00434782608695652,-34,-0.147826086956522,146,-0.712195121951219,
1452598,10351.5625,-1904,1.16738197424893,-2192,-1.34396076026977,-15936,9.77069282648682,-143,9.9390243902439,-163,8.71951219512195,-72,4.39024390243902,-1,0.00434782608695652,-34,-0.147826086956522,147,-0.717073170731707,
1453238,10371.09375,-1712,1.04966278356836,-2176,-1.33415082771306,-15776,9.67259350091968,-184,9.75609756097561,-160,11.219512195122,-83,5.0609756097561,-3,0.0130434782608696,-30,-0.130434782608696,145,-0.707317073170732,
1453878,10390.625,-1408,0.863274064990803,-2016,-1.23605150214592,-15568,9.5450643776824,-121,9.26829268292683,-152,7.37804878048781,-89,5.42682926829268,-4,0.0173913043478261,-28,-0.121739130434783,145,-0.707317073170732,
1454518,10410.15625,-1280,0.784794604537094,-1904,-1.16738197424893,-15520,9.51563458001226,-16,8.53658536585366,-140,0.975609756097561,-84,5.1219512195122,-3,0.0130434782608696,-29,-0.126086956521739,146,-0.712195121951219,
1455158,10429.6875,-1408,0.863274064990803,-1872,-1.1477621091355,-15568,9.5450643776824,53,7.25609756097561,-119,-3.23170731707317,-69,4.20731707317073,-4,0.0173913043478261,-32,-0.139130434782609,147,-0.717073170731707,
1455798,10449.21875,-1712,1.04966278356836,-1888,-1.15757204169221,-15584,9.55487431023912,59,6.09756097560976,-100,-3.59756097560976,-55,3.35365853658537,-4,0.0173913043478261,-29,-0.126086956521739,145,-0.707317073170732,
1456438,10468.75,-1824,1.11833231146536,-1776,-1.08890251379522,-15648,9.59411404046597,22,5.0609756097561,-83,-1.34146341463415,-45,2.74390243902439,-3,0.0130434782608696,-25,-0.108695652173913,146,-0.712195121951219,
1457078,10488.28125,-5840,3.58062538320049,-7312,-4.48313917841815,-9584,5.87614960147149,-778,-770.426829268293,12635,47.4390243902439,-1297,79.0853658536585,-3,0.0130434782608696,-34,-0.147826086956522,146,-0.712195121951219,
