Shimmer,Shimmer,Shimmer,Shimmer,Shimmer,Shimmer,Shimmer,Shimmer,Shimmer,Shimmer,Shimmer,Shimmer,Shimmer,Shimmer,Shimmer,Shimmer,Shimmer,Shimmer,Shimmer,Shimmer,
Timestamp,Timestamp,Wide Range Accelerometer X,Wide Range Accelerometer X,Wide Range Accelerometer Y,Wide Range Accelerometer Y,Wide Range Accelerometer Z,Wide Range Accelerometer Z,Gyroscope X,Gyroscope X,Gyroscope Y,Gyroscope Y,Gyroscope Z,Gyroscope Z,Magnetometer X,Magnetometer X,Magnetometer Y,Magnetometer Y,Magnetometer Z,Magnetometer Z,
RAW,CAL,RAW,CAL,RAW,CAL,RAW,CAL,RAW,CAL,RAW,CAL,RAW,CAL,RAW,CAL,RAW,CAL,RAW,CAL,
no units,mSecs,no units,m/(sec^2),no units,m/(sec^2),no units,m/(sec^2),no units,deg/sec,no units,deg/sec,no units,deg/sec,no units,local,no units,local,no units,local,
2922038,0,4304,-2.63887185775598,-15408,-9.44696505211527,-2896,1.77559779276517,-13,2.98780487804878,-49,0.792682926829268,-16,0.975609756097561,-56,0.243478260869565,39,0.169565217391304,119,-0.580487804878049,
2922678,19.53125,4304,-2.63887185775598,-15456,-9.47639484978541,-2736,1.67749846719804,-9,3.04878048780488,-50,0.548780487804878,-9,0.548780487804878,-56,0.243478260869565,40,0.173913043478261,120,-0.585365853658537,
2923318,39.0625,4352,-2.66830165542612,-15392,-9.43715511955855,-2864,1.75597792765175,-7,3.10975609756098,-51,0.426829268292683,-9,0.548780487804878,-56,0.243478260869565,42,0.182608695652174,120,-0.585365853658537,
2923958,58.59375,4352,-2.66830165542612,-15376,-9.42734518700184,-3008,1.84426732066217,-7,2.92682926829268,-48,0.426829268292683,-9,0.548780487804878,-54,0.234782608695652,41,0.178260869565217,120,-0.585365853658537,
2924598,78.125,4512,-2.76640098099326,-15520,-9.51563458001226,-3408,2.08951563458001,12,3.41463414634146,-56,-0.731707317073171,-16,0.975609756097561,-55,0.239130434782609,40,0.173913043478261,119,-0.580487804878049,
2925238,97.65625,4272,-2.61925199264255,-15744,-9.65297363580625,-4176,2.56039239730227,2,5.0609756097561,-83,-0.121951219512195,-37,2.25609756097561,-55,0.239130434782609,42,0.182608695652174,119,-0.580487804878049,
2925878,117.1875,4256,-2.60944206008584,-16016,-9.81974248927039,-4672,2.86450030656039,-144,9.26829268292683,-152,8.78048780487805,-84,5.1219512195122,-56,0.243478260869565,43,0.18695652173913,119,-0.580487804878049,
2926518,136.71875,5200,-3.18822808093194,-16256,-9.96689147762109,-5632,3.45309625996321,-254,14.8780487804878,-244,15.4878048780488,-131,7.98780487804878,-55,0.239130434782609,41,0.178260869565217,120,-0.585365853658537,
2927158,156.25,5840,-3.58062538320049,-16592,-10.1729000613121,-6640,4.07112201103617,-257,19.8780487804878,-326,15.6707317073171,-202,12.3170731707317,-58,0.252173913043478,41,0.178260869565217,121,-0.590243902439024,
2927798,175.78125,6560,-4.02207234825261,-16640,-10.2023298589822,-7552,4.63028816676885,-229,25.0609756097561,-411,13.9634146341463,-301,18.3536585365854,-57,0.247826086956522,43,0.18695652173913,121,-0.590243902439024,
2928438,195.3125,7248,-4.44389944819129,-16560,-10.1532801961987,-8272,5.07173513182097,-126,30.8536585365854,-506,7.68292682926829,-392,23.9024390243902,-58,0.252173913043478,40,0.173913043478261,122,-0.595121951219512,
2929078,214.84375,7440,-4.56161863887186,-16480,-10.1042305334151,-9024,5.53280196198651,83,38.9634146341463,-639,-5.0609756097561,-461,28.109756097561,-61,0.265217391304348,42,0.182608695652174,123,-0.6,
2929718,234.375,7184,-4.40465971796444,-16400,-10.0551808706315,-9648,5.91538933169834,197,48.6585365853659,-798,-12.0121951219512,-531,32.3780487804878,-61,0.265217391304348,46,0.2,124,-0.604878048780488,
2930358,253.90625,7664,-4.69895769466585,-16320,-10.0061312078479,-10016,6.14101778050276,147,56.7682926829268,-931,-8.96341463414634,-616,37.5609756097561,-60,0.260869565217391,37,0.160869565217391,125,-0.609756097560976,
2930998,273.4375,8720,-5.34641324340895,-16400,-10.0551808706315,-10544,6.46474555487431,179,63.7804878048781,-1046,-10.9146341463415,-690,42.0731707317073,-61,0.265217391304348,38,0.165217391304348,128,-0.624390243902439,
2931638,292.96875,10000,-6.13120784794604,-16256,-9.96689147762109,-10976,6.72961373390558,444,71.219512195122,-1168,-27.0731707317073,-751,45.7926829268293,-63,0.273913043478261,40,0.173913043478261,129,-0.629268292682927,
2932278,312.5,10288,-6.30778663396689,-16208,-9.93746167995095,-11664,7.15144083384427,807,78.1707317073171,-1282,-49.2073170731707,-787,47.9878048780488,-64,0.278260869565217,41,0.178260869565217,132,-0.64390243902439,
2932918,332.03125,9728,-5.96443899448191,-16000,-9.80993255671367,-12016,7.36725935009197,1022,86.5243902439024,-1419,-62.3170731707317,-824,50.2439024390244,-63,0.273913043478261,38,0.165217391304348,131,-0.639024390243902,
2933558,351.5625,9216,-5.65052115266707,-15696,-9.62354383813611,-11856,7.26916002452483,995,95.3048780487805,-1563,-60.6707317073171,-872,53.1707317073171,-62,0.269565217391304,34,0.147826086956522,135,-0.658536585365854,
2934198,371.09375,8800,-5.39546290619252,-15456,-9.47639484978541,-11360,6.96505211526671,852,103.353658536585,-1695,-51.9512195121951,-905,55.1829268292683,-65,0.282608695652174,35,0.152173913043478,137,-0.668292682926829,
2934838,390.625,8896,-5.4543225015328,-15104,-9.26057633353771,-10688,6.55303494788473,632,110.548780487805,-1813,-38.5365853658537,-950,57.9268292682927,-66,0.28695652173913,34,0.147826086956522,139,-0.678048780487805,
2935478,410.15625,9680,-5.93500919681177,-14752,-9.04475781729001,-10032,6.15082771305947,500,115.30487804878,-1891,-30.4878048780488,-986,60.1219512195122,-63,0.273913043478261,29,0.126086956521739,143,-0.697560975609756,
2936118,429.6875,10224,-6.26854690374004,-14560,-8.92703862660944,-9968,6.11158798283262,572,116.40243902439,-1909,-34.8780487804878,-997,60.7926829268293,-65,0.282608695652174,27,0.117391304347826,146,-0.712195121951219,
2936758,449.21875,10160,-6.22930717351318,-14272,-8.7504598405886,-9952,6.1017780502759,744,118.780487804878,-1948,-45.3658536585366,-993,60.5487804878049,-64,0.278260869565217,27,0.117391304347826,148,-0.721951219512195,
2937398,468.75,10048,-6.16063764561619,-13872,-8.50521152667075,-9632,5.90557939914163,890,119.69512195122,-1963,-54.2682926829268,-980,59.7560975609756,-65,0.282608695652174,23,0.1,151,-0.736585365853659,
2938038,488.28125,9360,-5.7388105456775,-13472,-8.25996321275291,-9136,5.60147148988351,997,118.536585365854,-1944,-60.7926829268293,-959,58.4756097560976,-66,0.28695652173913,19,0.0826086956521739,153,-0.746341463414634,
2938678,507.8125,8832,-5.41508277130595,-13008,-7.97547516860822,-9056,5.55242182709994,968,116.341463414634,-1908,-59.0243902439024,-953,58.109756097561,-64,0.278260869565217,18,0.0782608695652174,153,-0.746341463414634,
2939318,527.34375,8720,-5.34641324340895,-12496,-7.66155732679338,-9056,5.55242182709994,831,115.853658536585,-1900,-50.6707317073171,-951,57.9878048780488,-63,0.273913043478261,16,0.0695652173913043,156,-0.760975609756098,
2939958,546.875,8480,-5.19926425505825,-11936,-7.3182096873084,-9120,5.59166155732679,770,112.317073170732,-1842,-46.9512195121951,-953,58.109756097561,-60,0.260869565217391,9,0.0391304347826087,158,-0.770731707317073,
2940598,566.40625,8464,-5.18945432250153,-11184,-6.85714285714286,-9280,5.68976088289393,770,109.146341463415,-1790,-46.9512195121951,-945,57.6219512195122,-61,0.265217391304348,13,0.0565217391304348,161,-0.785365853658537,
2941238,585.9375,8336,-5.11097486204782,-10304,-6.3175965665236,-9712,5.9546290619252,850,103.59756097561,-1699,-51.8292682926829,-923,56.2804878048781,-62,0.269565217391304,10,0.0434782608695652,162,-0.790243902439024,
2941878,605.46875,7680,-4.70876762722256,-9552,-5.85652973635806,-10448,6.40588595953403,990,97.8048780487805,-1604,-60.3658536585366,-870,53.0487804878049,-60,0.260869565217391,13,0.0565217391304348,161,-0.785365853658537,
2942518,625,6944,-4.25751072961373,-8832,-5.41508277130595,-10704,6.56284488044145,1015,92.5609756097561,-1518,-61.890243902439,-794,48.4146341463415,-58,0.252173913043478,8,0.0347826086956522,161,-0.785365853658537,
2943158,644.53125,6640,-4.07112201103617,-7776,-4.76762722256284,-10976,6.72961373390558,883,87.6219512195122,-1437,-53.8414634146341,-736,44.8780487804878,-57,0.247826086956522,0,0,164,-0.8,
2943798,664.0625,6576,-4.03188228080932,-6896,-4.22808093194359,-11680,7.16125076640098,754,81.9512195121951,-1344,-45.9756097560976,-678,41.3414634146341,-56,0.243478260869565,-2,-0.00869565217391304,165,-0.804878048780488,
2944438,683.59375,6688,-4.10055180870631,-6448,-3.95340282035561,-12240,7.50459840588596,775,76.280487804878,-1251,-47.2560975609756,-598,36.4634146341463,-54,0.234782608695652,-1,-0.00434782608695652,165,-0.804878048780488,
2945078,703.125,6912,-4.23789086450031,-6240,-3.82587369711833,-12528,7.68117719190681,870,72.0731707317073,-1182,-53.0487804878049,-537,32.7439024390244,-50,0.217391304347826,-8,-0.0347826086956522,168,-0.819512195121951,
2945718,722.65625,6608,-4.05150214592275,-5920,-3.62967504598406,-12416,7.61250766400981,997,69.5121951219512,-1140,-60.7926829268293,-476,29.0243902439024,-52,0.226086956521739,-6,-0.0260869565217391,166,-0.809756097560976,
2946358,742.1875,6016,-3.68853464132434,-5376,-3.29613733905579,-12448,7.63212752912324,1076,67.3170731707317,-1104,-65.609756097561,-412,25.1219512195122,-46,0.2,-9,-0.0391304347826087,167,-0.814634146341463,
2946998,761.71875,5568,-3.41385652973636,-4912,-3.0116492949111,-12384,7.59288779889638,1069,64.6951219512195,-1061,-65.1829268292683,-353,21.5243902439024,-46,0.2,-13,-0.0565217391304348,169,-0.824390243902439,
2947638,781.25,4592,-2.81545064377682,-4624,-2.83507050889025,-12304,7.54383813611281,1063,61.5243902439024,-1009,-64.8170731707317,-293,17.8658536585366,-44,0.191304347826087,-14,-0.0608695652173913,166,-0.809756097560976,
2948278,800.78125,3856,-2.364193746168,-4400,-2.69773145309626,-12064,7.39668914776211,1000,58.6585365853659,-962,-60.9756097560976,-228,13.9024390243902,-42,0.182608695652174,-16,-0.0695652173913043,167,-0.814634146341463,
2948918,820.3125,3424,-2.09932556713673,-4240,-2.59963212752912,-12016,7.36725935009197,870,55.609756097561,-912,-53.0487804878049,-192,11.7073170731707,-38,0.165217391304348,-14,-0.0608695652173913,165,-0.804878048780488,
2949558,839.84375,2976,-1.82464745554874,-4000,-2.45248313917842,-11712,7.18087063151441,758,52.2560975609756,-857,-46.219512195122,-147,8.96341463414634,-39,0.169565217391304,-22,-0.0956521739130435,167,-0.814634146341463,
2950198,859.375,2400,-1.47148988350705,-3504,-2.14837522992029,-11520,7.06315144083384,681,48.719512195122,-799,-41.5243902439024,-106,6.46341463414634,-34,0.147826086956522,-20,-0.0869565217391304,166,-0.809756097560976,
2950838,878.90625,2048,-1.25567136725935,-3392,-2.0797057020233,-11472,7.0337216431637,575,43.3536585365854,-711,-35.0609756097561,-61,3.71951219512195,-35,0.152173913043478,-23,-0.1,166,-0.809756097560976,
2951478,898.4375,1840,-1.12814224402207,-3440,-2.10913549969344,-11488,7.04353157572042,410,37.1341463414634,-609,-25,-60,3.65853658536585,-31,0.134782608695652,-20,-0.0869565217391304,163,-0.795121951219512,
2952118,917.96875,2000,-1.22624156958921,-3440,-2.10913549969344,-11744,7.20049049662784,214,32.8658536585366,-539,-13.0487804878049,-79,4.81707317073171,-32,0.139130434782609,-21,-0.091304347826087,166,-0.809756097560976,
2952758,937.5,1952,-1.19681177191907,-3408,-2.08951563458001,-11920,7.30839975475169,146,28.9634146341463,-475,-8.90243902439025,-85,5.18292682926829,-32,0.139130434782609,-20,-0.0869565217391304,166,-0.809756097560976,
2953398,957.03125,1808,-1.10852237890864,-2928,-1.7952176578786,-12112,7.42611894543225,164,26.890243902439,-441,-10,-86,5.24390243902439,-30,0.130434782608696,-27,-0.117391304347826,168,-0.819512195121951,
2954038,976.5625,1616,-0.990803188228081,-2624,-1.60882893930104,-12480,7.65174739423666,208,23.8414634146341,-391,-12.6829268292683,-80,4.87804878048781,-31,0.134782608695652,-28,-0.121739130434783,166,-0.809756097560976,
2954678,996.09375,1376,-0.843654199877376,-2448,-1.50091968117719,-12720,7.79889638258737,234,21.0975609756098,-346,-14.2682926829268,-57,3.47560975609756,-29,0.126086956521739,-25,-0.108695652173913,164,-0.8,
2955318,1015.625,1088,-0.66707541385653,-2304,-1.41263028816677,-12960,7.94604537093807,187,18.4756097560976,-303,-11.4024390243902,-49,2.98780487804878,-29,0.126086956521739,-26,-0.11304347826087,165,-0.804878048780488,
2955958,1035.15625,1264,-0.77498467198038,-2016,-1.23605150214592,-13280,8.14224402207235,88,15.6707317073171,-257,-5.36585365853659,-51,3.10975609756098,-29,0.126086956521739,-28,-0.121739130434783,166,-0.809756097560976,
2956598,1054.6875,1408,-0.863274064990803,-1632,-1.00061312078479,-13520,8.28939301042305,-11,12.5609756097561,-206,0.670731707317073,-46,2.80487804878049,-29,0.126086956521739,-27,-0.117391304347826,166,-0.809756097560976,
2957238,1074.21875,1792,-1.09871244635193,-1376,-0.843654199877376,-13760,8.43654199877376,-98,8.35365853658537,-137,5.97560975609756,-29,1.76829268292683,-28,0.121739130434783,-26,-0.11304347826087,165,-0.804878048780488,
2957878,1093.75,2144,-1.31453096259963,-1216,-0.745554874310239,-14080,8.63274064990803,-129,4.57317073170732,-75,7.86585365853659,3,-0.182926829268293,-28,0.121739130434783,-29,-0.126086956521739,165,-0.804878048780488,
2958518,1113.28125,2368,-1.45187001839362,-816,-0.500306560392397,-14144,8.67198038013489,-105,1.64634146341463,-27,6.40243902439024,41,-2.5,-31,0.134782608695652,-28,-0.121739130434783,164,-0.8,
2959158,1132.8125,2528,-1.54996934396076,-320,-0.196198651134273,-14432,8.84855916615573,-72,-1.64634146341463,27,4.39024390243902,88,-5.36585365853659,-29,0.126086956521739,-30,-0.130434782608696,164,-0.8,
2959798,1152.34375,2928,-1.7952176578786,-352,-0.215818516247701,-14752,9.04475781729001,44,-4.69512195121951,77,-2.68292682926829,172,-10.4878048780488,-28,0.121739130434783,-30,-0.130434782608696,165,-0.804878048780488,
2960438,1171.875,2896,-1.77559779276517,-288,-0.176578786020846,-15024,9.21152667075414,199,-6.40243902439024,105,-12.1341463414634,264,-16.0975609756098,-29,0.126086956521739,-25,-0.108695652173913,165,-0.804878048780488,
2961078,1191.40625,2480,-1.52053954629062,-96,-0.058859595340282,-15312,9.38810545677498,247,-7.07317073170732,116,-15.0609756097561,335,-20.4268292682927,-30,0.130434782608696,-25,-0.108695652173913,166,-0.809756097560976,
2961718,1210.9375,2512,-1.54015941140405,48,0.029429797670141,-15520,9.51563458001226,188,-9.02439024390244,148,-11.4634146341463,398,-24.2682926829268,-27,0.117391304347826,-29,-0.126086956521739,165,-0.804878048780488,
2962358,1230.46875,2736,-1.67749846719804,-208,-0.127529123237278,-15440,9.46658491722869,85,-10.7926829268293,177,-5.18292682926829,453,-27.6219512195122,-28,0.121739130434783,-30,-0.130434782608696,165,-0.804878048780488,
2962998,1250,2768,-1.69711833231147,-1104,-0.676885346413243,-15504,9.50582464745555,37,-11.890243902439,195,-2.25609756097561,519,-31.6463414634146,-28,0.121739130434783,-24,-0.104347826086957,163,-0.795121951219512,
2963638,1269.53125,3008,-1.84426732066217,-1728,-1.05947271612508,-15840,9.71183323114654,64,-11.0365853658537,181,-3.90243902439024,558,-34.0243902439024,-28,0.121739130434783,-29,-0.126086956521739,164,-0.8,
2964278,1289.0625,3088,-1.89331698344574,-1936,-1.18700183936235,-15936,9.77069282648682,137,-9.08536585365854,149,-8.35365853658537,578,-35.2439024390244,-27,0.117391304347826,-29,-0.126086956521739,163,-0.795121951219512,
2964918,1308.59375,3024,-1.85407725321888,-2160,-1.32434089515635,-15920,9.7608828939301,170,-8.17073170731707,134,-10.3658536585366,566,-34.5121951219512,-27,0.117391304347826,-29,-0.126086956521739,163,-0.795121951219512,
2965558,1328.125,2896,-1.77559779276517,-2432,-1.49110974862048,-16000,9.80993255671367,153,-8.10975609756098,133,-9.32926829268293,509,-31.0365853658537,-27,0.117391304347826,-27,-0.117391304347826,163,-0.795121951219512,
2966198,1347.65625,2752,-1.68730839975475,-2576,-1.5793991416309,-15936,9.77069282648682,154,-7.19512195121951,118,-9.39024390243902,427,-26.0365853658537,-26,0.11304347826087,-28,-0.121739130434783,163,-0.795121951219512,
2966838,1367.1875,2816,-1.72654812998161,-2624,-1.60882893930104,-15760,9.66278356836297,189,-5.73170731707317,94,-11.5243902439024,347,-21.1585365853659,-26,0.11304347826087,-29,-0.126086956521739,164,-0.8,
2967478,1386.71875,2752,-1.68730839975475,-2608,-1.59901900674433,-15648,9.59411404046597,283,-4.75609756097561,78,-17.2560975609756,282,-17.1951219512195,-26,0.11304347826087,-27,-0.117391304347826,161,-0.785365853658537,
2968118,1406.25,2560,-1.56958920907419,-2672,-1.63825873697118,-15824,9.70202329858982,422,-3.90243902439024,64,-25.7317073170732,236,-14.390243902439,-23,0.1,-30,-0.130434782608696,162,-0.790243902439024,
2968758,1425.78125,2240,-1.37339055793991,-2816,-1.72654812998161,-16096,9.86879215205395,563,-3.04878048780488,50,-34.3292682926829,194,-11.8292682926829,-23,0.1,-29,-0.126086956521739,160,-0.780487804878049,
2969398,1445.3125,1696,-1.03985285101165,-2736,-1.67749846719804,-16256,9.96689147762109,672,-1.82926829268293,30,-40.9756097560976,158,-9.63414634146342,-22,0.0956521739130435,-30,-0.130434782608696,161,-0.785365853658537,
2970038,1464.84375,1120,-0.686695278969957,-2656,-1.62844880441447,-16288,9.98651134273452,686,-0.670731707317073,11,-41.8292682926829,119,-7.25609756097561,-19,0.0826086956521739,-27,-0.117391304347826,159,-0.775609756097561,
2970678,1484.375,528,-0.323727774371551,-2832,-1.73635806253832,-16272,9.9767014101778,598,0.121951219512195,-2,-36.4634146341463,79,-4.81707317073171,-17,0.0739130434782609,-31,-0.134782608695652,159,-0.775609756097561,
2971318,1503.90625,352,-0.215818516247701,-2944,-1.80502759043532,-16240,9.95708154506438,467,1.28048780487805,-21,-28.4756097560976,47,-2.86585365853659,-17,0.0739130434782609,-26,-0.11304347826087,157,-0.765853658536585,
2971958,1523.4375,304,-0.18638871857756,-2656,-1.62844880441447,-16256,9.96689147762109,360,2.68292682926829,-44,-21.9512195121951,16,-0.975609756097561,-17,0.0739130434782609,-28,-0.121739130434783,159,-0.775609756097561,
2972598,1542.96875,320,-0.196198651134273,-2608,-1.59901900674433,-16320,10.0061312078479,322,3.65853658536585,-60,-19.6341463414634,20,-1.21951219512195,-17,0.0739130434782609,-25,-0.108695652173913,156,-0.760975609756098,
2973238,1562.5,224,-0.137339055793991,-2608,-1.59901900674433,-16352,10.0257510729614,322,4.02439024390244,-66,-19.6341463414634,36,-2.19512195121951,-16,0.0695652173913043,-31,-0.134782608695652,158,-0.770731707317073,
2973878,1582.03125,-48,0.029429797670141,-2464,-1.51072961373391,-16368,10.0355610055181,330,4.26829268292683,-70,-20.1219512195122,60,-3.65853658536585,-17,0.0739130434782609,-25,-0.108695652173913,155,-0.75609756097561,
2974518,1601.5625,-208,0.127529123237278,-2512,-1.54015941140405,-16528,10.1336603310852,280,4.75609756097561,-78,-17.0731707317073,70,-4.26829268292683,-16,0.0695652173913043,-27,-0.117391304347826,155,-0.75609756097561,
2975158,1621.09375,-240,0.147148988350705,-2560,-1.56958920907419,-16528,10.1336603310852,192,5,-82,-11.7073170731707,77,-4.69512195121951,-16,0.0695652173913043,-27,-0.117391304347826,154,-0.751219512195122,
2975798,1640.625,-256,0.156958920907419,-2688,-1.6480686695279,-16512,10.1238503985285,93,5.60975609756098,-92,-5.67073170731707,75,-4.57317073170732,-14,0.0608695652173913,-25,-0.108695652173913,154,-0.751219512195122,
2976438,1660.15625,-80,0.0490496627835684,-2528,-1.54996934396076,-16640,10.2023298589822,42,6.64634146341464,-109,-2.5609756097561,50,-3.04878048780488,-15,0.0652173913043478,-27,-0.117391304347826,154,-0.751219512195122,
2977078,1679.6875,32,-0.0196198651134273,-2640,-1.61863887185776,-16576,10.1630901287554,21,7.68292682926829,-126,-1.28048780487805,31,-1.89024390243902,-16,0.0695652173913043,-29,-0.126086956521739,155,-0.75609756097561,
2977718,1699.21875,48,-0.029429797670141,-2640,-1.61863887185776,-16528,10.1336603310852,45,8.65853658536586,-142,-2.74390243902439,21,-1.28048780487805,-15,0.0652173913043478,-26,-0.11304347826087,155,-0.75609756097561,
2978358,1718.75,64,-0.0392397302268547,-2640,-1.61863887185776,-16464,10.0944206008584,73,9.20731707317073,-151,-4.45121951219512,16,-0.975609756097561,-15,0.0652173913043478,-31,-0.134782608695652,157,-0.765853658536585,
2978998,1738.28125,16,-0.00980993255671367,-2512,-1.54015941140405,-16432,10.0748007357449,77,10.2439024390244,-168,-4.69512195121951,10,-0.609756097560976,-15,0.0652173913043478,-32,-0.139130434782609,155,-0.75609756097561,
2979638,1757.8125,-128,0.0784794604537094,-2400,-1.47148988350705,-16432,10.0748007357449,43,11.4024390243902,-187,-2.6219512195122,0,0,-11,0.0478260869565217,-34,-0.147826086956522,156,-0.760975609756098,
2980278,1777.34375,-96,0.058859595340282,-2272,-1.39301042305334,-16368,10.0355610055181,0,12.1341463414634,-199,0,0,0,-14,0.0608695652173913,-34,-0.147826086956522,155,-0.75609756097561,
2980918,1796.875,64,-0.0392397302268547,-2192,-1.34396076026977,-16144,9.89822194972409,-6,12.3780487804878,-203,0.365853658536585,10,-0.609756097560976,-14,0.0608695652173913,-28,-0.121739130434783,156,-0.760975609756098,
2981558,1816.40625,144,-0.088289393010423,-2112,-1.2949110974862,-16000,9.80993255671367,17,11.6463414634146,-191,-1.03658536585366,31,-1.89024390243902,-14,0.0608695652173913,-30,-0.130434782608696,157,-0.765853658536585,
2982198,1835.9375,32,-0.0196198651134273,-1888,-1.15757204169221,-15936,9.77069282648682,17,11.0975609756098,-182,-1.03658536585366,43,-2.6219512195122,-12,0.0521739130434783,-34,-0.147826086956522,156,-0.760975609756098,
2982838,1855.46875,96,-0.058859595340282,-1840,-1.12814224402207,-15904,9.75107296137339,5,10.7317073170732,-176,-0.304878048780488,51,-3.10975609756098,-14,0.0608695652173913,-30,-0.130434782608696,156,-0.760975609756098,
2983478,1875,176,-0.10790925812385,-1696,-1.03985285101165,-15872,9.73145309625996,-9,10.4268292682927,-171,0.548780487804878,51,-3.10975609756098,-13,0.0565217391304348,-33,-0.143478260869565,155,-0.75609756097561,
2984118,1894.53125,272,-0.166768853464132,-1728,-1.05947271612508,-15888,9.74126302881668,6,9.57317073170732,-157,-0.365853658536585,58,-3.53658536585366,-12,0.0521739130434783,-34,-0.147826086956522,156,-0.760975609756098,
2984758,1914.0625,352,-0.215818516247701,-1584,-0.971183323114654,-15792,9.6824034334764,38,9.14634146341463,-150,-2.31707317073171,56,-3.41463414634146,-14,0.0608695652173913,-33,-0.143478260869565,156,-0.760975609756098,
2985398,1933.59375,64,-0.0392397302268547,-1616,-0.990803188228081,-15728,9.64316370324954,55,8.96341463414634,-147,-3.35365853658537,62,-3.78048780487805,-13,0.0565217391304348,-36,-0.156521739130435,155,-0.75609756097561,
2986038,1953.125,-48,0.029429797670141,-1552,-0.951563458001226,-15520,9.51563458001226,-5,9.02439024390244,-148,0.304878048780488,33,-2.01219512195122,-12,0.0521739130434783,-34,-0.147826086956522,156,-0.760975609756098,
2986678,1972.65625,112,-0.0686695278969957,-1584,-0.971183323114654,-15504,9.50582464745555,-89,8.78048780487805,-144,5.42682926829268,6,-0.365853658536585,-15,0.0652173913043478,-33,-0.143478260869565,155,-0.75609756097561,
2987318,1992.1875,144,-0.088289393010423,-1408,-0.863274064990803,-15584,9.55487431023912,-106,8.53658536585366,-140,6.46341463414634,-7,0.426829268292683,-14,0.0608695652173913,-34,-0.147826086956522,155,-0.75609756097561,
2987958,2011.71875,240,-0.147148988350705,-1376,-0.843654199877376,-15584,9.55487431023912,-115,7.92682926829268,-130,7.01219512195122,-10,0.609756097560976,-14,0.0608695652173913,-35,-0.152173913043478,155,-0.75609756097561,
2988598,2031.25,160,-0.0980993255671367,-1328,-0.814224402207235,-15648,9.59411404046597,-82,7.31707317073171,-120,5,-3,0.182926829268293,-13,0.0565217391304348,-35,-0.152173913043478,156,-0.760975609756098,
2989238,2050.78125,176,-0.10790925812385,-1216,-0.745554874310239,-15616,9.57449417535254,-50,6.15853658536585,-101,3.04878048780488,14,-0.853658536585366,-14,0.0608695652173913,-35,-0.152173913043478,156,-0.760975609756098,
2989878,2070.3125,208,-0.127529123237278,-1312,-0.804414469650521,-15712,9.63335377069283,-19,4.08536585365854,-67,1.15853658536585,22,-1.34146341463415,-14,0.0608695652173913,-35,-0.152173913043478,157,-0.765853658536585,
2990518,2089.84375,320,-0.196198651134273,-1360,-0.833844267320662,-15920,9.7608828939301,-18,3.10975609756098,-51,1.09756097560976,12,-0.731707317073171,-14,0.0608695652173913,-32,-0.139130434782609,156,-0.760975609756098,
2991158,2109.375,304,-0.18638871857756,-1392,-0.853464132434089,-15904,9.75107296137339,-13,2.98780487804878,-49,0.792682926829268,0,0,-15,0.0652173913043478,-36,-0.156521739130435,156,-0.760975609756098,
2991798,2128.90625,288,-0.176578786020846,-1472,-0.902513795217658,-16064,9.84917228694053,-13,3.65853658536585,-60,0.792682926829268,-2,0.121951219512195,-15,0.0652173913043478,-29,-0.126086956521739,155,-0.75609756097561,
2992438,2148.4375,240,-0.147148988350705,-1520,-0.931943592887799,-16176,9.91784181483752,-32,4.32926829268293,-71,1.95121951219512,-3,0.182926829268293,-14,0.0608695652173913,-34,-0.147826086956522,157,-0.765853658536585,
2993078,2167.96875,128,-0.0784794604537094,-1456,-0.892703862660944,-16192,9.92765174739424,-78,4.69512195121951,-77,4.75609756097561,-2,0.121951219512195,-13,0.0565217391304348,-34,-0.147826086956522,157,-0.765853658536585,
2993718,2187.5,176,-0.10790925812385,-1408,-0.863274064990803,-16080,9.85898221949724,-106,4.20731707317073,-69,6.46341463414634,6,-0.365853658536585,-13,0.0565217391304348,-35,-0.152173913043478,156,-0.760975609756098,
2994358,2207.03125,320,-0.196198651134273,-1424,-0.873083997547517,-16144,9.89822194972409,-112,3.84146341463415,-63,6.82926829268293,6,-0.365853658536585,-14,0.0608695652173913,-32,-0.139130434782609,157,-0.765853658536585,
2994998,2226.5625,496,-0.304107909258124,-1344,-0.824034334763949,-16144,9.89822194972409,-116,3.65853658536585,-60,7.07317073170732,4,-0.24390243902439,-14,0.0608695652173913,-35,-0.152173913043478,156,-0.760975609756098,
2995638,2246.09375,496,-0.304107909258124,-1312,-0.804414469650521,-16208,9.93746167995095,-87,3.47560975609756,-57,5.30487804878049,0,0,-17,0.0739130434782609,-32,-0.139130434782609,156,-0.760975609756098,
2996278,2265.625,528,-0.323727774371551,-1232,-0.755364806866953,-16176,9.91784181483752,-48,3.23170731707317,-53,2.92682926829268,2,-0.121951219512195,-17,0.0739130434782609,-31,-0.134782608695652,154,-0.751219512195122,
2996918,2285.15625,480,-0.29429797670141,-1200,-0.735744941753525,-16192,9.92765174739424,-29,2.92682926829268,-48,1.76829268292683,16,-0.975609756097561,-16,0.0695652173913043,-33,-0.143478260869565,157,-0.765853658536585,
2997558,2304.6875,336,-0.206008583690987,-1296,-0.794604537093807,-16464,10.0944206008584,9,3.29268292682927,-54,-0.548780487804878,38,-2.31707317073171,-15,0.0652173913043478,-30,-0.130434782608696,156,-0.760975609756098,
2998198,2324.21875,336,-0.206008583690987,-1328,-0.814224402207235,-16480,10.1042305334151,12,3.53658536585366,-58,-0.731707317073171,46,-2.80487804878049,-15,0.0652173913043478,-34,-0.147826086956522,156,-0.760975609756098,
2998838,2343.75,256,-0.156958920907419,-1424,-0.873083997547517,-16496,10.1140404659718,4,3.53658536585366,-58,-0.24390243902439,52,-3.17073170731707,-17,0.0739130434782609,-33,-0.143478260869565,156,-0.760975609756098,
2999478,2363.28125,240,-0.147148988350705,-1504,-0.922133660331085,-16208,9.93746167995095,-11,3.17073170731707,-52,0.670731707317073,46,-2.80487804878049,-13,0.0565217391304348,-37,-0.160869565217391,157,-0.765853658536585,
3000118,2382.8125,272,-0.166768853464132,-1488,-0.912323727774372,-16160,9.90803188228081,-3,3.10975609756098,-51,0.182926829268293,27,-1.64634146341463,-14,0.0608695652173913,-39,-0.169565217391304,157,-0.765853658536585,
3000758,2402.34375,320,-0.196198651134273,-1632,-1.00061312078479,-16256,9.96689147762109,30,3.47560975609756,-57,-1.82926829268293,22,-1.34146341463415,-14,0.0608695652173913,-36,-0.156521739130435,156,-0.760975609756098,
3001398,2421.875,288,-0.176578786020846,-1648,-1.01042305334151,-16064,9.84917228694053,51,3.41463414634146,-56,-3.10975609756098,25,-1.52439024390244,-16,0.0695652173913043,-33,-0.143478260869565,156,-0.760975609756098,
3002038,2441.40625,224,-0.137339055793991,-1504,-0.922133660331085,-15888,9.74126302881668,74,2.98780487804878,-49,-4.51219512195122,24,-1.46341463414634,-15,0.0652173913043478,-36,-0.156521739130435,157,-0.765853658536585,
3002678,2460.9375,64,-0.0392397302268547,-1360,-0.833844267320662,-15888,9.74126302881668,67,2.13414634146341,-35,-4.08536585365854,24,-1.46341463414634,-14,0.0608695652173913,-35,-0.152173913043478,155,-0.75609756097561,
3003318,2480.46875,32,-0.0196198651134273,-1392,-0.853464132434089,-15872,9.73145309625996,63,1.70731707317073,-28,-3.84146341463415,32,-1.95121951219512,-15,0.0652173913043478,-34,-0.147826086956522,158,-0.770731707317073,
3003958,2500,-32,0.0196198651134273,-1344,-0.824034334763949,-15888,9.74126302881668,49,1.15853658536585,-19,-2.98780487804878,46,-2.80487804878049,-14,0.0608695652173913,-36,-0.156521739130435,156,-0.760975609756098,
3004598,2519.53125,48,-0.029429797670141,-1280,-0.784794604537094,-15856,9.72164316370325,54,0.670731707317073,-11,-3.29268292682927,58,-3.53658536585366,-15,0.0652173913043478,-31,-0.134782608695652,155,-0.75609756097561,
3005238,2539.0625,80,-0.0490496627835684,-1344,-0.824034334763949,-16048,9.83936235438381,42,0.121951219512195,-2,-2.5609756097561,69,-4.20731707317073,-13,0.0565217391304348,-38,-0.165217391304348,158,-0.770731707317073,
3005878,2558.59375,0,0,-1392,-0.853464132434089,-16048,9.83936235438381,34,-0.121951219512195,2,-2.07317073170732,85,-5.18292682926829,-13,0.0565217391304348,-36,-0.156521739130435,156,-0.760975609756098,
3006518,2578.125,-112,0.0686695278969957,-1504,-0.922133660331085,-16080,9.85898221949724,-24,0.365853658536585,-6,1.46341463414634,94,-5.73170731707317,-14,0.0608695652173913,-34,-0.147826086956522,156,-0.760975609756098,
3007158,2597.65625,-160,0.0980993255671367,-1504,-0.922133660331085,-15984,9.80012262415696,-101,0.609756097560976,-10,6.15853658536585,98,-5.97560975609756,-14,0.0608695652173913,-39,-0.169565217391304,157,-0.765853658536585,
3007798,2617.1875,80,-0.0490496627835684,-1424,-0.873083997547517,-16112,9.87860208461067,-120,0.0609756097560976,-1,7.31707317073171,114,-6.95121951219512,-15,0.0652173913043478,-38,-0.165217391304348,156,-0.760975609756098,
3008438,2636.71875,224,-0.137339055793991,-1456,-0.892703862660944,-16272,9.9767014101778,-95,-0.487804878048781,8,5.79268292682927,128,-7.80487804878049,-12,0.0521739130434783,-36,-0.156521739130435,157,-0.765853658536585,
3009078,2656.25,224,-0.137339055793991,-1520,-0.931943592887799,-16208,9.93746167995095,-77,-0.548780487804878,9,4.69512195121951,152,-9.26829268292683,-14,0.0608695652173913,-37,-0.160869565217391,156,-0.760975609756098,
3009718,2675.78125,128,-0.0784794604537094,-1456,-0.892703862660944,-16160,9.90803188228081,-40,-0.975609756097561,16,2.4390243902439,178,-10.8536585365854,-16,0.0695652173913043,-37,-0.160869565217391,155,-0.75609756097561,
3010358,2695.3125,64,-0.0392397302268547,-1424,-0.873083997547517,-16112,9.87860208461067,-21,-2.07317073170732,34,1.28048780487805,208,-12.6829268292683,-15,0.0652173913043478,-36,-0.156521739130435,158,-0.770731707317073,
3010998,2714.84375,144,-0.088289393010423,-1536,-0.941753525444513,-16320,10.0061312078479,8,-2.5,41,-0.487804878048781,235,-14.3292682926829,-14,0.0608695652173913,-39,-0.169565217391304,157,-0.765853658536585,
3011638,2734.375,64,-0.0392397302268547,-1504,-0.922133660331085,-16400,10.0551808706315,57,-2.31707317073171,38,-3.47560975609756,256,-15.609756097561,-16,0.0695652173913043,-39,-0.169565217391304,158,-0.770731707317073,
3012278,2753.90625,48,-0.029429797670141,-1568,-0.96137339055794,-16336,10.0159411404047,109,-3.17073170731707,52,-6.64634146341464,294,-17.9268292682927,-15,0.0652173913043478,-35,-0.152173913043478,158,-0.770731707317073,
3012918,2773.4375,112,-0.0686695278969957,-1792,-1.09871244635193,-16416,10.0649908031882,131,-3.65853658536585,60,-7.98780487804878,319,-19.4512195121951,-14,0.0608695652173913,-35,-0.152173913043478,157,-0.765853658536585,
3013558,2792.96875,-64,0.0392397302268547,-1968,-1.20662170447578,-16400,10.0551808706315,62,-3.78048780487805,62,-3.78048780487805,309,-18.8414634146341,-14,0.0608695652173913,-39,-0.169565217391304,158,-0.770731707317073,
3014198,2812.5,-16,0.00980993255671367,-1968,-1.20662170447578,-16432,10.0748007357449,-39,-3.59756097560976,59,2.37804878048781,283,-17.2560975609756,-14,0.0608695652173913,-40,-0.173913043478261,158,-0.770731707317073,
3014838,2832.03125,384,-0.235438381361128,-2080,-1.27529123237278,-16432,10.0748007357449,-90,-2.80487804878049,46,5.48780487804878,258,-15.7317073170732,-14,0.0608695652173913,-39,-0.169565217391304,156,-0.760975609756098,
3015478,2851.5625,800,-0.490496627835684,-2144,-1.31453096259963,-16464,10.0944206008584,-49,-1.70731707317073,28,2.98780487804878,233,-14.2073170731707,-14,0.0608695652173913,-37,-0.160869565217391,157,-0.765853658536585,
3016118,2871.09375,912,-0.559166155732679,-2112,-1.2949110974862,-16432,10.0748007357449,4,-0.609756097560976,10,-0.24390243902439,210,-12.8048780487805,-12,0.0521739130434783,-39,-0.169565217391304,158,-0.770731707317073,
3016758,2890.625,928,-0.568976088289393,-2224,-1.3635806253832,-16256,9.96689147762109,12,0.182926829268293,-3,-0.731707317073171,178,-10.8536585365854,-13,0.0565217391304348,-39,-0.169565217391304,158,-0.770731707317073,
3017398,2910.15625,944,-0.578786020846107,-2112,-1.2949110974862,-16368,10.0355610055181,-1,1.34146341463415,-22,0.0609756097560976,147,-8.96341463414634,-13,0.0565217391304348,-38,-0.165217391304348,157,-0.765853658536585,
3018038,2929.6875,864,-0.529736358062538,-2000,-1.22624156958921,-16400,10.0551808706315,-19,1.64634146341463,-27,1.15853658536585,115,-7.01219512195122,-15,0.0652173913043478,-34,-0.147826086956522,156,-0.760975609756098,
3018678,2949.21875,848,-0.519926425505825,-1984,-1.2164316370325,-16384,10.0453709380748,-21,1.76829268292683,-29,1.28048780487805,103,-6.28048780487805,-16,0.0695652173913043,-41,-0.178260869565217,158,-0.770731707317073,
3019318,2968.75,800,-0.490496627835684,-2048,-1.25567136725935,-16384,10.0453709380748,-24,2.31707317073171,-38,1.46341463414634,85,-5.18292682926829,-15,0.0652173913043478,-37,-0.160869565217391,155,-0.75609756097561,
3019958,2988.28125,720,-0.441446965052115,-1968,-1.20662170447578,-16400,10.0551808706315,-34,2.98780487804878,-49,2.07317073170732,65,-3.96341463414634,-13,0.0565217391304348,-40,-0.173913043478261,156,-0.760975609756098,
3020598,3007.8125,640,-0.392397302268547,-1968,-1.20662170447578,-16416,10.0649908031882,-26,3.41463414634146,-56,1.58536585365854,63,-3.84146341463415,-14,0.0608695652173913,-41,-0.178260869565217,157,-0.765853658536585,
3021238,3027.34375,544,-0.333537706928265,-2016,-1.23605150214592,-16288,9.98651134273452,-10,3.41463414634146,-56,0.609756097560976,50,-3.04878048780488,-14,0.0608695652173913,-40,-0.173913043478261,155,-0.75609756097561,
3021878,3046.875,592,-0.362967504598406,-1968,-1.20662170447578,-16224,9.94727161250766,18,3.53658536585366,-58,-1.09756097560976,42,-2.5609756097561,-15,0.0652173913043478,-36,-0.156521739130435,158,-0.770731707317073,
3022518,3066.40625,576,-0.353157572041692,-1968,-1.20662170447578,-16128,9.88841201716738,43,3.53658536585366,-58,-2.6219512195122,40,-2.4390243902439,-16,0.0695652173913043,-34,-0.147826086956522,156,-0.760975609756098,
3023158,3085.9375,464,-0.284488044144696,-2016,-1.23605150214592,-16096,9.86879215205395,58,3.47560975609756,-57,-3.53658536585366,38,-2.31707317073171,-14,0.0608695652173913,-41,-0.178260869565217,157,-0.765853658536585,
3023798,3105.46875,384,-0.235438381361128,-2048,-1.25567136725935,-16064,9.84917228694053,44,3.53658536585366,-58,-2.68292682926829,24,-1.46341463414634,-15,0.0652173913043478,-39,-0.169565217391304,159,-0.775609756097561,
3024438,3125,416,-0.255058246474555,-2112,-1.2949110974862,-16064,9.84917228694053,21,3.59756097560976,-59,-1.28048780487805,7,-0.426829268292683,-14,0.0608695652173913,-35,-0.152173913043478,156,-0.760975609756098,
3025078,3144.53125,480,-0.29429797670141,-2240,-1.37339055793991,-16048,9.83936235438381,18,4.14634146341463,-68,-1.09756097560976,-7,0.426829268292683,-12,0.0521739130434783,-43,-0.18695652173913,159,-0.775609756097561,
3025718,3164.0625,288,-0.176578786020846,-2048,-1.25567136725935,-16096,9.86879215205395,20,4.75609756097561,-78,-1.21951219512195,-22,1.34146341463415,-14,0.0608695652173913,-42,-0.182608695652174,158,-0.770731707317073,
3026358,3183.59375,336,-0.206008583690987,-1952,-1.19681177191907,-16080,9.85898221949724,12,4.75609756097561,-78,-0.731707317073171,-34,2.07317073170732,-17,0.0739130434782609,-37,-0.160869565217391,156,-0.760975609756098,
3026998,3203.125,272,-0.166768853464132,-2032,-1.24586143470264,-16032,9.8295524218271,35,5,-82,-2.13414634146341,-39,2.37804878048781,-13,0.0565217391304348,-38,-0.165217391304348,156,-0.760975609756098,
3027638,3222.65625,192,-0.117719190680564,-1984,-1.2164316370325,-16032,9.8295524218271,40,4.81707317073171,-79,-2.4390243902439,-38,2.31707317073171,-14,0.0608695652173913,-41,-0.178260869565217,158,-0.770731707317073,
3028278,3242.1875,96,-0.058859595340282,-1920,-1.17719190680564,-16192,9.92765174739424,33,4.87804878048781,-80,-2.01219512195122,-38,2.31707317073171,-15,0.0652173913043478,-42,-0.182608695652174,157,-0.765853658536585,
3028918,3261.71875,96,-0.058859595340282,-1840,-1.12814224402207,-16224,9.94727161250766,12,4.75609756097561,-78,-0.731707317073171,-42,2.5609756097561,-16,0.0695652173913043,-35,-0.152173913043478,157,-0.765853658536585,
3029558,3281.25,0,0,-1824,-1.11833231146536,-16272,9.9767014101778,-52,4.69512195121951,-77,3.17073170731707,-55,3.35365853658537,-13,0.0565217391304348,-40,-0.173913043478261,155,-0.75609756097561,
3030198,3300.78125,-96,0.058859595340282,-1936,-1.18700183936235,-16304,9.99632127529123,-189,5.36585365853659,-88,11.5243902439024,-86,5.24390243902439,-15,0.0652173913043478,-40,-0.173913043478261,157,-0.765853658536585,
3030838,3320.3125,-64,0.0392397302268547,-1856,-1.13795217657879,-16352,10.0257510729614,-361,6.21951219512195,-102,22.0121951219512,-137,8.35365853658537,-13,0.0565217391304348,-41,-0.178260869565217,157,-0.765853658536585,
3031478,3339.84375,240,-0.147148988350705,-1824,-1.11833231146536,-16352,10.0257510729614,-474,7.01219512195122,-115,28.9024390243902,-167,10.1829268292683,-14,0.0608695652173913,-42,-0.182608695652174,159,-0.775609756097561,
3032118,3359.375,800,-0.490496627835684,-1760,-1.0790925812385,-16240,9.95708154506438,-417,7.25609756097561,-119,25.4268292682927,-161,9.81707317073171,-16,0.0695652173913043,-39,-0.169565217391304,160,-0.780487804878049,
3032758,3378.90625,944,-0.578786020846107,-1696,-1.03985285101165,-16192,9.92765174739424,-219,6.40243902439024,-105,13.3536585365854,-119,7.25609756097561,-17,0.0739130434782609,-36,-0.156521739130435,160,-0.780487804878049,
3033398,3398.4375,1120,-0.686695278969957,-1536,-0.941753525444513,-16064,9.84917228694053,0,5.24390243902439,-86,0,-62,3.78048780487805,-15,0.0652173913043478,-41,-0.178260869565217,159,-0.775609756097561,
3034038,3417.96875,928,-0.568976088289393,-1440,-0.88289393010423,-16112,9.87860208461067,152,3.29268292682927,-54,-9.26829268292683,-10,0.609756097560976,-15,0.0652173913043478,-41,-0.178260869565217,160,-0.780487804878049,
3034678,3437.5,448,-0.274678111587983,-1504,-0.922133660331085,-16160,9.90803188228081,136,2.68292682926829,-44,-8.29268292682927,19,-1.15853658536585,-16,0.0695652173913043,-38,-0.165217391304348,160,-0.780487804878049,
3035318,3457.03125,336,-0.206008583690987,-1664,-1.02023298589822,-16208,9.93746167995095,59,3.29268292682927,-54,-3.59756097560976,29,-1.76829268292683,-17,0.0739130434782609,-40,-0.173913043478261,158,-0.770731707317073,
3035958,3476.5625,352,-0.215818516247701,-1776,-1.08890251379522,-16176,9.91784181483752,-23,4.14634146341463,-68,1.40243902439024,21,-1.28048780487805,-16,0.0695652173913043,-42,-0.182608695652174,160,-0.780487804878049,
3036598,3496.09375,528,-0.323727774371551,-1776,-1.08890251379522,-16112,9.87860208461067,-86,4.63414634146342,-76,5.24390243902439,6,-0.365853658536585,-15,0.0652173913043478,-42,-0.182608695652174,160,-0.780487804878049,
3037238,3515.625,784,-0.48068669527897,-1824,-1.11833231146536,-16032,9.8295524218271,-93,4.63414634146342,-76,5.67073170731707,-11,0.670731707317073,-16,0.0695652173913043,-38,-0.165217391304348,158,-0.770731707317073,
3037878,3535.15625,864,-0.529736358062538,-1888,-1.15757204169221,-15952,9.78050275904353,-77,4.45121951219512,-73,4.69512195121951,-34,2.07317073170732,-16,0.0695652173913043,-38,-0.165217391304348,159,-0.775609756097561,
3038518,3554.6875,992,-0.608215818516248,-1760,-1.0790925812385,-15936,9.77069282648682,-10,4.20731707317073,-69,0.609756097560976,-37,2.25609756097561,-17,0.0739130434782609,-41,-0.178260869565217,160,-0.780487804878049,
3039158,3574.21875,848,-0.519926425505825,-1744,-1.06928264868179,-16064,9.84917228694053,58,3.59756097560976,-59,-3.53658536585366,-30,1.82926829268293,-18,0.0782608695652174,-39,-0.169565217391304,159,-0.775609756097561,
3039798,3593.75,512,-0.313917841814838,-1648,-1.01042305334151,-16032,9.8295524218271,50,3.29268292682927,-54,-3.04878048780488,-21,1.28048780487805,-15,0.0652173913043478,-41,-0.178260869565217,158,-0.770731707317073,
3040438,3613.28125,496,-0.304107909258124,-1728,-1.05947271612508,-16080,9.85898221949724,23,2.98780487804878,-49,-1.40243902439024,-20,1.21951219512195,-17,0.0739130434782609,-39,-0.169565217391304,158,-0.770731707317073,
3041078,3632.8125,464,-0.284488044144696,-1632,-1.00061312078479,-16064,9.84917228694053,19,3.04878048780488,-50,-1.15853658536585,-15,0.914634146341463,-18,0.0782608695652174,-38,-0.165217391304348,158,-0.770731707317073,
3041718,3652.34375,432,-0.264868179031269,-1680,-1.03004291845494,-16064,9.84917228694053,16,3.04878048780488,-50,-0.975609756097561,-4,0.24390243902439,-17,0.0739130434782609,-38,-0.165217391304348,160,-0.780487804878049,
3042358,3671.875,432,-0.264868179031269,-1648,-1.01042305334151,-16112,9.87860208461067,18,3.10975609756098,-51,-1.09756097560976,6,-0.365853658536585,-15,0.0652173913043478,-41,-0.178260869565217,159,-0.775609756097561,
3042998,3691.40625,416,-0.255058246474555,-1616,-0.990803188228081,-16048,9.83936235438381,36,2.4390243902439,-40,-2.19512195121951,19,-1.15853658536585,-15,0.0652173913043478,-41,-0.178260869565217,159,-0.775609756097561,
3043638,3710.9375,352,-0.215818516247701,-1632,-1.00061312078479,-16128,9.88841201716738,49,1.89024390243902,-31,-2.98780487804878,37,-2.25609756097561,-16,0.0695652173913043,-38,-0.165217391304348,160,-0.780487804878049,
3044278,3730.46875,480,-0.29429797670141,-1664,-1.02023298589822,-16112,9.87860208461067,104,1.82926829268293,-30,-6.34146341463415,53,-3.23170731707317,-17,0.0739130434782609,-40,-0.173913043478261,157,-0.765853658536585,
3044918,3750,464,-0.284488044144696,-1744,-1.06928264868179,-16128,9.88841201716738,146,1.34146341463415,-22,-8.90243902439025,62,-3.78048780487805,-14,0.0608695652173913,-42,-0.182608695652174,160,-0.780487804878049,
3045558,3769.53125,272,-0.166768853464132,-1712,-1.04966278356836,-16192,9.92765174739424,139,1.46341463414634,-24,-8.47560975609756,60,-3.65853658536585,-15,0.0652173913043478,-36,-0.156521739130435,158,-0.770731707317073,
3046198,3789.0625,176,-0.10790925812385,-1776,-1.08890251379522,-16304,9.99632127529123,81,1.46341463414634,-24,-4.9390243902439,47,-2.86585365853659,-18,0.0782608695652174,-38,-0.165217391304348,157,-0.765853658536585,
3046838,3808.59375,192,-0.117719190680564,-1776,-1.08890251379522,-16256,9.96689147762109,32,1.95121951219512,-32,-1.95121951219512,32,-1.95121951219512,-15,0.0652173913043478,-38,-0.165217391304348,157,-0.765853658536585,
3047478,3828.125,256,-0.156958920907419,-1760,-1.0790925812385,-16304,9.99632127529123,31,2.37804878048781,-39,-1.89024390243902,26,-1.58536585365854,-17,0.0739130434782609,-40,-0.173913043478261,160,-0.780487804878049,
3048118,3847.65625,288,-0.176578786020846,-1824,-1.11833231146536,-16336,10.0159411404047,48,2.68292682926829,-44,-2.92682926829268,24,-1.46341463414634,-16,0.0695652173913043,-42,-0.182608695652174,158,-0.770731707317073,
3048758,3867.1875,240,-0.147148988350705,-1952,-1.19681177191907,-16208,9.93746167995095,53,2.98780487804878,-49,-3.23170731707317,24,-1.46341463414634,-18,0.0782608695652174,-36,-0.156521739130435,158,-0.770731707317073,
3049398,3886.71875,208,-0.127529123237278,-1872,-1.1477621091355,-16272,9.9767014101778,33,2.74390243902439,-45,-2.01219512195122,19,-1.15853658536585,-18,0.0782608695652174,-37,-0.160869565217391,156,-0.760975609756098,
3050038,3906.25,144,-0.088289393010423,-1744,-1.06928264868179,-16336,10.0159411404047,9,3.04878048780488,-50,-0.548780487804878,16,-0.975609756097561,-15,0.0652173913043478,-39,-0.169565217391304,158,-0.770731707317073,
3050678,3925.78125,240,-0.147148988350705,-1824,-1.11833231146536,-16240,9.95708154506438,-20,3.53658536585366,-58,1.21951219512195,9,-0.548780487804878,-15,0.0652173913043478,-35,-0.152173913043478,158,-0.770731707317073,
3051318,3945.3125,224,-0.137339055793991,-1824,-1.11833231146536,-16192,9.92765174739424,-45,4.14634146341463,-68,2.74390243902439,11,-0.670731707317073,-13,0.0565217391304348,-43,-0.18695652173913,158,-0.770731707317073,
3051958,3964.84375,368,-0.225628448804414,-1616,-0.990803188228081,-16208,9.93746167995095,-34,3.96341463414634,-65,2.07317073170732,9,-0.548780487804878,-16,0.0695652173913043,-35,-0.152173913043478,156,-0.760975609756098,
3052598,3984.375,528,-0.323727774371551,-1568,-0.96137339055794,-16256,9.96689147762109,29,3.65853658536585,-60,-1.76829268292683,13,-0.792682926829268,-15,0.0652173913043478,-40,-0.173913043478261,158,-0.770731707317073,
3053238,4003.90625,336,-0.206008583690987,-1648,-1.01042305334151,-16144,9.89822194972409,51,3.29268292682927,-54,-3.10975609756098,15,-0.914634146341463,-17,0.0739130434782609,-38,-0.165217391304348,156,-0.760975609756098,
3053878,4023.4375,320,-0.196198651134273,-1712,-1.04966278356836,-16112,9.87860208461067,37,2.80487804878049,-46,-2.25609756097561,19,-1.15853658536585,-14,0.0608695652173913,-43,-0.18695652173913,159,-0.775609756097561,
3054518,4042.96875,352,-0.215818516247701,-1664,-1.02023298589822,-16176,9.91784181483752,65,1.95121951219512,-32,-3.96341463414634,33,-2.01219512195122,-13,0.0565217391304348,-42,-0.182608695652174,158,-0.770731707317073,
3055158,4062.5,240,-0.147148988350705,-1744,-1.06928264868179,-16240,9.95708154506438,67,2.25609756097561,-37,-4.08536585365854,35,-2.13414634146341,-16,0.0695652173913043,-37,-0.160869565217391,158,-0.770731707317073,
3055798,4082.03125,208,-0.127529123237278,-1856,-1.13795217657879,-16256,9.96689147762109,34,2.74390243902439,-45,-2.07317073170732,31,-1.89024390243902,-16,0.0695652173913043,-35,-0.152173913043478,157,-0.765853658536585,
3056438,4101.5625,176,-0.10790925812385,-1872,-1.1477621091355,-16208,9.93746167995095,-16,3.29268292682927,-54,0.975609756097561,27,-1.64634146341463,-16,0.0695652173913043,-39,-0.169565217391304,156,-0.760975609756098,
3057078,4121.09375,384,-0.235438381361128,-1808,-1.10852237890864,-16064,9.84917228694053,-30,3.04878048780488,-50,1.82926829268293,17,-1.03658536585366,-17,0.0739130434782609,-43,-0.18695652173913,159,-0.775609756097561,
3057718,4140.625,544,-0.333537706928265,-1808,-1.10852237890864,-16096,9.86879215205395,27,2.74390243902439,-45,-1.64634146341463,12,-0.731707317073171,-14,0.0608695652173913,-43,-0.18695652173913,157,-0.765853658536585,
3058358,4160.15625,352,-0.215818516247701,-1712,-1.04966278356836,-16144,9.89822194972409,57,2.4390243902439,-40,-3.47560975609756,12,-0.731707317073171,-16,0.0695652173913043,-36,-0.156521739130435,156,-0.760975609756098,
3058998,4179.6875,144,-0.088289393010423,-1680,-1.03004291845494,-16288,9.98651134273452,29,2.4390243902439,-40,-1.76829268292683,10,-0.609756097560976,-15,0.0652173913043478,-38,-0.165217391304348,157,-0.765853658536585,
3059638,4199.21875,192,-0.117719190680564,-1712,-1.04966278356836,-16336,10.0159411404047,17,2.6219512195122,-43,-1.03658536585366,18,-1.09756097560976,-15,0.0652173913043478,-38,-0.165217391304348,158,-0.770731707317073,
3060278,4218.75,224,-0.137339055793991,-1776,-1.08890251379522,-16224,9.94727161250766,27,2.98780487804878,-49,-1.64634146341463,18,-1.09756097560976,-13,0.0565217391304348,-44,-0.191304347826087,159,-0.775609756097561,
3060918,4238.28125,208,-0.127529123237278,-1664,-1.02023298589822,-16080,9.85898221949724,26,2.92682926829268,-48,-1.58536585365854,10,-0.609756097560976,-15,0.0652173913043478,-42,-0.182608695652174,159,-0.775609756097561,
3061558,4257.8125,240,-0.147148988350705,-1680,-1.03004291845494,-16160,9.90803188228081,41,2.5609756097561,-42,-2.5,3,-0.182926829268293,-14,0.0608695652173913,-41,-0.178260869565217,157,-0.765853658536585,
3062198,4277.34375,288,-0.176578786020846,-1760,-1.0790925812385,-16112,9.87860208461067,86,2.5609756097561,-42,-5.24390243902439,3,-0.182926829268293,-13,0.0565217391304348,-40,-0.173913043478261,158,-0.770731707317073,
3062838,4296.875,160,-0.0980993255671367,-1856,-1.13795217657879,-16128,9.88841201716738,93,2.80487804878049,-46,-5.67073170731707,-1,0.0609756097560976,-14,0.0608695652173913,-42,-0.182608695652174,157,-0.765853658536585,
3063478,4316.40625,-16,0.00980993255671367,-1760,-1.0790925812385,-16064,9.84917228694053,65,2.80487804878049,-46,-3.96341463414634,-8,0.487804878048781,-14,0.0608695652173913,-37,-0.160869565217391,156,-0.760975609756098,
3064118,4335.9375,-32,0.0196198651134273,-1680,-1.03004291845494,-16160,9.90803188228081,33,2.5609756097561,-42,-2.01219512195122,-11,0.670731707317073,-12,0.0521739130434783,-39,-0.169565217391304,157,-0.765853658536585,
3064758,4355.46875,32,-0.0196198651134273,-1808,-1.10852237890864,-16192,9.92765174739424,42,2.68292682926829,-44,-2.5609756097561,-9,0.548780487804878,-13,0.0565217391304348,-41,-0.178260869565217,157,-0.765853658536585,
3065398,4375,-80,0.0490496627835684,-1744,-1.06928264868179,-16176,9.91784181483752,39,2.86585365853659,-47,-2.37804878048781,-5,0.304878048780488,-14,0.0608695652173913,-43,-0.18695652173913,157,-0.765853658536585,
3066038,4394.53125,-96,0.058859595340282,-1728,-1.05947271612508,-16096,9.86879215205395,2,2.68292682926829,-44,-0.121951219512195,4,-0.24390243902439,-13,0.0565217391304348,-39,-0.169565217391304,156,-0.760975609756098,
3066678,4414.0625,-32,0.0196198651134273,-1648,-1.01042305334151,-16208,9.93746167995095,-29,2.37804878048781,-39,1.76829268292683,6,-0.365853658536585,-12,0.0521739130434783,-44,-0.191304347826087,158,-0.770731707317073,
3067318,4433.59375,48,-0.029429797670141,-1792,-1.09871244635193,-16224,9.94727161250766,6,1.82926829268293,-30,-0.365853658536585,24,-1.46341463414634,-15,0.0652173913043478,-38,-0.165217391304348,157,-0.765853658536585,
3067958,4453.125,48,-0.029429797670141,-1856,-1.13795217657879,-16224,9.94727161250766,29,2.07317073170732,-34,-1.76829268292683,30,-1.82926829268293,-13,0.0565217391304348,-38,-0.165217391304348,157,-0.765853658536585,
3068598,4472.65625,-32,0.0196198651134273,-1872,-1.1477621091355,-16240,9.95708154506438,5,2.13414634146341,-35,-0.304878048780488,22,-1.34146341463415,-13,0.0565217391304348,-38,-0.165217391304348,156,-0.760975609756098,
3069238,4492.1875,48,-0.029429797670141,-1856,-1.13795217657879,-16256,9.96689147762109,-16,2.86585365853659,-47,0.975609756097561,13,-0.792682926829268,-13,0.0565217391304348,-41,-0.178260869565217,156,-0.760975609756098,
3069878,4511.71875,64,-0.0392397302268547,-1936,-1.18700183936235,-16288,9.98651134273452,-8,3.04878048780488,-50,0.487804878048781,8,-0.487804878048781,-13,0.0565217391304348,-40,-0.173913043478261,157,-0.765853658536585,
3070518,4531.25,144,-0.088289393010423,-1920,-1.17719190680564,-16272,9.9767014101778,1,3.29268292682927,-54,-0.0609756097560976,0,0,-14,0.0608695652173913,-42,-0.182608695652174,156,-0.760975609756098,
3071158,4550.78125,144,-0.088289393010423,-1936,-1.18700183936235,-16240,9.95708154506438,8,3.59756097560976,-59,-0.487804878048781,-6,0.365853658536585,-13,0.0565217391304348,-42,-0.182608695652174,158,-0.770731707317073,
3071798,4570.3125,48,-0.029429797670141,-1888,-1.15757204169221,-16272,9.9767014101778,-4,3.71951219512195,-61,0.24390243902439,-14,0.853658536585366,-13,0.0565217391304348,-41,-0.178260869565217,157,-0.765853658536585,
3072438,4589.84375,-32,0.0196198651134273,-1792,-1.09871244635193,-16320,10.0061312078479,-5,4.02439024390244,-66,0.304878048780488,-18,1.09756097560976,-15,0.0652173913043478,-40,-0.173913043478261,156,-0.760975609756098,
3073078,4609.375,-32,0.0196198651134273,-1776,-1.08890251379522,-16368,10.0355610055181,-14,4.26829268292683,-70,0.853658536585366,-20,1.21951219512195,-15,0.0652173913043478,-39,-0.169565217391304,155,-0.75609756097561,
3073718,4628.90625,32,-0.0196198651134273,-1776,-1.08890251379522,-16288,9.98651134273452,-3,4.51219512195122,-74,0.182926829268293,-27,1.64634146341463,-14,0.0608695652173913,-43,-0.18695652173913,158,-0.770731707317073,
3074358,4648.4375,64,-0.0392397302268547,-1648,-1.01042305334151,-16416,10.0649908031882,18,4.81707317073171,-79,-1.09756097560976,-26,1.58536585365854,-13,0.0565217391304348,-44,-0.191304347826087,157,-0.765853658536585,
3074998,4667.96875,80,-0.0490496627835684,-1680,-1.03004291845494,-16336,10.0159411404047,21,4.9390243902439,-81,-1.28048780487805,-27,1.64634146341463,-13,0.0565217391304348,-42,-0.182608695652174,156,-0.760975609756098,
3075638,4687.5,48,-0.029429797670141,-1632,-1.00061312078479,-16320,10.0061312078479,15,5.36585365853659,-88,-0.914634146341463,-27,1.64634146341463,-14,0.0608695652173913,-40,-0.173913043478261,156,-0.760975609756098,
3076278,4707.03125,16,-0.00980993255671367,-1648,-1.01042305334151,-16320,10.0061312078479,0,5.30487804878049,-87,0,-24,1.46341463414634,-14,0.0608695652173913,-40,-0.173913043478261,158,-0.770731707317073,
3076918,4726.5625,-64,0.0392397302268547,-1584,-0.971183323114654,-16208,9.93746167995095,3,5.0609756097561,-83,-0.182926829268293,-15,0.914634146341463,-14,0.0608695652173913,-38,-0.165217391304348,157,-0.765853658536585,
3077558,4746.09375,-64,0.0392397302268547,-1632,-1.00061312078479,-16240,9.95708154506438,5,5,-82,-0.304878048780488,-12,0.731707317073171,-14,0.0608695652173913,-38,-0.165217391304348,157,-0.765853658536585,
3078198,4765.625,-144,0.088289393010423,-1664,-1.02023298589822,-16176,9.91784181483752,-7,4.63414634146342,-76,0.426829268292683,-3,0.182926829268293,-12,0.0521739130434783,-43,-0.18695652173913,157,-0.765853658536585,
3078838,4785.15625,-96,0.058859595340282,-1568,-0.96137339055794,-16128,9.88841201716738,-11,4.45121951219512,-73,0.670731707317073,6,-0.365853658536585,-13,0.0565217391304348,-41,-0.178260869565217,158,-0.770731707317073,
3079478,4804.6875,-48,0.029429797670141,-1632,-1.00061312078479,-16096,9.86879215205395,9,3.96341463414634,-65,-0.548780487804878,19,-1.15853658536585,-14,0.0608695652173913,-39,-0.169565217391304,155,-0.75609756097561,
3080118,4824.21875,64,-0.0392397302268547,-1472,-0.902513795217658,-16160,9.90803188228081,23,3.71951219512195,-61,-1.40243902439024,20,-1.21951219512195,-15,0.0652173913043478,-38,-0.165217391304348,155,-0.75609756097561,
3080758,4843.75,32,-0.0196198651134273,-1536,-0.941753525444513,-16080,9.85898221949724,30,2.98780487804878,-49,-1.82926829268293,24,-1.46341463414634,-13,0.0565217391304348,-39,-0.169565217391304,156,-0.760975609756098,
3081398,4863.28125,-32,0.0196198651134273,-1632,-1.00061312078479,-16112,9.87860208461067,22,3.10975609756098,-51,-1.34146341463415,18,-1.09756097560976,-12,0.0521739130434783,-40,-0.173913043478261,156,-0.760975609756098,
3082038,4882.8125,-64,0.0392397302268547,-1664,-1.02023298589822,-16112,9.87860208461067,11,3.59756097560976,-59,-0.670731707317073,16,-0.975609756097561,-12,0.0521739130434783,-41,-0.178260869565217,157,-0.765853658536585,
3082678,4902.34375,112,-0.0686695278969957,-1696,-1.03985285101165,-16032,9.8295524218271,-2,3.78048780487805,-62,0.121951219512195,5,-0.304878048780488,-14,0.0608695652173913,-39,-0.169565217391304,155,-0.75609756097561,
3083318,4921.875,208,-0.127529123237278,-1712,-1.04966278356836,-16032,9.8295524218271,6,3.35365853658537,-55,-0.365853658536585,-3,0.182926829268293,-14,0.0608695652173913,-42,-0.182608695652174,156,-0.760975609756098,
3083958,4941.40625,128,-0.0784794604537094,-1584,-0.971183323114654,-16096,9.86879215205395,24,2.80487804878049,-46,-1.46341463414634,-11,0.670731707317073,-12,0.0521739130434783,-42,-0.182608695652174,156,-0.760975609756098,
3084598,4960.9375,-80,0.0490496627835684,-1552,-0.951563458001226,-16144,9.89822194972409,26,2.5609756097561,-42,-1.58536585365854,-12,0.731707317073171,-12,0.0521739130434783,-40,-0.173913043478261,155,-0.75609756097561,
3085238,4980.46875,-32,0.0196198651134273,-1680,-1.03004291845494,-16208,9.93746167995095,19,2.74390243902439,-45,-1.15853658536585,-13,0.792682926829268,-13,0.0565217391304348,-39,-0.169565217391304,155,-0.75609756097561,
3085878,5000,-144,0.088289393010423,-1664,-1.02023298589822,-16336,10.0159411404047,14,3.10975609756098,-51,-0.853658536585366,-10,0.609756097560976,-12,0.0521739130434783,-41,-0.178260869565217,156,-0.760975609756098,
3086518,5019.53125,-96,0.058859595340282,-1600,-0.980993255671367,-16256,9.96689147762109,-8,3.23170731707317,-53,0.487804878048781,-11,0.670731707317073,-10,0.0434782608695652,-43,-0.18695652173913,156,-0.760975609756098,
3087158,5039.0625,-16,0.00980993255671367,-1552,-0.951563458001226,-16272,9.9767014101778,-5,3.10975609756098,-51,0.304878048780488,-11,0.670731707317073,-13,0.0565217391304348,-38,-0.165217391304348,157,-0.765853658536585,
3087798,5058.59375,-64,0.0392397302268547,-1632,-1.00061312078479,-16304,9.99632127529123,12,3.10975609756098,-51,-0.731707317073171,-8,0.487804878048781,-15,0.0652173913043478,-42,-0.182608695652174,157,-0.765853658536585,
3088438,5078.125,-224,0.137339055793991,-1632,-1.00061312078479,-16208,9.93746167995095,5,3.17073170731707,-52,-0.304878048780488,-4,0.24390243902439,-12,0.0521739130434783,-43,-0.18695652173913,155,-0.75609756097561,
3089078,5097.65625,-208,0.127529123237278,-1568,-0.96137339055794,-16256,9.96689147762109,-8,3.10975609756098,-51,0.487804878048781,0,0,-11,0.0478260869565217,-43,-0.18695652173913,157,-0.765853658536585,
3089718,5117.1875,-208,0.127529123237278,-1520,-0.931943592887799,-16272,9.9767014101778,-4,3.10975609756098,-51,0.24390243902439,4,-0.24390243902439,-11,0.0478260869565217,-43,-0.18695652173913,156,-0.760975609756098,
3090358,5136.71875,-240,0.147148988350705,-1616,-0.990803188228081,-16208,9.93746167995095,-4,3.23170731707317,-53,0.24390243902439,8,-0.487804878048781,-13,0.0565217391304348,-39,-0.169565217391304,156,-0.760975609756098,
3090998,5156.25,-192,0.117719190680564,-1616,-0.990803188228081,-16256,9.96689147762109,-14,3.17073170731707,-52,0.853658536585366,2,-0.121951219512195,-11,0.0478260869565217,-41,-0.178260869565217,157,-0.765853658536585,
3091638,5175.78125,-112,0.0686695278969957,-1584,-0.971183323114654,-16160,9.90803188228081,-18,3.35365853658537,-55,1.09756097560976,-1,0.0609756097560976,-14,0.0608695652173913,-42,-0.182608695652174,156,-0.760975609756098,
3092278,5195.3125,-64,0.0392397302268547,-1632,-1.00061312078479,-16256,9.96689147762109,0,2.86585365853659,-47,0,3,-0.182926829268293,-13,0.0565217391304348,-44,-0.191304347826087,157,-0.765853658536585,
3092918,5214.84375,-96,0.058859595340282,-1616,-0.990803188228081,-16144,9.89822194972409,18,2.92682926829268,-48,-1.09756097560976,10,-0.609756097560976,-14,0.0608695652173913,-42,-0.182608695652174,156,-0.760975609756098,
3093558,5234.375,-208,0.127529123237278,-1552,-0.951563458001226,-16144,9.89822194972409,28,2.74390243902439,-45,-1.70731707317073,14,-0.853658536585366,-13,0.0565217391304348,-39,-0.169565217391304,155,-0.75609756097561,
3094198,5253.90625,-160,0.0980993255671367,-1568,-0.96137339055794,-16160,9.90803188228081,13,2.4390243902439,-40,-0.792682926829268,21,-1.28048780487805,-12,0.0521739130434783,-41,-0.178260869565217,157,-0.765853658536585,
3094838,5273.4375,-64,0.0392397302268547,-1680,-1.03004291845494,-16192,9.92765174739424,20,2.5,-41,-1.21951219512195,21,-1.28048780487805,-13,0.0565217391304348,-39,-0.169565217391304,157,-0.765853658536585,
3095478,5292.96875,-144,0.088289393010423,-1680,-1.03004291845494,-16240,9.95708154506438,50,2.74390243902439,-45,-3.04878048780488,23,-1.40243902439024,-11,0.0478260869565217,-43,-0.18695652173913,156,-0.760975609756098,
3096118,5312.5,-160,0.0980993255671367,-1648,-1.01042305334151,-16208,9.93746167995095,55,2.80487804878049,-46,-3.35365853658537,25,-1.52439024390244,-13,0.0565217391304348,-41,-0.178260869565217,155,-0.75609756097561,
3096758,5332.03125,-208,0.127529123237278,-1632,-1.00061312078479,-16208,9.93746167995095,41,2.86585365853659,-47,-2.5,23,-1.40243902439024,-12,0.0521739130434783,-38,-0.165217391304348,155,-0.75609756097561,
3097398,5351.5625,-240,0.147148988350705,-1600,-0.980993255671367,-16160,9.90803188228081,8,2.74390243902439,-45,-0.487804878048781,13,-0.792682926829268,-13,0.0565217391304348,-42,-0.182608695652174,156,-0.760975609756098,
3098038,5371.09375,-224,0.137339055793991,-1568,-0.96137339055794,-16208,9.93746167995095,-11,2.92682926829268,-48,0.670731707317073,10,-0.609756097560976,-11,0.0478260869565217,-44,-0.191304347826087,157,-0.765853658536585,
3098678,5390.625,-64,0.0392397302268547,-1552,-0.951563458001226,-16160,9.90803188228081,-9,2.98780487804878,-49,0.548780487804878,5,-0.304878048780488,-11,0.0478260869565217,-37,-0.160869565217391,153,-0.746341463414634,
3099318,5410.15625,-128,0.0784794604537094,-1552,-0.951563458001226,-16160,9.90803188228081,23,2.86585365853659,-47,-1.40243902439024,11,-0.670731707317073,-11,0.0478260869565217,-41,-0.178260869565217,155,-0.75609756097561,
3099958,5429.6875,-208,0.127529123237278,-1616,-0.990803188228081,-16128,9.88841201716738,35,2.6219512195122,-43,-2.13414634146341,16,-0.975609756097561,-12,0.0521739130434783,-39,-0.169565217391304,156,-0.760975609756098,
3100598,5449.21875,-192,0.117719190680564,-1648,-1.01042305334151,-16064,9.84917228694053,42,2.5,-41,-2.5609756097561,18,-1.09756097560976,-12,0.0521739130434783,-43,-0.18695652173913,156,-0.760975609756098,
3101238,5468.75,-224,0.137339055793991,-1648,-1.01042305334151,-16032,9.8295524218271,37,2.37804878048781,-39,-2.25609756097561,21,-1.28048780487805,-12,0.0521739130434783,-42,-0.182608695652174,157,-0.765853658536585,
3101878,5488.28125,-176,0.10790925812385,-1744,-1.06928264868179,-16096,9.86879215205395,14,2.31707317073171,-38,-0.853658536585366,18,-1.09756097560976,-10,0.0434782608695652,-42,-0.182608695652174,156,-0.760975609756098,
3102518,5507.8125,-144,0.088289393010423,-1712,-1.04966278356836,-16080,9.85898221949724,-7,2.4390243902439,-40,0.426829268292683,6,-0.365853658536585,-11,0.0478260869565217,-44,-0.191304347826087,156,-0.760975609756098,
3103158,5527.34375,0,0,-1696,-1.03985285101165,-16016,9.81974248927039,-26,2.31707317073171,-38,1.58536585365854,-5,0.304878048780488,-13,0.0565217391304348,-41,-0.178260869565217,156,-0.760975609756098,
3103798,5546.875,64,-0.0392397302268547,-1616,-0.990803188228081,-16048,9.83936235438381,-3,2.19512195121951,-36,0.182926829268293,-9,0.548780487804878,-12,0.0521739130434783,-39,-0.169565217391304,157,-0.765853658536585,
3104438,5566.40625,-80,0.0490496627835684,-1696,-1.03985285101165,-16176,9.91784181483752,48,1.76829268292683,-29,-2.92682926829268,-10,0.609756097560976,-11,0.0478260869565217,-44,-0.191304347826087,157,-0.765853658536585,
3105078,5585.9375,-176,0.10790925812385,-1760,-1.0790925812385,-16224,9.94727161250766,41,1.40243902439024,-23,-2.5,-18,1.09756097560976,-12,0.0521739130434783,-36,-0.156521739130435,154,-0.751219512195122,
3105718,5605.46875,-240,0.147148988350705,-1648,-1.01042305334151,-16320,10.0061312078479,22,1.70731707317073,-28,-1.34146341463415,-19,1.15853658536585,-12,0.0521739130434783,-41,-0.178260869565217,155,-0.75609756097561,
3106358,5625,-288,0.176578786020846,-1744,-1.06928264868179,-16416,10.0649908031882,9,1.76829268292683,-29,-0.548780487804878,-14,0.853658536585366,-12,0.0521739130434783,-39,-0.169565217391304,157,-0.765853658536585,
3106998,5644.53125,-256,0.156958920907419,-1712,-1.04966278356836,-16544,10.1434702636419,34,1.89024390243902,-31,-2.07317073170732,-5,0.304878048780488,-12,0.0521739130434783,-43,-0.18695652173913,156,-0.760975609756098,
3107638,5664.0625,-368,0.225628448804414,-1776,-1.08890251379522,-16512,10.1238503985285,44,2.5,-41,-2.68292682926829,-2,0.121951219512195,-11,0.0478260869565217,-40,-0.173913043478261,155,-0.75609756097561,
3108278,5683.59375,-496,0.304107909258124,-1568,-0.96137339055794,-16432,10.0748007357449,20,2.80487804878049,-46,-1.21951219512195,1,-0.0609756097560976,-12,0.0521739130434783,-40,-0.173913043478261,155,-0.75609756097561,
3108918,5703.125,-432,0.264868179031269,-1648,-1.01042305334151,-16464,10.0944206008584,-3,2.98780487804878,-49,0.182926829268293,0,0,-13,0.0565217391304348,-43,-0.18695652173913,157,-0.765853658536585,
3109558,5722.65625,-416,0.255058246474555,-1728,-1.05947271612508,-16336,10.0159411404047,-8,3.10975609756098,-51,0.487804878048781,1,-0.0609756097560976,-12,0.0521739130434783,-42,-0.182608695652174,156,-0.760975609756098,
3110198,5742.1875,-384,0.235438381361128,-1744,-1.06928264868179,-16304,9.99632127529123,11,3.17073170731707,-52,-0.670731707317073,5,-0.304878048780488,-15,0.0652173913043478,-37,-0.160869565217391,155,-0.75609756097561,
3110838,5761.71875,-384,0.235438381361128,-1712,-1.04966278356836,-16256,9.96689147762109,23,2.98780487804878,-49,-1.40243902439024,12,-0.731707317073171,-10,0.0434782608695652,-44,-0.191304347826087,155,-0.75609756097561,
3111478,5781.25,-432,0.264868179031269,-1744,-1.06928264868179,-16272,9.9767014101778,45,2.6219512195122,-43,-2.74390243902439,19,-1.15853658536585,-12,0.0521739130434783,-39,-0.169565217391304,154,-0.751219512195122,
3112118,5800.78125,-480,0.29429797670141,-1744,-1.06928264868179,-16304,9.99632127529123,54,2.92682926829268,-48,-3.29268292682927,16,-0.975609756097561,-12,0.0521739130434783,-40,-0.173913043478261,156,-0.760975609756098,
3112758,5820.3125,-624,0.382587369711833,-1824,-1.11833231146536,-16304,9.99632127529123,20,3.23170731707317,-53,-1.21951219512195,15,-0.914634146341463,-12,0.0521739130434783,-38,-0.165217391304348,154,-0.751219512195122,
3113398,5839.84375,-560,0.343347639484979,-1728,-1.05947271612508,-16352,10.0257510729614,-9,3.65853658536585,-60,0.548780487804878,11,-0.670731707317073,-12,0.0521739130434783,-39,-0.169565217391304,155,-0.75609756097561,
3114038,5859.375,-416,0.255058246474555,-1792,-1.09871244635193,-16320,10.0061312078479,2,3.78048780487805,-62,-0.121951219512195,11,-0.670731707317073,-12,0.0521739130434783,-40,-0.173913043478261,156,-0.760975609756098,
3114678,5878.90625,-448,0.274678111587983,-1680,-1.03004291845494,-16160,9.90803188228081,18,3.90243902439024,-64,-1.09756097560976,8,-0.487804878048781,-11,0.0478260869565217,-41,-0.178260869565217,155,-0.75609756097561,
3115318,5898.4375,-512,0.313917841814838,-1776,-1.08890251379522,-16080,9.85898221949724,-5,4.14634146341463,-68,0.304878048780488,8,-0.487804878048781,-11,0.0478260869565217,-44,-0.191304347826087,156,-0.760975609756098,
3115958,5917.96875,-400,0.245248313917842,-1664,-1.02023298589822,-16048,9.83936235438381,-9,4.02439024390244,-66,0.548780487804878,11,-0.670731707317073,-11,0.0478260869565217,-43,-0.18695652173913,154,-0.751219512195122,
3116598,5937.5,-352,0.215818516247701,-1616,-0.990803188228081,-16064,9.84917228694053,25,3.41463414634146,-56,-1.52439024390244,12,-0.731707317073171,-13,0.0565217391304348,-39,-0.169565217391304,155,-0.75609756097561,
3117238,5957.03125,-416,0.255058246474555,-1696,-1.03985285101165,-16064,9.84917228694053,31,2.92682926829268,-48,-1.89024390243902,11,-0.670731707317073,-10,0.0434782608695652,-42,-0.182608695652174,156,-0.760975609756098,
3117878,5976.5625,-448,0.274678111587983,-1696,-1.03985285101165,-16080,9.85898221949724,12,3.10975609756098,-51,-0.731707317073171,8,-0.487804878048781,-11,0.0478260869565217,-43,-0.18695652173913,156,-0.760975609756098,
3118518,5996.09375,-336,0.206008583690987,-1712,-1.04966278356836,-16176,9.91784181483752,1,3.47560975609756,-57,-0.0609756097560976,5,-0.304878048780488,-13,0.0565217391304348,-46,-0.2,156,-0.760975609756098,
3119158,6015.625,-320,0.196198651134273,-1728,-1.05947271612508,-16112,9.87860208461067,0,3.17073170731707,-52,0,2,-0.121951219512195,-12,0.0521739130434783,-39,-0.169565217391304,154,-0.751219512195122,
3119798,6035.15625,-336,0.206008583690987,-1728,-1.05947271612508,-16160,9.90803188228081,-8,3.29268292682927,-54,0.487804878048781,-8,0.487804878048781,-11,0.0478260869565217,-39,-0.169565217391304,154,-0.751219512195122,
3120438,6054.6875,-320,0.196198651134273,-1680,-1.03004291845494,-16144,9.89822194972409,-8,3.41463414634146,-56,0.487804878048781,-14,0.853658536585366,-11,0.0478260869565217,-40,-0.173913043478261,157,-0.765853658536585,
3121078,6074.21875,-400,0.245248313917842,-1584,-0.971183323114654,-16112,9.87860208461067,-13,3.47560975609756,-57,0.792682926829268,-9,0.548780487804878,-12,0.0521739130434783,-41,-0.178260869565217,156,-0.760975609756098,
3121718,6093.75,-368,0.225628448804414,-1584,-0.971183323114654,-16160,9.90803188228081,-32,3.41463414634146,-56,1.95121951219512,-10,0.609756097560976,-10,0.0434782608695652,-45,-0.195652173913043,155,-0.75609756097561,
3122358,6113.28125,-400,0.245248313917842,-1568,-0.96137339055794,-16176,9.91784181483752,-22,3.17073170731707,-52,1.34146341463415,-5,0.304878048780488,-12,0.0521739130434783,-42,-0.182608695652174,154,-0.751219512195122,
3122998,6132.8125,-400,0.245248313917842,-1600,-0.980993255671367,-16176,9.91784181483752,-7,3.04878048780488,-50,0.426829268292683,3,-0.182926829268293,-10,0.0434782608695652,-41,-0.178260869565217,156,-0.760975609756098,
3123638,6152.34375,-528,0.323727774371551,-1680,-1.03004291845494,-16240,9.95708154506438,14,2.74390243902439,-45,-0.853658536585366,1,-0.0609756097560976,-11,0.0478260869565217,-42,-0.182608695652174,155,-0.75609756097561,
3124278,6171.875,-464,0.284488044144696,-1712,-1.04966278356836,-16208,9.93746167995095,7,2.86585365853659,-47,-0.426829268292683,3,-0.182926829268293,-12,0.0521739130434783,-38,-0.165217391304348,153,-0.746341463414634,
3124918,6191.40625,-464,0.284488044144696,-1696,-1.03985285101165,-16208,9.93746167995095,-5,3.04878048780488,-50,0.304878048780488,5,-0.304878048780488,-11,0.0478260869565217,-39,-0.169565217391304,152,-0.741463414634146,
3125558,6210.9375,-368,0.225628448804414,-1760,-1.0790925812385,-16160,9.90803188228081,-13,3.10975609756098,-51,0.792682926829268,9,-0.548780487804878,-10,0.0434782608695652,-41,-0.178260869565217,155,-0.75609756097561,
3126198,6230.46875,-336,0.206008583690987,-1744,-1.06928264868179,-16192,9.92765174739424,1,2.92682926829268,-48,-0.0609756097560976,12,-0.731707317073171,-13,0.0565217391304348,-38,-0.165217391304348,154,-0.751219512195122,
3126838,6250,-480,0.29429797670141,-1696,-1.03985285101165,-16192,9.92765174739424,12,2.86585365853659,-47,-0.731707317073171,10,-0.609756097560976,-12,0.0521739130434783,-41,-0.178260869565217,154,-0.751219512195122,
3127478,6269.53125,-464,0.284488044144696,-1680,-1.03004291845494,-16208,9.93746167995095,-11,2.86585365853659,-47,0.670731707317073,8,-0.487804878048781,-11,0.0478260869565217,-45,-0.195652173913043,156,-0.760975609756098,
3128118,6289.0625,-368,0.225628448804414,-1712,-1.04966278356836,-16208,9.93746167995095,-8,2.92682926829268,-48,0.487804878048781,11,-0.670731707317073,-11,0.0478260869565217,-44,-0.191304347826087,155,-0.75609756097561,
3128758,6308.59375,-352,0.215818516247701,-1648,-1.01042305334151,-16160,9.90803188228081,-6,3.10975609756098,-51,0.365853658536585,8,-0.487804878048781,-11,0.0478260869565217,-41,-0.178260869565217,154,-0.751219512195122,
3129398,6328.125,-416,0.255058246474555,-1664,-1.02023298589822,-16112,9.87860208461067,-2,2.68292682926829,-44,0.121951219512195,10,-0.609756097560976,-13,0.0565217391304348,-39,-0.169565217391304,156,-0.760975609756098,
3130038,6347.65625,-320,0.196198651134273,-1616,-0.990803188228081,-16176,9.91784181483752,-4,2.68292682926829,-44,0.24390243902439,9,-0.548780487804878,-13,0.0565217391304348,-41,-0.178260869565217,156,-0.760975609756098,
3130678,6367.1875,-320,0.196198651134273,-1792,-1.09871244635193,-16160,9.90803188228081,-1,2.31707317073171,-38,0.0609756097560976,10,-0.609756097560976,-11,0.0478260869565217,-43,-0.18695652173913,155,-0.75609756097561,
3131318,6386.71875,-304,0.18638871857756,-1712,-1.04966278356836,-16208,9.93746167995095,4,2.4390243902439,-40,-0.24390243902439,11,-0.670731707317073,-12,0.0521739130434783,-38,-0.165217391304348,154,-0.751219512195122,
3131958,6406.25,-368,0.225628448804414,-1664,-1.02023298589822,-16128,9.88841201716738,-5,2.4390243902439,-40,0.304878048780488,9,-0.548780487804878,-13,0.0565217391304348,-39,-0.169565217391304,155,-0.75609756097561,
3132598,6425.78125,-320,0.196198651134273,-1616,-0.990803188228081,-16176,9.91784181483752,-9,2.4390243902439,-40,0.548780487804878,11,-0.670731707317073,-11,0.0478260869565217,-41,-0.178260869565217,153,-0.746341463414634,
3133238,6445.3125,-336,0.206008583690987,-1600,-0.980993255671367,-16144,9.89822194972409,-2,2.19512195121951,-36,0.121951219512195,4,-0.24390243902439,-12,0.0521739130434783,-40,-0.173913043478261,157,-0.765853658536585,
3133878,6464.84375,-384,0.235438381361128,-1680,-1.03004291845494,-16240,9.95708154506438,4,2.01219512195122,-33,-0.24390243902439,5,-0.304878048780488,-13,0.0565217391304348,-39,-0.169565217391304,153,-0.746341463414634,
3134518,6484.375,-368,0.225628448804414,-1648,-1.01042305334151,-16208,9.93746167995095,-8,2.68292682926829,-44,0.487804878048781,3,-0.182926829268293,-12,0.0521739130434783,-40,-0.173913043478261,155,-0.75609756097561,
3135158,6503.90625,-304,0.18638871857756,-1632,-1.00061312078479,-16176,9.91784181483752,-10,2.5,-41,0.609756097560976,3,-0.182926829268293,-10,0.0434782608695652,-42,-0.182608695652174,155,-0.75609756097561,
3135798,6523.4375,-288,0.176578786020846,-1712,-1.04966278356836,-16160,9.90803188228081,5,2.13414634146341,-35,-0.304878048780488,7,-0.426829268292683,-12,0.0521739130434783,-40,-0.173913043478261,154,-0.751219512195122,
3136438,6542.96875,-400,0.245248313917842,-1632,-1.00061312078479,-16176,9.91784181483752,4,1.82926829268293,-30,-0.24390243902439,6,-0.365853658536585,-12,0.0521739130434783,-45,-0.195652173913043,156,-0.760975609756098,
3137078,6562.5,-352,0.215818516247701,-1584,-0.971183323114654,-16208,9.93746167995095,-3,1.64634146341463,-27,0.182926829268293,3,-0.182926829268293,-10,0.0434782608695652,-45,-0.195652173913043,156,-0.760975609756098,
3137718,6582.03125,-416,0.255058246474555,-1600,-0.980993255671367,-16192,9.92765174739424,4,1.64634146341463,-27,-0.24390243902439,7,-0.426829268292683,-12,0.0521739130434783,-43,-0.18695652173913,156,-0.760975609756098,
3138358,6601.5625,-416,0.255058246474555,-1664,-1.02023298589822,-16176,9.91784181483752,7,1.64634146341463,-27,-0.426829268292683,6,-0.365853658536585,-11,0.0478260869565217,-39,-0.169565217391304,156,-0.760975609756098,
3138998,6621.09375,-432,0.264868179031269,-1632,-1.00061312078479,-16256,9.96689147762109,12,1.52439024390244,-25,-0.731707317073171,6,-0.365853658536585,-11,0.0478260869565217,-41,-0.178260869565217,156,-0.760975609756098,
3139638,6640.625,-416,0.255058246474555,-1664,-1.02023298589822,-16304,9.99632127529123,7,1.58536585365854,-26,-0.426829268292683,9,-0.548780487804878,-9,0.0391304347826087,-41,-0.178260869565217,155,-0.75609756097561,
3140278,6660.15625,-416,0.255058246474555,-1808,-1.10852237890864,-16368,10.0355610055181,11,1.58536585365854,-26,-0.670731707317073,9,-0.548780487804878,-12,0.0521739130434783,-37,-0.160869565217391,153,-0.746341463414634,
3140918,6679.6875,-528,0.323727774371551,-1664,-1.02023298589822,-16304,9.99632127529123,4,1.82926829268293,-30,-0.24390243902439,6,-0.365853658536585,-11,0.0478260869565217,-41,-0.178260869565217,155,-0.75609756097561,
3141558,6699.21875,-384,0.235438381361128,-1632,-1.00061312078479,-16400,10.0551808706315,-5,1.95121951219512,-32,0.304878048780488,0,0,-10,0.0434782608695652,-43,-0.18695652173913,154,-0.751219512195122,
3142198,6718.75,-384,0.235438381361128,-1776,-1.08890251379522,-16384,10.0453709380748,6,2.19512195121951,-36,-0.365853658536585,6,-0.365853658536585,-10,0.0434782608695652,-41,-0.178260869565217,154,-0.751219512195122,
3142838,6738.28125,-592,0.362967504598406,-1776,-1.08890251379522,-16272,9.9767014101778,3,2.6219512195122,-43,-0.182926829268293,7,-0.426829268292683,-12,0.0521739130434783,-40,-0.173913043478261,157,-0.765853658536585,
3143478,6757.8125,-464,0.284488044144696,-1760,-1.0790925812385,-16272,9.9767014101778,-19,2.86585365853659,-47,1.15853658536585,8,-0.487804878048781,-11,0.0478260869565217,-42,-0.182608695652174,154,-0.751219512195122,
3144118,6777.34375,-352,0.215818516247701,-1728,-1.05947271612508,-16288,9.98651134273452,-15,2.6219512195122,-43,0.914634146341463,8,-0.487804878048781,-12,0.0521739130434783,-39,-0.169565217391304,153,-0.746341463414634,
3144758,6796.875,-384,0.235438381361128,-1728,-1.05947271612508,-16304,9.99632127529123,8,2.6219512195122,-43,-0.487804878048781,5,-0.304878048780488,-12,0.0521739130434783,-41,-0.178260869565217,155,-0.75609756097561,
3145398,6816.40625,-464,0.284488044144696,-1728,-1.05947271612508,-16304,9.99632127529123,4,2.5,-41,-0.24390243902439,6,-0.365853658536585,-10,0.0434782608695652,-41,-0.178260869565217,155,-0.75609756097561,
3146038,6835.9375,-448,0.274678111587983,-1792,-1.09871244635193,-16288,9.98651134273452,-5,2.6219512195122,-43,0.304878048780488,9,-0.548780487804878,-11,0.0478260869565217,-37,-0.160869565217391,154,-0.751219512195122,
3146678,6855.46875,-448,0.274678111587983,-1792,-1.09871244635193,-16256,9.96689147762109,9,2.74390243902439,-45,-0.548780487804878,12,-0.731707317073171,-13,0.0565217391304348,-39,-0.169565217391304,154,-0.751219512195122,
3147318,6875,-480,0.29429797670141,-1728,-1.05947271612508,-16256,9.96689147762109,-4,3.10975609756098,-51,0.24390243902439,5,-0.304878048780488,-11,0.0478260869565217,-39,-0.169565217391304,155,-0.75609756097561,
3147958,6894.53125,-368,0.225628448804414,-1808,-1.10852237890864,-16176,9.91784181483752,-17,3.10975609756098,-51,1.03658536585366,3,-0.182926829268293,-12,0.0521739130434783,-39,-0.169565217391304,154,-0.751219512195122,
3148598,6914.0625,-368,0.225628448804414,-1824,-1.11833231146536,-16096,9.86879215205395,-6,3.29268292682927,-54,0.365853658536585,4,-0.24390243902439,-10,0.0434782608695652,-41,-0.178260869565217,154,-0.751219512195122,
3149238,6933.59375,-352,0.215818516247701,-1824,-1.11833231146536,-16144,9.89822194972409,-1,3.10975609756098,-51,0.0609756097560976,3,-0.182926829268293,-14,0.0608695652173913,-41,-0.178260869565217,155,-0.75609756097561,
3149878,6953.125,-304,0.18638871857756,-1776,-1.08890251379522,-16112,9.87860208461067,-6,2.98780487804878,-49,0.365853658536585,2,-0.121951219512195,-11,0.0478260869565217,-41,-0.178260869565217,156,-0.760975609756098,
3150518,6972.65625,-336,0.206008583690987,-1824,-1.11833231146536,-16080,9.85898221949724,2,2.6219512195122,-43,-0.121951219512195,-3,0.182926829268293,-11,0.0478260869565217,-40,-0.173913043478261,156,-0.760975609756098,
3151158,6992.1875,-480,0.29429797670141,-1792,-1.09871244635193,-16096,9.86879215205395,-3,2.68292682926829,-44,0.182926829268293,2,-0.121951219512195,-12,0.0521739130434783,-38,-0.165217391304348,155,-0.75609756097561,
3151798,7011.71875,-416,0.255058246474555,-1792,-1.09871244635193,-16048,9.83936235438381,-5,2.68292682926829,-44,0.304878048780488,5,-0.304878048780488,-12,0.0521739130434783,-40,-0.173913043478261,154,-0.751219512195122,
3152438,7031.25,-432,0.264868179031269,-1744,-1.06928264868179,-16016,9.81974248927039,3,2.6219512195122,-43,-0.182926829268293,2,-0.121951219512195,-10,0.0434782608695652,-41,-0.178260869565217,153,-0.746341463414634,
3153078,7050.78125,-496,0.304107909258124,-1760,-1.0790925812385,-16064,9.84917228694053,6,2.01219512195122,-33,-0.365853658536585,4,-0.24390243902439,-10,0.0434782608695652,-37,-0.160869565217391,154,-0.751219512195122,
3153718,7070.3125,-432,0.264868179031269,-1696,-1.03985285101165,-16032,9.8295524218271,-5,1.95121951219512,-32,0.304878048780488,4,-0.24390243902439,-12,0.0521739130434783,-44,-0.191304347826087,155,-0.75609756097561,
3154358,7089.84375,-400,0.245248313917842,-1696,-1.03985285101165,-16064,9.84917228694053,2,1.52439024390244,-25,-0.121951219512195,5,-0.304878048780488,-12,0.0521739130434783,-37,-0.160869565217391,154,-0.751219512195122,
3154998,7109.375,-432,0.264868179031269,-1680,-1.03004291845494,-16112,9.87860208461067,14,1.34146341463415,-22,-0.853658536585366,9,-0.548780487804878,-12,0.0521739130434783,-43,-0.18695652173913,155,-0.75609756097561,
3155638,7128.90625,-512,0.313917841814838,-1776,-1.08890251379522,-16128,9.88841201716738,10,1.21951219512195,-20,-0.609756097560976,14,-0.853658536585366,-11,0.0478260869565217,-44,-0.191304347826087,157,-0.765853658536585,
3156278,7148.4375,-560,0.343347639484979,-1760,-1.0790925812385,-16128,9.88841201716738,-2,1.40243902439024,-23,0.121951219512195,15,-0.914634146341463,-11,0.0478260869565217,-45,-0.195652173913043,156,-0.760975609756098,
3156918,7167.96875,-384,0.235438381361128,-1776,-1.08890251379522,-16176,9.91784181483752,-15,1.15853658536585,-19,0.914634146341463,12,-0.731707317073171,-10,0.0434782608695652,-44,-0.191304347826087,156,-0.760975609756098,
3157558,7187.5,-416,0.255058246474555,-1744,-1.06928264868179,-16160,9.90803188228081,-3,1.09756097560976,-18,0.182926829268293,10,-0.609756097560976,-9,0.0391304347826087,-45,-0.195652173913043,156,-0.760975609756098,
3158198,7207.03125,-448,0.274678111587983,-1824,-1.11833231146536,-16160,9.90803188228081,6,0.792682926829268,-13,-0.365853658536585,11,-0.670731707317073,-11,0.0478260869565217,-41,-0.178260869565217,156,-0.760975609756098,
3158838,7226.5625,-480,0.29429797670141,-1760,-1.0790925812385,-16256,9.96689147762109,14,0.792682926829268,-13,-0.853658536585366,13,-0.792682926829268,-11,0.0478260869565217,-41,-0.178260869565217,156,-0.760975609756098,
3159478,7246.09375,-448,0.274678111587983,-1792,-1.09871244635193,-16272,9.9767014101778,8,1.21951219512195,-20,-0.487804878048781,13,-0.792682926829268,-10,0.0434782608695652,-41,-0.178260869565217,155,-0.75609756097561,
3160118,7265.625,-432,0.264868179031269,-1840,-1.12814224402207,-16272,9.9767014101778,-8,1.28048780487805,-21,0.487804878048781,8,-0.487804878048781,-12,0.0521739130434783,-36,-0.156521739130435,154,-0.751219512195122,
3160758,7285.15625,-496,0.304107909258124,-1824,-1.11833231146536,-16256,9.96689147762109,-17,1.40243902439024,-23,1.03658536585366,4,-0.24390243902439,-10,0.0434782608695652,-42,-0.182608695652174,154,-0.751219512195122,
3161398,7304.6875,-304,0.18638871857756,-1904,-1.16738197424893,-16224,9.94727161250766,-13,1.70731707317073,-28,0.792682926829268,3,-0.182926829268293,-13,0.0565217391304348,-39,-0.169565217391304,155,-0.75609756097561,
3162038,7324.21875,-448,0.274678111587983,-1760,-1.0790925812385,-16224,9.94727161250766,2,1.70731707317073,-28,-0.121951219512195,3,-0.182926829268293,-11,0.0478260869565217,-38,-0.165217391304348,153,-0.746341463414634,
3162678,7343.75,-448,0.274678111587983,-1808,-1.10852237890864,-16224,9.94727161250766,-12,1.82926829268293,-30,0.731707317073171,1,-0.0609756097560976,-11,0.0478260869565217,-42,-0.182608695652174,156,-0.760975609756098,
3163318,7363.28125,-400,0.245248313917842,-1888,-1.15757204169221,-16240,9.95708154506438,-19,1.76829268292683,-29,1.15853658536585,2,-0.121951219512195,-9,0.0391304347826087,-41,-0.178260869565217,156,-0.760975609756098,
3163958,7382.8125,-352,0.215818516247701,-1904,-1.16738197424893,-16304,9.99632127529123,-15,1.46341463414634,-24,0.914634146341463,-2,0.121951219512195,-14,0.0608695652173913,-38,-0.165217391304348,154,-0.751219512195122,
3164598,7402.34375,-400,0.245248313917842,-2000,-1.22624156958921,-16304,9.99632127529123,-9,1.95121951219512,-32,0.548780487804878,4,-0.24390243902439,-13,0.0565217391304348,-41,-0.178260869565217,154,-0.751219512195122,
3165238,7421.875,-448,0.274678111587983,-1968,-1.20662170447578,-16288,9.98651134273452,-18,2.25609756097561,-37,1.09756097560976,2,-0.121951219512195,-12,0.0521739130434783,-40,-0.173913043478261,153,-0.746341463414634,
3165878,7441.40625,-416,0.255058246474555,-1984,-1.2164316370325,-16256,9.96689147762109,-30,2.5609756097561,-42,1.82926829268293,-3,0.182926829268293,-13,0.0565217391304348,-38,-0.165217391304348,155,-0.75609756097561,
3166518,7460.9375,-304,0.18638871857756,-2016,-1.23605150214592,-16256,9.96689147762109,-30,2.5609756097561,-42,1.82926829268293,-3,0.182926829268293,-12,0.0521739130434783,-42,-0.182608695652174,156,-0.760975609756098,
3167158,7480.46875,-304,0.18638871857756,-2016,-1.23605150214592,-16160,9.90803188228081,-7,2.5609756097561,-42,0.426829268292683,-7,0.426829268292683,-12,0.0521739130434783,-39,-0.169565217391304,156,-0.760975609756098,
3167798,7500,-352,0.215818516247701,-1952,-1.19681177191907,-16256,9.96689147762109,6,2.31707317073171,-38,-0.365853658536585,-9,0.548780487804878,-11,0.0478260869565217,-39,-0.169565217391304,156,-0.760975609756098,
3168438,7519.53125,-464,0.284488044144696,-1952,-1.19681177191907,-16272,9.9767014101778,1,2.74390243902439,-45,-0.0609756097560976,-17,1.03658536585366,-13,0.0565217391304348,-39,-0.169565217391304,156,-0.760975609756098,
3169078,7539.0625,-464,0.284488044144696,-2016,-1.23605150214592,-16176,9.91784181483752,-7,2.80487804878049,-46,0.426829268292683,-12,0.731707317073171,-11,0.0478260869565217,-44,-0.191304347826087,157,-0.765853658536585,
3169718,7558.59375,-384,0.235438381361128,-2016,-1.23605150214592,-16144,9.89822194972409,-19,3.17073170731707,-52,1.15853658536585,-15,0.914634146341463,-11,0.0478260869565217,-43,-0.18695652173913,156,-0.760975609756098,
3170358,7578.125,-368,0.225628448804414,-1984,-1.2164316370325,-16080,9.85898221949724,-24,2.98780487804878,-49,1.46341463414634,-14,0.853658536585366,-13,0.0565217391304348,-39,-0.169565217391304,155,-0.75609756097561,
3170998,7597.65625,-464,0.284488044144696,-1968,-1.20662170447578,-16096,9.86879215205395,-5,2.68292682926829,-44,0.304878048780488,-12,0.731707317073171,-11,0.0478260869565217,-38,-0.165217391304348,153,-0.746341463414634,
3171638,7617.1875,-512,0.313917841814838,-1920,-1.17719190680564,-16080,9.85898221949724,0,2.5609756097561,-42,0,-9,0.548780487804878,-11,0.0478260869565217,-42,-0.182608695652174,157,-0.765853658536585,
3172278,7636.71875,-560,0.343347639484979,-2000,-1.22624156958921,-16096,9.86879215205395,-7,2.37804878048781,-39,0.426829268292683,-11,0.670731707317073,-10,0.0434782608695652,-41,-0.178260869565217,155,-0.75609756097561,
3172918,7656.25,-544,0.333537706928265,-2032,-1.24586143470264,-16048,9.83936235438381,-9,2.31707317073171,-38,0.548780487804878,-9,0.548780487804878,-11,0.0478260869565217,-40,-0.173913043478261,155,-0.75609756097561,
3173558,7675.78125,-416,0.255058246474555,-1984,-1.2164316370325,-16096,9.86879215205395,-25,2.31707317073171,-38,1.52439024390244,-11,0.670731707317073,-13,0.0565217391304348,-41,-0.178260869565217,154,-0.751219512195122,
3174198,7695.3125,-480,0.29429797670141,-2000,-1.22624156958921,-16080,9.85898221949724,-19,2.31707317073171,-38,1.15853658536585,-10,0.609756097560976,-12,0.0521739130434783,-40,-0.173913043478261,154,-0.751219512195122,
3174838,7714.84375,-528,0.323727774371551,-2032,-1.24586143470264,-16144,9.89822194972409,-1,1.89024390243902,-31,0.0609756097560976,-5,0.304878048780488,-12,0.0521739130434783,-38,-0.165217391304348,155,-0.75609756097561,
3175478,7734.375,-656,0.402207234825261,-2016,-1.23605150214592,-16144,9.89822194972409,-3,1.82926829268293,-30,0.182926829268293,1,-0.0609756097560976,-9,0.0391304347826087,-44,-0.191304347826087,155,-0.75609756097561,
3176118,7753.90625,-560,0.343347639484979,-1984,-1.2164316370325,-16080,9.85898221949724,-23,2.25609756097561,-37,1.40243902439024,4,-0.24390243902439,-12,0.0521739130434783,-41,-0.178260869565217,154,-0.751219512195122,
3176758,7773.4375,-368,0.225628448804414,-2032,-1.24586143470264,-16128,9.88841201716738,-39,2.19512195121951,-36,2.37804878048781,6,-0.365853658536585,-12,0.0521739130434783,-38,-0.165217391304348,155,-0.75609756097561,
3177398,7792.96875,-464,0.284488044144696,-2096,-1.28510116492949,-16224,9.94727161250766,-21,1.82926829268293,-30,1.28048780487805,7,-0.426829268292683,-14,0.0608695652173913,-42,-0.182608695652174,155,-0.75609756097561,
3178038,7812.5,-480,0.29429797670141,-2032,-1.24586143470264,-16368,10.0355610055181,13,1.82926829268293,-30,-0.792682926829268,9,-0.548780487804878,-12,0.0521739130434783,-35,-0.152173913043478,154,-0.751219512195122,
3178678,7832.03125,-544,0.333537706928265,-2048,-1.25567136725935,-16288,9.98651134273452,10,2.25609756097561,-37,-0.609756097560976,10,-0.609756097560976,-12,0.0521739130434783,-39,-0.169565217391304,156,-0.760975609756098,
3179318,7851.5625,-496,0.304107909258124,-2032,-1.24586143470264,-16400,10.0551808706315,0,2.80487804878049,-46,0,9,-0.548780487804878,-11,0.0478260869565217,-40,-0.173913043478261,155,-0.75609756097561,
3179958,7871.09375,-432,0.264868179031269,-2304,-1.41263028816677,-16352,10.0257510729614,-3,2.5609756097561,-42,0.182926829268293,6,-0.365853658536585,-15,0.0652173913043478,-36,-0.156521739130435,154,-0.751219512195122,
3180598,7890.625,-608,0.37277743715512,-1984,-1.2164316370325,-16320,10.0061312078479,4,3.04878048780488,-50,-0.24390243902439,11,-0.670731707317073,-14,0.0608695652173913,-40,-0.173913043478261,156,-0.760975609756098,
3181238,7910.15625,-544,0.333537706928265,-2048,-1.25567136725935,-16240,9.95708154506438,-4,2.86585365853659,-47,0.24390243902439,11,-0.670731707317073,-13,0.0565217391304348,-39,-0.169565217391304,154,-0.751219512195122,
3181878,7929.6875,-560,0.343347639484979,-2032,-1.24586143470264,-16368,10.0355610055181,-12,3.47560975609756,-57,0.731707317073171,23,-1.40243902439024,-12,0.0521739130434783,-38,-0.165217391304348,155,-0.75609756097561,
3182518,7949.21875,-528,0.323727774371551,-2032,-1.24586143470264,-16352,10.0257510729614,-26,3.71951219512195,-61,1.58536585365854,23,-1.40243902439024,-10,0.0434782608695652,-41,-0.178260869565217,156,-0.760975609756098,
3183158,7968.75,-368,0.225628448804414,-2000,-1.22624156958921,-16304,9.99632127529123,-28,3.84146341463415,-63,1.70731707317073,26,-1.58536585365854,-10,0.0434782608695652,-41,-0.178260869565217,157,-0.765853658536585,
3183798,7988.28125,-288,0.176578786020846,-2032,-1.24586143470264,-16256,9.96689147762109,-17,4.08536585365854,-67,1.03658536585366,25,-1.52439024390244,-12,0.0521739130434783,-36,-0.156521739130435,155,-0.75609756097561,
3184438,8007.8125,-240,0.147148988350705,-2032,-1.24586143470264,-16272,9.9767014101778,-1,4.02439024390244,-66,0.0609756097560976,22,-1.34146341463415,-12,0.0521739130434783,-44,-0.191304347826087,157,-0.765853658536585,
3185078,8027.34375,-240,0.147148988350705,-2000,-1.22624156958921,-16256,9.96689147762109,2,4.02439024390244,-66,-0.121951219512195,14,-0.853658536585366,-13,0.0565217391304348,-43,-0.18695652173913,156,-0.760975609756098,
3185718,8046.875,-304,0.18638871857756,-2080,-1.27529123237278,-16064,9.84917228694053,5,4.32926829268293,-71,-0.304878048780488,13,-0.792682926829268,-10,0.0434782608695652,-43,-0.18695652173913,156,-0.760975609756098,
3186358,8066.40625,-368,0.225628448804414,-1968,-1.20662170447578,-15952,9.78050275904353,-8,4.39024390243902,-72,0.487804878048781,7,-0.426829268292683,-15,0.0652173913043478,-37,-0.160869565217391,154,-0.751219512195122,
3186998,8085.9375,-320,0.196198651134273,-1952,-1.19681177191907,-15984,9.80012262415696,-20,4.08536585365854,-67,1.21951219512195,5,-0.304878048780488,-12,0.0521739130434783,-38,-0.165217391304348,154,-0.751219512195122,
3187638,8105.46875,-272,0.166768853464132,-1872,-1.1477621091355,-15968,9.79031269160024,-13,3.41463414634146,-56,0.792682926829268,3,-0.182926829268293,-13,0.0565217391304348,-38,-0.165217391304348,155,-0.75609756097561,
3188278,8125,-352,0.215818516247701,-2016,-1.23605150214592,-16016,9.81974248927039,9,3.35365853658537,-55,-0.548780487804878,7,-0.426829268292683,-13,0.0565217391304348,-35,-0.152173913043478,154,-0.751219512195122,
3188918,8144.53125,-512,0.313917841814838,-1920,-1.17719190680564,-16112,9.87860208461067,3,3.53658536585366,-58,-0.182926829268293,13,-0.792682926829268,-12,0.0521739130434783,-44,-0.191304347826087,158,-0.770731707317073,
3189558,8164.0625,6304,-3.86511342734519,7072,4.33599019006744,-18672,11.4481912936849,3660,1.64634146341463,-27,-223.170731707317,-1649,100.548780487805,-10,0.0434782608695652,-41,-0.178260869565217,155,-0.75609756097561,
3190198,8183.59375,-1920,1.17719190680564,64,0.0392397302268547,-15504,9.50582464745555,2061,-6.34146341463415,104,-125.670731707317,194,-11.8292682926829,-7,0.0304347826086957,-38,-0.165217391304348,149,-0.726829268292683,
3190838,8203.125,-4752,2.91354996934396,384,0.235438381361128,-15936,9.77069282648682,1136,4.45121951219512,-73,-69.2682926829268,67,-4.08536585365854,-4,0.0173913043478261,-43,-0.18695652173913,152,-0.741463414634146,
3191478,8222.65625,-4736,2.90374003678725,-1376,-0.843654199877376,-16240,9.95708154506438,94,2.19512195121951,-36,-5.73170731707317,178,-10.8536585365854,-4,0.0173913043478261,-36,-0.156521739130435,148,-0.721951219512195,
3192118,8242.1875,-4304,2.63887185775598,-1296,-0.794604537093807,-17056,10.4573881054568,-752,2.31707317073171,-38,45.8536585365854,88,-5.36585365853659,-7,0.0304347826086957,-39,-0.169565217391304,150,-0.731707317073171,
3192758,8261.71875,-1648,1.01042305334151,-1616,-0.990803188228081,-17840,10.9380748007357,-1326,1.15853658536585,-19,80.8536585365854,61,-3.71951219512195,-10,0.0434782608695652,-39,-0.169565217391304,153,-0.746341463414634,
3193398,8281.25,-784,0.48068669527897,-2640,-1.61863887185776,-17936,10.996934396076,-1109,-22.3170731707317,366,67.6219512195122,74,-4.51219512195122,-12,0.0521739130434783,-42,-0.182608695652174,156,-0.760975609756098,
3194038,8300.78125,720,-0.441446965052115,-5264,-3.2274678111588,-17728,10.8694052728387,-323,5.97560975609756,-98,19.6951219512195,52,-3.17073170731707,-12,0.0521739130434783,-44,-0.191304347826087,157,-0.765853658536585,
3194678,8320.3125,1456,-0.892703862660944,-2288,-1.40282035561006,-17552,10.7614960147149,172,2.6219512195122,-43,-10.4878048780488,100,-6.09756097560976,-13,0.0565217391304348,-38,-0.165217391304348,155,-0.75609756097561,
3195318,8339.84375,224,-0.137339055793991,-2560,-1.56958920907419,-17376,10.653586756591,188,4.75609756097561,-78,-11.4634146341463,64,-3.90243902439024,-11,0.0478260869565217,-43,-0.18695652173913,156,-0.760975609756098,
3195958,8359.375,-224,0.137339055793991,-2496,-1.53034947884733,-17312,10.6143470263642,72,6.34146341463415,-104,-4.39024390243902,26,-1.58536585365854,-11,0.0478260869565217,-41,-0.178260869565217,156,-0.760975609756098,
3196598,8378.90625,-496,0.304107909258124,-2320,-1.42244022072348,-16960,10.3985285101165,-38,8.47560975609756,-139,2.31707317073171,2,-0.121951219512195,-12,0.0521739130434783,-39,-0.169565217391304,156,-0.760975609756098,
3197238,8398.4375,-160,0.0980993255671367,-2448,-1.50091968117719,-16656,10.2121397915389,-4,9.75609756097561,-160,0.24390243902439,3,-0.182926829268293,-13,0.0565217391304348,-36,-0.156521739130435,153,-0.746341463414634,
3197878,8417.96875,-176,0.10790925812385,-2336,-1.4322501532802,-16480,10.1042305334151,20,9.69512195121951,-159,-1.21951219512195,-1,0.0609756097560976,-13,0.0565217391304348,-36,-0.156521739130435,154,-0.751219512195122,
3198518,8437.5,-208,0.127529123237278,-2144,-1.31453096259963,-16064,9.84917228694053,24,8.96341463414634,-147,-1.46341463414634,-8,0.487804878048781,-11,0.0478260869565217,-40,-0.173913043478261,156,-0.760975609756098,
3199158,8457.03125,-160,0.0980993255671367,-2048,-1.25567136725935,-15824,9.70202329858982,53,8.29268292682927,-136,-3.23170731707317,-15,0.914634146341463,-11,0.0478260869565217,-42,-0.182608695652174,156,-0.760975609756098,
3199798,8476.5625,-256,0.156958920907419,-1936,-1.18700183936235,-15680,9.6137339055794,69,7.80487804878049,-128,-4.20731707317073,-13,0.792682926829268,-11,0.0478260869565217,-40,-0.173913043478261,156,-0.760975609756098,
3200438,8496.09375,-320,0.196198651134273,-1936,-1.18700183936235,-15600,9.56468424279583,66,7.13414634146342,-117,-4.02439024390244,-9,0.548780487804878,-11,0.0478260869565217,-39,-0.169565217391304,154,-0.751219512195122,
3201078,8515.625,-560,0.343347639484979,-1840,-1.12814224402207,-15648,9.59411404046597,7,6.89024390243902,-113,-0.426829268292683,-4,0.24390243902439,-11,0.0478260869565217,-41,-0.178260869565217,154,-0.751219512195122,
3201718,8535.15625,-608,0.37277743715512,-1712,-1.04966278356836,-15712,9.63335377069283,-22,6.46341463414634,-106,1.34146341463415,2,-0.121951219512195,-12,0.0521739130434783,-40,-0.173913043478261,154,-0.751219512195122,
3202358,8554.6875,-320,0.196198651134273,-1808,-1.10852237890864,-15840,9.71183323114654,-12,5.79268292682927,-95,0.731707317073171,-1,0.0609756097560976,-12,0.0521739130434783,-42,-0.182608695652174,156,-0.760975609756098,
3202998,8574.21875,-352,0.215818516247701,-1888,-1.15757204169221,-15776,9.67259350091968,-1,5.48780487804878,-90,0.0609756097560976,-7,0.426829268292683,-12,0.0521739130434783,-41,-0.178260869565217,153,-0.746341463414634,
3203638,8593.75,7616,-4.66952789699571,7696,4.71857755977928,-2384,1.46167995095034,1857,-148.170731707317,2430,-113.231707317073,146,-8.90243902439025,-6,0.0260869565217391,-43,-0.18695652173913,153,-0.746341463414634,
3204278,8613.28125,-3152,1.93255671367259,560,0.343347639484979,-11488,7.04353157572042,1153,-2.92682926829268,48,-70.3048780487805,407,-24.8170731707317,-5,0.0217391304347826,-38,-0.165217391304348,149,-0.726829268292683,
3204918,8632.8125,-6832,4.18884120171674,-880,-0.539546290619252,-15072,9.24095646842428,-321,10.4878048780488,-172,19.5731707317073,200,-12.1951219512195,-4,0.0173913043478261,-43,-0.18695652173913,150,-0.731707317073171,
3205558,8652.34375,-4544,2.78602084610668,-2512,-1.54015941140405,-15920,9.7608828939301,-978,16.5243902439024,-271,59.6341463414634,120,-7.31707317073171,-5,0.0217391304347826,-42,-0.182608695652174,149,-0.726829268292683,
3206198,8671.875,-3216,1.97179644389945,-1504,-0.922133660331085,-16624,10.1925199264255,-1334,11.5853658536585,-190,81.3414634146341,-5,0.304878048780488,-6,0.0260869565217391,-39,-0.169565217391304,151,-0.736585365853659,
3206838,8691.40625,-800,0.490496627835684,1568,0.96137339055794,-17472,10.7124463519313,-1017,-12.5609756097561,206,62.0121951219512,47,-2.86585365853659,-8,0.0347826086956522,-45,-0.195652173913043,154,-0.751219512195122,
3207478,8710.9375,-464,0.284488044144696,-2592,-1.58920907418761,-17360,10.6437768240343,-691,-2.4390243902439,40,42.1341463414634,139,-8.47560975609756,-11,0.0478260869565217,-39,-0.169565217391304,156,-0.760975609756098,
3208118,8730.46875,1568,-0.96137339055794,-5008,-3.07050889025138,-17360,10.6437768240343,-169,4.87804878048781,-80,10.3048780487805,42,-2.5609756097561,-13,0.0565217391304348,-40,-0.173913043478261,156,-0.760975609756098,
3208758,8750,1232,-0.755364806866953,-1824,-1.11833231146536,-17088,10.4770079705702,266,1.03658536585366,-17,-16.219512195122,70,-4.26829268292683,-11,0.0478260869565217,-44,-0.191304347826087,157,-0.765853658536585,
3209398,8769.53125,-192,0.117719190680564,-2288,-1.40282035561006,-17056,10.4573881054568,206,3.10975609756098,-51,-12.5609756097561,48,-2.92682926829268,-10,0.0434782608695652,-43,-0.18695652173913,157,-0.765853658536585,
3210038,8789.0625,-480,0.29429797670141,-2224,-1.3635806253832,-16992,10.4181483752299,46,4.75609756097561,-78,-2.80487804878049,4,-0.24390243902439,-11,0.0478260869565217,-41,-0.178260869565217,154,-0.751219512195122,
3210678,8808.59375,-624,0.382587369711833,-2096,-1.28510116492949,-16768,10.2808093194359,-83,6.15853658536585,-101,5.0609756097561,-18,1.09756097560976,-12,0.0521739130434783,-41,-0.178260869565217,155,-0.75609756097561,
3211318,8828.125,0,0,-2160,-1.32434089515635,-16496,10.1140404659718,-24,6.58536585365854,-108,1.46341463414634,-32,1.95121951219512,-11,0.0478260869565217,-43,-0.18695652173913,157,-0.765853658536585,
3211958,8847.65625,32,-0.0196198651134273,-2112,-1.2949110974862,-16224,9.94727161250766,73,7.07317073170732,-116,-4.45121951219512,-35,2.13414634146341,-12,0.0521739130434783,-43,-0.18695652173913,155,-0.75609756097561,
3212598,8867.1875,-448,0.274678111587983,-1952,-1.19681177191907,-16016,9.81974248927039,46,6.09756097560976,-100,-2.80487804878049,-51,3.10975609756098,-12,0.0521739130434783,-41,-0.178260869565217,155,-0.75609756097561,
3213238,8886.71875,-480,0.29429797670141,-1936,-1.18700183936235,-16064,9.84917228694053,-1,5.67073170731707,-93,0.0609756097560976,-67,4.08536585365854,-11,0.0478260869565217,-38,-0.165217391304348,155,-0.75609756097561,
3213878,8906.25,-464,0.284488044144696,-2080,-1.27529123237278,-16096,9.86879215205395,2,6.40243902439024,-105,-0.121951219512195,-57,3.47560975609756,-11,0.0478260869565217,-44,-0.191304347826087,157,-0.765853658536585,
3214518,8925.78125,-640,0.392397302268547,-2000,-1.22624156958921,-16032,9.8295524218271,-24,6.64634146341464,-109,1.46341463414634,-50,3.04878048780488,-13,0.0565217391304348,-42,-0.182608695652174,154,-0.751219512195122,
3215158,8945.3125,-608,0.37277743715512,-1840,-1.12814224402207,-16000,9.80993255671367,-59,6.40243902439024,-105,3.59756097560976,-45,2.74390243902439,-10,0.0434782608695652,-44,-0.191304347826087,155,-0.75609756097561,
3215798,8964.84375,-496,0.304107909258124,-1824,-1.11833231146536,-15936,9.77069282648682,-56,5.60975609756098,-92,3.41463414634146,-43,2.6219512195122,-9,0.0391304347826087,-41,-0.178260869565217,156,-0.760975609756098,
3216438,8984.375,-336,0.206008583690987,-1840,-1.12814224402207,-15952,9.78050275904353,-11,4.75609756097561,-78,0.670731707317073,-39,2.37804878048781,-11,0.0478260869565217,-40,-0.173913043478261,157,-0.765853658536585,
3217078,9003.90625,-464,0.284488044144696,-1872,-1.1477621091355,-15952,9.78050275904353,22,4.32926829268293,-71,-1.34146341463415,-35,2.13414634146341,-10,0.0434782608695652,-44,-0.191304347826087,156,-0.760975609756098,
3217718,9023.4375,-656,0.402207234825261,-1760,-1.0790925812385,-16112,9.87860208461067,-6,4.26829268292683,-70,0.365853658536585,-38,2.31707317073171,-11,0.0478260869565217,-44,-0.191304347826087,157,-0.765853658536585,
3218358,9042.96875,16000,-9.80993255671367,-17216,-10.5554874310239,1808,-1.10852237890864,2852,-547.073170731707,8972,-173.90243902439,-2152,131.219512195122,-11,0.0478260869565217,-42,-0.182608695652174,156,-0.760975609756098,
3218998,9062.5,6592,-4.04169221336603,9888,6.06253832004905,-10032,6.15082771305947,2219,-12.0121951219512,197,-135.30487804878,217,-13.2317073170732,-12,0.0521739130434783,-39,-0.169565217391304,153,-0.746341463414634,
3219638,9082.03125,-7216,4.42427958307787,-704,-0.431637032495402,-14448,8.85836909871245,595,2.07317073170732,-34,-36.280487804878,222,-13.5365853658537,-5,0.0217391304347826,-43,-0.18695652173913,153,-0.746341463414634,
3220278,9101.5625,-4144,2.54077253218884,-2032,-1.24586143470264,-15904,9.75107296137339,-313,11.8292682926829,-194,19.0853658536585,139,-8.47560975609756,-5,0.0217391304347826,-43,-0.18695652173913,152,-0.741463414634146,
3220918,9121.09375,-4064,2.49172286940527,-2080,-1.27529123237278,-16128,9.88841201716738,-802,15.4878048780488,-254,48.9024390243902,48,-2.92682926829268,-6,0.0260869565217391,-38,-0.165217391304348,150,-0.731707317073171,
3221558,9140.625,-3120,1.91293684855917,-1040,-0.637645616186389,-17216,10.5554874310239,-1250,10.9756097560976,-180,76.219512195122,46,-2.80487804878049,-9,0.0391304347826087,-39,-0.169565217391304,153,-0.746341463414634,
3222198,9160.15625,-224,0.137339055793991,1520,0.931943592887799,-17888,10.9675045984059,-978,-32.1341463414634,527,59.6341463414634,62,-3.78048780487805,-11,0.0478260869565217,-42,-0.182608695652174,155,-0.75609756097561,
3222838,9179.6875,64,-0.0392397302268547,-4256,-2.60944206008584,-17600,10.790925812385,-566,-2.80487804878049,46,34.5121951219512,161,-9.81707317073171,-13,0.0565217391304348,-42,-0.182608695652174,157,-0.765853658536585,
3223478,9199.21875,1504,-0.922133660331085,-4752,-2.91354996934396,-17616,10.8007357449418,-150,4.39024390243902,-72,9.14634146341463,58,-3.53658536585366,-12,0.0521739130434783,-41,-0.178260869565217,155,-0.75609756097561,
3224118,9218.75,768,-0.470876762722256,-1984,-1.2164316370325,-17424,10.6830165542612,196,0.914634146341463,-15,-11.9512195121951,90,-5.48780487804878,-13,0.0565217391304348,-38,-0.165217391304348,156,-0.760975609756098,
3224758,9238.28125,-240,0.147148988350705,-2640,-1.61863887185776,-17216,10.5554874310239,104,3.17073170731707,-52,-6.34146341463415,45,-2.74390243902439,-14,0.0608695652173913,-39,-0.169565217391304,156,-0.760975609756098,
3225398,9257.8125,-256,0.156958920907419,-2368,-1.45187001839362,-16976,10.4083384426732,-38,5,-82,2.31707317073171,-7,0.426829268292683,-13,0.0565217391304348,-38,-0.165217391304348,158,-0.770731707317073,
3226038,9277.34375,48,-0.029429797670141,-2432,-1.49110974862048,-16608,10.1827099938688,-72,6.46341463414634,-106,4.39024390243902,-24,1.46341463414634,-14,0.0608695652173913,-38,-0.165217391304348,154,-0.751219512195122,
3226678,9296.875,288,-0.176578786020846,-2352,-1.44206008583691,-16336,10.0159411404047,5,7.01219512195122,-115,-0.304878048780488,-36,2.19512195121951,-13,0.0565217391304348,-35,-0.152173913043478,155,-0.75609756097561,
3227318,9316.40625,-32,0.0196198651134273,-2160,-1.32434089515635,-16144,9.89822194972409,37,6.89024390243902,-113,-2.25609756097561,-46,2.80487804878049,-13,0.0565217391304348,-39,-0.169565217391304,156,-0.760975609756098,
3227958,9335.9375,-144,0.088289393010423,-2192,-1.34396076026977,-15888,9.74126302881668,9,6.52439024390244,-107,-0.548780487804878,-51,3.10975609756098,-13,0.0565217391304348,-38,-0.165217391304348,156,-0.760975609756098,
3228598,9355.46875,-256,0.156958920907419,-2112,-1.2949110974862,-15792,9.6824034334764,-12,6.34146341463415,-104,0.731707317073171,-61,3.71951219512195,-12,0.0521739130434783,-43,-0.18695652173913,157,-0.765853658536585,
3229238,9375,-192,0.117719190680564,-2000,-1.22624156958921,-15760,9.66278356836297,-10,5.79268292682927,-95,0.609756097560976,-55,3.35365853658537,-10,0.0434782608695652,-43,-0.18695652173913,157,-0.765853658536585,
3229878,9394.53125,-256,0.156958920907419,-1952,-1.19681177191907,-15824,9.70202329858982,3,5.36585365853659,-88,-0.182926829268293,-43,2.6219512195122,-11,0.0478260869565217,-40,-0.173913043478261,156,-0.760975609756098,
3230518,9414.0625,-256,0.156958920907419,-1952,-1.19681177191907,-15792,9.6824034334764,-8,4.51219512195122,-74,0.487804878048781,-34,2.07317073170732,-10,0.0434782608695652,-39,-0.169565217391304,156,-0.760975609756098,
3231158,9433.59375,-240,0.147148988350705,-2000,-1.22624156958921,-16000,9.80993255671367,-4,3.90243902439024,-64,0.24390243902439,-23,1.40243902439024,-12,0.0521739130434783,-43,-0.18695652173913,158,-0.770731707317073,
3231798,9453.125,-5392,3.30594727161251,15312,9.38810545677498,6064,-3.71796443899448,3110,588.719512195122,-9655,-189.634146341463,1388,-84.6341463414634,-15,0.0652173913043478,-42,-0.182608695652174,157,-0.765853658536585,
3232438,9472.65625,-64,0.0392397302268547,7552,4.63028816676885,-10560,6.47455548743102,1186,-6.28048780487805,103,-72.3170731707317,1078,-65.7317073170732,-11,0.0478260869565217,-40,-0.173913043478261,157,-0.765853658536585,
3233078,9492.1875,-6112,3.74739423666462,-1648,-1.01042305334151,-15376,9.42734518700184,-595,6.76829268292683,-111,36.280487804878,214,-13.0487804878049,-12,0.0521739130434783,-36,-0.156521739130435,155,-0.75609756097561,
3233718,9511.71875,-288,0.176578786020846,-2320,-1.42244022072348,-15984,9.80012262415696,-701,17.0731707317073,-280,42.7439024390244,77,-4.69512195121951,-14,0.0608695652173913,-42,-0.182608695652174,155,-0.75609756097561,
3234358,9531.25,864,-0.529736358062538,-1392,-0.853464132434089,-16496,10.1140404659718,-118,9.9390243902439,-163,7.19512195121951,-55,3.35365853658537,-14,0.0608695652173913,-40,-0.173913043478261,159,-0.775609756097561,
3234998,9550.78125,336,-0.206008583690987,-2432,-1.49110974862048,-16832,10.3200490496628,377,-11.1585365853659,183,-22.9878048780488,111,-6.76829268292683,-12,0.0521739130434783,-43,-0.18695652173913,159,-0.775609756097561,
3235638,9570.3125,-800,0.490496627835684,-5200,-3.18822808093194,-17888,10.9675045984059,151,2.19512195121951,-36,-9.20731707317073,105,-6.40243902439024,-14,0.0608695652173913,-38,-0.165217391304348,156,-0.760975609756098,
3236278,9589.84375,-96,0.058859595340282,-2928,-1.7952176578786,-18064,11.0754138565297,-12,2.25609756097561,-37,0.731707317073171,23,-1.40243902439024,-12,0.0521739130434783,-40,-0.173913043478261,158,-0.770731707317073,
3236918,9609.375,-48,0.029429797670141,-2688,-1.6480686695279,-17520,10.7418761496015,-39,2.80487804878049,-46,2.37804878048781,3,-0.182926829268293,-15,0.0652173913043478,-37,-0.160869565217391,157,-0.765853658536585,
3237558,9628.90625,128,-0.0784794604537094,-2736,-1.67749846719804,-17456,10.7026364193746,14,5.0609756097561,-83,-0.853658536585366,-8,0.487804878048781,-13,0.0565217391304348,-43,-0.18695652173913,158,-0.770731707317073,
3238198,9648.4375,-112,0.0686695278969957,-2512,-1.54015941140405,-17184,10.5358675659105,0,5.97560975609756,-98,0,-4,0.24390243902439,-14,0.0608695652173913,-43,-0.18695652173913,157,-0.765853658536585,
3238838,9667.96875,160,-0.0980993255671367,-2544,-1.55977927651747,-16864,10.3396689147762,6,6.89024390243902,-113,-0.365853658536585,-12,0.731707317073171,-12,0.0521739130434783,-41,-0.178260869565217,156,-0.760975609756098,
3239478,9687.5,-48,0.029429797670141,-2576,-1.5793991416309,-16656,10.2121397915389,56,7.98780487804878,-131,-3.41463414634146,-21,1.28048780487805,-12,0.0521739130434783,-40,-0.173913043478261,157,-0.765853658536585,
3240118,9707.03125,-192,0.117719190680564,-2496,-1.53034947884733,-16288,9.98651134273452,6,8.59756097560976,-141,-0.365853658536585,-27,1.64634146341463,-12,0.0521739130434783,-42,-0.182608695652174,159,-0.775609756097561,
3240758,9726.5625,-16,0.00980993255671367,-2384,-1.46167995095034,-16000,9.80993255671367,-28,8.47560975609756,-139,1.70731707317073,-46,2.80487804878049,-14,0.0608695652173913,-41,-0.178260869565217,159,-0.775609756097561,
3241398,9746.09375,80,-0.0490496627835684,-2304,-1.41263028816677,-15776,9.67259350091968,-24,8.35365853658537,-137,1.46341463414634,-52,3.17073170731707,-13,0.0565217391304348,-41,-0.178260869565217,157,-0.765853658536585,
3242038,9765.625,96,-0.058859595340282,-2208,-1.35377069282649,-15648,9.59411404046597,11,8.04878048780488,-132,-0.670731707317073,-52,3.17073170731707,-14,0.0608695652173913,-37,-0.160869565217391,154,-0.751219512195122,
3242678,9785.15625,-96,0.058859595340282,-2112,-1.2949110974862,-15664,9.60392397302268,30,7.37804878048781,-121,-1.82926829268293,-49,2.98780487804878,-14,0.0608695652173913,-43,-0.18695652173913,158,-0.770731707317073,
3243318,9804.6875,-208,0.127529123237278,-2080,-1.27529123237278,-15664,9.60392397302268,22,6.46341463414634,-106,-1.34146341463415,-56,3.41463414634146,-13,0.0565217391304348,-43,-0.18695652173913,158,-0.770731707317073,
3243958,9824.21875,13568,-8.31882280809319,-17376,-10.653586756591,8496,-5.20907418761496,6,6.15853658536585,-101,-0.365853658536585,-52,3.17073170731707,-13,0.0565217391304348,-38,-0.165217391304348,158,-0.770731707317073,
3244598,9843.75,5168,-3.16860821581852,7728,4.7381974248927,-7056,4.32618025751073,1298,-123.353658536585,2023,-79.1463414634146,-515,31.4024390243902,-10,0.0434782608695652,-39,-0.169565217391304,155,-0.75609756097561,
3245238,9863.28125,-6656,4.08093194359289,-1344,-0.824034334763949,-13712,8.40711220110362,1227,2.98780487804878,-49,-74.8170731707317,182,-11.0975609756098,-8,0.0347826086956522,-35,-0.152173913043478,154,-0.751219512195122,
3245878,9882.8125,-4608,2.82526057633354,-1008,-0.618025751072961,-15952,9.78050275904353,-361,16.3414634146341,-268,22.0121951219512,90,-5.48780487804878,-8,0.0347826086956522,-38,-0.165217391304348,154,-0.751219512195122,
3246518,9902.34375,-3904,2.39362354383814,-912,-0.559166155732679,-16336,10.0159411404047,-933,16.4024390243902,-269,56.890243902439,186,-11.3414634146341,-8,0.0347826086956522,-42,-0.182608695652174,154,-0.751219512195122,
3247158,9921.875,-608,0.37277743715512,-976,-0.598405885959534,-16528,10.1336603310852,-1330,5.42682926829268,-89,81.0975609756098,45,-2.74390243902439,-13,0.0565217391304348,-35,-0.152173913043478,154,-0.751219512195122,
3247798,9941.40625,752,-0.461066830165543,-4176,-2.56039239730227,-16592,10.1729000613121,-471,-11.7073170731707,192,28.719512195122,13,-0.792682926829268,-14,0.0608695652173913,-35,-0.152173913043478,156,-0.760975609756098,
3248438,9960.9375,368,-0.225628448804414,-4672,-2.86450030656039,-17488,10.722256284488,-208,3.59756097560976,-59,12.6829268292683,78,-4.75609756097561,-15,0.0652173913043478,-35,-0.152173913043478,156,-0.760975609756098,
3249078,9980.46875,1312,-0.804414469650521,-2336,-1.4322501532802,-17456,10.7026364193746,107,1.52439024390244,-25,-6.52439024390244,82,-5,-11,0.0478260869565217,-41,-0.178260869565217,158,-0.770731707317073,
3249718,10000,-128,0.0784794604537094,-2816,-1.72654812998161,-17216,10.5554874310239,268,0.609756097560976,-10,-16.3414634146341,66,-4.02439024390244,-11,0.0478260869565217,-41,-0.178260869565217,157,-0.765853658536585,
3250358,10019.53125,-368,0.225628448804414,-2624,-1.60882893930104,-17168,10.5260576333538,108,3.59756097560976,-59,-6.58536585365854,22,-1.34146341463415,-11,0.0478260869565217,-39,-0.169565217391304,156,-0.760975609756098,
3250998,10039.0625,-352,0.215818516247701,-2608,-1.59901900674433,-17008,10.4279583077866,-18,5.42682926829268,-89,1.09756097560976,-2,0.121951219512195,-13,0.0565217391304348,-34,-0.147826086956522,155,-0.75609756097561,
3251638,10058.59375,0,0,-2560,-1.56958920907419,-16704,10.2415695892091,-86,7.31707317073171,-120,5.24390243902439,-22,1.34146341463415,-15,0.0652173913043478,-41,-0.178260869565217,157,-0.765853658536585,
3252278,10078.125,304,-0.18638871857756,-2448,-1.50091968117719,-16368,10.0355610055181,-3,7.92682926829268,-130,0.182926829268293,-34,2.07317073170732,-11,0.0478260869565217,-41,-0.178260869565217,157,-0.765853658536585,
3252918,10097.65625,-128,0.0784794604537094,-2400,-1.47148988350705,-15984,9.80012262415696,74,8.29268292682927,-136,-4.51219512195122,-36,2.19512195121951,-11,0.0478260869565217,-42,-0.182608695652174,156,-0.760975609756098,
3253558,10117.1875,-304,0.18638871857756,-2224,-1.3635806253832,-15824,9.70202329858982,11,7.74390243902439,-127,-0.670731707317073,-44,2.68292682926829,-16,0.0695652173913043,-42,-0.182608695652174,158,-0.770731707317073,
3254198,10136.71875,-16,0.00980993255671367,-2240,-1.37339055793991,-15520,9.51563458001226,-57,7.01219512195122,-115,3.47560975609756,-53,3.23170731707317,-14,0.0608695652173913,-38,-0.165217391304348,155,-0.75609756097561,
3254838,10156.25,-112,0.0686695278969957,-2144,-1.31453096259963,-15568,9.5450643776824,-60,6.46341463414634,-106,3.65853658536585,-53,3.23170731707317,-11,0.0478260869565217,-43,-0.18695652173913,156,-0.760975609756098,
3255478,10175.78125,-48,0.029429797670141,-2064,-1.26548129981606,-15472,9.48620478234212,-18,5.54878048780488,-91,1.09756097560976,-44,2.68292682926829,-13,0.0565217391304348,-39,-0.169565217391304,155,-0.75609756097561,
3256118,10195.3125,-128,0.0784794604537094,-2032,-1.24586143470264,-15504,9.50582464745555,2,4.75609756097561,-78,-0.121951219512195,-38,2.31707317073171,-15,0.0652173913043478,-37,-0.160869565217391,155,-0.75609756097561,
3256758,10214.84375,-272,0.166768853464132,-2000,-1.22624156958921,-15504,9.50582464745555,-5,3.96341463414634,-65,0.304878048780488,-36,2.19512195121951,-15,0.0652173913043478,-36,-0.156521739130435,157,-0.765853658536585,
3257398,10234.375,-336,0.206008583690987,-1968,-1.20662170447578,-15648,9.59411404046597,-15,2.86585365853659,-47,0.914634146341463,-35,2.13414634146341,-13,0.0565217391304348,-43,-0.18695652173913,158,-0.770731707317073,
3258038,10253.90625,-320,0.196198651134273,-1984,-1.2164316370325,-15824,9.70202329858982,8,2.25609756097561,-37,-0.487804878048781,-21,1.28048780487805,-13,0.0565217391304348,-44,-0.191304347826087,157,-0.765853658536585,
3258678,10273.4375,-336,0.206008583690987,-2032,-1.24586143470264,-15952,9.78050275904353,37,1.58536585365854,-26,-2.25609756097561,-6,0.365853658536585,-14,0.0608695652173913,-35,-0.152173913043478,155,-0.75609756097561,
3259318,10292.96875,-560,0.343347639484979,-2016,-1.23605150214592,-16112,9.87860208461067,9,1.82926829268293,-30,-0.548780487804878,5,-0.304878048780488,-13,0.0565217391304348,-38,-0.165217391304348,154,-0.751219512195122,
3259958,10312.5,-688,0.421827099938688,-2096,-1.28510116492949,-16272,9.9767014101778,-41,2.01219512195122,-33,2.5,15,-0.914634146341463,-14,0.0608695652173913,-40,-0.173913043478261,158,-0.770731707317073,
3260598,10332.03125,-576,0.353157572041692,-2048,-1.25567136725935,-16528,10.1336603310852,-66,2.19512195121951,-36,4.02439024390244,26,-1.58536585365854,-13,0.0565217391304348,-42,-0.182608695652174,157,-0.765853658536585,
3261238,10351.5625,-432,0.264868179031269,-2080,-1.27529123237278,-16912,10.3690987124464,-57,2.5,-41,3.47560975609756,29,-1.76829268292683,-12,0.0521739130434783,-40,-0.173913043478261,156,-0.760975609756098,
3261878,10371.09375,-224,0.137339055793991,-2112,-1.2949110974862,-17296,10.6045370938075,-15,3.35365853658537,-55,0.914634146341463,42,-2.5609756097561,-14,0.0608695652173913,-39,-0.169565217391304,156,-0.760975609756098,
3262518,10390.625,-304,0.18638871857756,-2080,-1.27529123237278,-17840,10.9380748007357,27,5,-82,-1.64634146341463,44,-2.68292682926829,-13,0.0565217391304348,-44,-0.191304347826087,158,-0.770731707317073,
3263158,10410.15625,-304,0.18638871857756,-1984,-1.2164316370325,-18720,11.477621091355,16,6.64634146341464,-109,-0.975609756097561,57,-3.47560975609756,-13,0.0565217391304348,-44,-0.191304347826087,158,-0.770731707317073,
3263798,10429.6875,-272,0.166768853464132,-2192,-1.34396076026977,-19648,12.0465971796444,-42,8.78048780487805,-144,2.5609756097561,72,-4.39024390243902,-11,0.0478260869565217,-43,-0.18695652173913,156,-0.760975609756098,
3264438,10449.21875,-288,0.176578786020846,-2528,-1.54996934396076,-20304,12.4488044144697,-188,13.2317073170732,-217,11.4634146341463,61,-3.71951219512195,-11,0.0478260869565217,-45,-0.195652173913043,157,-0.765853658536585,
3265078,10468.75,32,-0.0196198651134273,-2368,-1.45187001839362,-20960,12.8510116492949,-412,18.4756097560976,-303,25.1219512195122,27,-1.64634146341463,-14,0.0608695652173913,-36,-0.156521739130435,158,-0.770731707317073,
3265718,10488.28125,1024,-0.627835683629675,-2240,-1.37339055793991,-21792,13.361128142244,-586,23.2317073170732,-381,35.7317073170732,-17,1.03658536585366,-15,0.0652173913043478,-42,-0.182608695652174,159,-0.775609756097561,
