Shimmer,Shimmer,Shimmer,Shimmer,Shimmer,Shimmer,Shimmer,Shimmer,Shimmer,Shimmer,Shimmer,Shimmer,Shimmer,Shimmer,Shimmer,Shimmer,Shimmer,Shimmer,Shimmer,Shimmer,
Timestamp,Timestamp,Wide Range Accelerometer X,Wide Range Accelerometer X,Wide Range Accelerometer Y,Wide Range Accelerometer Y,Wide Range Accelerometer Z,Wide Range Accelerometer Z,Gyroscope X,Gyroscope X,Gyroscope Y,Gyroscope Y,Gyroscope Z,Gyroscope Z,Magnetometer X,Magnetometer X,Magnetometer Y,Magnetometer Y,Magnetometer Z,Magnetometer Z,
RAW,CAL,RAW,CAL,RAW,CAL,RAW,CAL,RAW,CAL,RAW,CAL,RAW,CAL,RAW,CAL,RAW,CAL,RAW,CAL,
no units,mSecs,no units,m/(sec^2),no units,m/(sec^2),no units,m/(sec^2),no units,deg/sec,no units,deg/sec,no units,deg/sec,no units,local,no units,local,no units,local,
16012214,0,4864,-2.98221949724096,-15168,-9.29981606376456,-3152,1.93255671367259,17,3.41463414634146,-56,-1.03658536585366,4,-0.24390243902439,-57,0.247826086956522,41,0.178260869565217,121,-0.590243902439024,
16012854,19.53125,4880,-2.99202942979767,-15152,-9.29000613120785,-3136,1.92274678111588,4,3.41463414634146,-56,-0.24390243902439,4,-0.24390243902439,-58,0.252173913043478,44,0.191304347826087,119,-0.580487804878049,
16013494,39.0625,4896,-3.00183936235438,-15104,-9.26057633353771,-3088,1.89331698344574,5,3.53658536585366,-58,-0.304878048780488,5,-0.304878048780488,-58,0.252173913043478,45,0.195652173913043,119,-0.580487804878049,
16014134,58.59375,4960,-3.04107909258124,-15120,-9.27038626609442,-3040,1.8638871857756,13,3.29268292682927,-54,-0.792682926829268,8,-0.487804878048781,-58,0.252173913043478,41,0.178260869565217,121,-0.590243902439024,
16014774,78.125,4848,-2.97240956468424,-15056,-9.23114653586757,-2976,1.82464745554874,21,3.23170731707317,-53,-1.28048780487805,10,-0.609756097560976,-57,0.247826086956522,42,0.182608695652174,121,-0.590243902439024,
16015414,97.65625,4864,-2.98221949724096,-15136,-9.28019619865113,-3024,1.85407725321888,17,3.10975609756098,-51,-1.03658536585366,11,-0.670731707317073,-58,0.252173913043478,43,0.18695652173913,120,-0.585365853658537,
16016054,117.1875,4880,-2.99202942979767,-15152,-9.29000613120785,-2944,1.80502759043532,9,3.35365853658537,-55,-0.548780487804878,11,-0.670731707317073,-57,0.247826086956522,45,0.195652173913043,121,-0.590243902439024,
16016694,136.71875,4912,-3.0116492949111,-15120,-9.27038626609442,-3008,1.84426732066217,5,3.29268292682927,-54,-0.304878048780488,10,-0.609756097560976,-58,0.252173913043478,41,0.178260869565217,120,-0.585365853658537,
16017334,156.25,4944,-3.03126916002452,-15104,-9.26057633353771,-3056,1.87369711833231,3,3.29268292682927,-54,-0.182926829268293,8,-0.487804878048781,-59,0.256521739130435,41,0.178260869565217,121,-0.590243902439024,
16017974,175.78125,4976,-3.05088902513795,-15120,-9.27038626609442,-3072,1.88350705088903,5,3.35365853658537,-55,-0.304878048780488,5,-0.304878048780488,-58,0.252173913043478,43,0.18695652173913,120,-0.585365853658537,
16018614,195.3125,4976,-3.05088902513795,-15184,-9.30962599632127,-3056,1.87369711833231,1,2.98780487804878,-49,-0.0609756097560976,4,-0.24390243902439,-57,0.247826086956522,41,0.178260869565217,120,-0.585365853658537,
16019254,214.84375,5040,-3.09012875536481,-15168,-9.29981606376456,-3024,1.85407725321888,5,2.98780487804878,-49,-0.304878048780488,1,-0.0609756097560976,-58,0.252173913043478,47,0.204347826086957,119,-0.580487804878049,
16019894,234.375,5008,-3.07050889025138,-15104,-9.26057633353771,-2992,1.83445738810546,-2,2.74390243902439,-45,0.121951219512195,-9,0.548780487804878,-57,0.247826086956522,45,0.195652173913043,119,-0.580487804878049,
16020534,253.90625,4976,-3.05088902513795,-15120,-9.27038626609442,-2976,1.82464745554874,-8,2.5,-41,0.487804878048781,-11,0.670731707317073,-57,0.247826086956522,41,0.178260869565217,120,-0.585365853658537,
16021174,273.4375,5024,-3.08031882280809,-15104,-9.26057633353771,-3024,1.85407725321888,-1,2.5,-41,0.0609756097560976,-15,0.914634146341463,-58,0.252173913043478,45,0.195652173913043,121,-0.590243902439024,
16021814,292.96875,4944,-3.03126916002452,-15104,-9.26057633353771,-3120,1.91293684855917,0,2.6219512195122,-43,0,-21,1.28048780487805,-59,0.256521739130435,46,0.2,119,-0.580487804878049,
16022454,312.5,4976,-3.05088902513795,-15104,-9.26057633353771,-3136,1.92274678111588,-5,2.5,-41,0.304878048780488,-26,1.58536585365854,-59,0.256521739130435,41,0.178260869565217,120,-0.585365853658537,
16023094,332.03125,4896,-3.00183936235438,-15120,-9.27038626609442,-3040,1.8638871857756,-19,2.80487804878049,-46,1.15853658536585,-26,1.58536585365854,-59,0.256521739130435,43,0.18695652173913,121,-0.590243902439024,
16023734,351.5625,4928,-3.02145922746781,-15232,-9.33905579399141,-3072,1.88350705088903,-26,2.92682926829268,-48,1.58536585365854,-25,1.52439024390244,-57,0.247826086956522,45,0.195652173913043,119,-0.580487804878049,
16024374,371.09375,4928,-3.02145922746781,-15216,-9.3292458614347,-3136,1.92274678111588,-19,2.74390243902439,-45,1.15853658536585,-18,1.09756097560976,-56,0.243478260869565,45,0.195652173913043,119,-0.580487804878049,
16025014,390.625,4928,-3.02145922746781,-15280,-9.36848559166156,-3072,1.88350705088903,-15,2.74390243902439,-45,0.914634146341463,-20,1.21951219512195,-61,0.265217391304348,42,0.182608695652174,121,-0.590243902439024,
16025654,410.15625,4800,-2.9429797670141,-15312,-9.38810545677498,-3072,1.88350705088903,-20,2.86585365853659,-47,1.21951219512195,-29,1.76829268292683,-59,0.256521739130435,41,0.178260869565217,120,-0.585365853658537,
16026294,429.6875,4896,-3.00183936235438,-15232,-9.33905579399141,-3136,1.92274678111588,-24,3.23170731707317,-53,1.46341463414634,-38,2.31707317073171,-57,0.247826086956522,43,0.18695652173913,120,-0.585365853658537,
16026934,449.21875,4912,-3.0116492949111,-15136,-9.28019619865113,-3120,1.91293684855917,-25,3.23170731707317,-53,1.52439024390244,-39,2.37804878048781,-57,0.247826086956522,42,0.182608695652174,120,-0.585365853658537,
16027574,468.75,4784,-2.93316983445739,-15152,-9.29000613120785,-3120,1.91293684855917,-24,3.53658536585366,-58,1.46341463414634,-32,1.95121951219512,-58,0.252173913043478,42,0.182608695652174,120,-0.585365853658537,
16028214,488.28125,4720,-2.89393010423053,-15024,-9.21152667075414,-3088,1.89331698344574,-25,3.29268292682927,-54,1.52439024390244,-16,0.975609756097561,-58,0.252173913043478,45,0.195652173913043,120,-0.585365853658537,
16028854,507.8125,4672,-2.86450030656039,-15072,-9.24095646842428,-3008,1.84426732066217,-29,3.10975609756098,-51,1.76829268292683,-5,0.304878048780488,-61,0.265217391304348,45,0.195652173913043,120,-0.585365853658537,
16029494,527.34375,4768,-2.92335990190067,-15152,-9.29000613120785,-2944,1.80502759043532,-27,2.86585365853659,-47,1.64634146341463,6,-0.365853658536585,-58,0.252173913043478,41,0.178260869565217,120,-0.585365853658537,
16030134,546.875,4816,-2.95278969957082,-15088,-9.25076640098099,-2944,1.80502759043532,-25,2.4390243902439,-40,1.52439024390244,7,-0.426829268292683,-59,0.256521739130435,46,0.2,119,-0.580487804878049,
16030774,566.40625,4848,-2.97240956468424,-15072,-9.24095646842428,-2976,1.82464745554874,-16,2.07317073170732,-34,0.975609756097561,10,-0.609756097560976,-59,0.256521739130435,48,0.208695652173913,119,-0.580487804878049,
16031414,585.9375,4848,-2.97240956468424,-15232,-9.33905579399141,-2896,1.77559779276517,-21,1.76829268292683,-29,1.28048780487805,8,-0.487804878048781,-61,0.265217391304348,45,0.195652173913043,119,-0.580487804878049,
16032054,605.46875,4848,-2.97240956468424,-15248,-9.34886572654813,-2912,1.78540772532189,-21,1.40243902439024,-23,1.28048780487805,11,-0.670731707317073,-58,0.252173913043478,41,0.178260869565217,121,-0.590243902439024,
16032694,625,4912,-3.0116492949111,-15248,-9.34886572654813,-2896,1.77559779276517,-22,1.46341463414634,-24,1.34146341463415,11,-0.670731707317073,-57,0.247826086956522,45,0.195652173913043,119,-0.580487804878049,
16033334,644.53125,4960,-3.04107909258124,-15216,-9.3292458614347,-2848,1.74616799509503,-17,1.28048780487805,-21,1.03658536585366,12,-0.731707317073171,-58,0.252173913043478,45,0.195652173913043,120,-0.585365853658537,
16033974,664.0625,4880,-2.99202942979767,-15152,-9.29000613120785,-2960,1.81483752299203,-21,1.34146341463415,-22,1.28048780487805,10,-0.609756097560976,-58,0.252173913043478,43,0.18695652173913,121,-0.590243902439024,
16034614,683.59375,4944,-3.03126916002452,-15152,-9.29000613120785,-3072,1.88350705088903,-25,1.09756097560976,-18,1.52439024390244,8,-0.487804878048781,-60,0.260869565217391,42,0.182608695652174,120,-0.585365853658537,
16035254,703.125,4944,-3.03126916002452,-15168,-9.29981606376456,-3088,1.89331698344574,-27,1.40243902439024,-23,1.64634146341463,7,-0.426829268292683,-57,0.247826086956522,43,0.18695652173913,120,-0.585365853658537,
16035894,722.65625,4928,-3.02145922746781,-15152,-9.29000613120785,-3088,1.89331698344574,-31,1.64634146341463,-27,1.89024390243902,8,-0.487804878048781,-57,0.247826086956522,42,0.182608695652174,120,-0.585365853658537,
16036534,742.1875,4992,-3.06069895769467,-15184,-9.30962599632127,-3088,1.89331698344574,-34,1.95121951219512,-32,2.07317073170732,6,-0.365853658536585,-59,0.256521739130435,41,0.178260869565217,120,-0.585365853658537,
16037174,761.71875,5008,-3.07050889025138,-15136,-9.28019619865113,-3184,1.95217657878602,-35,2.19512195121951,-36,2.13414634146341,0,0,-58,0.252173913043478,42,0.182608695652174,120,-0.585365853658537,
16037814,781.25,5024,-3.08031882280809,-15216,-9.3292458614347,-3168,1.94236664622931,-30,2.19512195121951,-36,1.82926829268293,-4,0.24390243902439,-57,0.247826086956522,41,0.178260869565217,119,-0.580487804878049,
16038454,800.78125,4944,-3.03126916002452,-15216,-9.3292458614347,-3120,1.91293684855917,-26,2.19512195121951,-36,1.58536585365854,-6,0.365853658536585,-57,0.247826086956522,41,0.178260869565217,119,-0.580487804878049,
16039094,820.3125,4960,-3.04107909258124,-15168,-9.29981606376456,-3136,1.92274678111588,-24,2.5,-41,1.46341463414634,-5,0.304878048780488,-59,0.256521739130435,48,0.208695652173913,119,-0.580487804878049,
16039734,839.84375,5024,-3.08031882280809,-15152,-9.29000613120785,-3120,1.91293684855917,-21,2.31707317073171,-38,1.28048780487805,-9,0.548780487804878,-59,0.256521739130435,48,0.208695652173913,119,-0.580487804878049,
16040374,859.375,5008,-3.07050889025138,-15072,-9.24095646842428,-3184,1.95217657878602,-16,2.31707317073171,-38,0.975609756097561,-5,0.304878048780488,-61,0.265217391304348,40,0.173913043478261,119,-0.580487804878049,
16041014,878.90625,5056,-3.09993868792152,-15232,-9.33905579399141,-3200,1.96198651134273,-3,2.19512195121951,-36,0.182926829268293,-1,0.0609756097560976,-58,0.252173913043478,44,0.191304347826087,118,-0.575609756097561,
16041654,898.4375,5024,-3.08031882280809,-15248,-9.34886572654813,-3088,1.89331698344574,5,2.4390243902439,-40,-0.304878048780488,-5,0.304878048780488,-59,0.256521739130435,43,0.18695652173913,118,-0.575609756097561,
16042294,917.96875,5024,-3.08031882280809,-15184,-9.30962599632127,-3200,1.96198651134273,4,2.68292682926829,-44,-0.24390243902439,-6,0.365853658536585,-59,0.256521739130435,44,0.191304347826087,119,-0.580487804878049,
16042934,937.5,5008,-3.07050889025138,-15264,-9.35867565910484,-3120,1.91293684855917,0,2.4390243902439,-40,0,-12,0.731707317073171,-59,0.256521739130435,43,0.18695652173913,119,-0.580487804878049,
16043574,957.03125,5024,-3.08031882280809,-15184,-9.30962599632127,-3072,1.88350705088903,1,2.68292682926829,-44,-0.0609756097560976,-15,0.914634146341463,-59,0.256521739130435,42,0.182608695652174,121,-0.590243902439024,
16044214,976.5625,5056,-3.09993868792152,-15152,-9.29000613120785,-3024,1.85407725321888,8,2.68292682926829,-44,-0.487804878048781,-15,0.914634146341463,-58,0.252173913043478,44,0.191304347826087,120,-0.585365853658537,
16044854,996.09375,5056,-3.09993868792152,-15152,-9.29000613120785,-2976,1.82464745554874,7,2.80487804878049,-46,-0.426829268292683,-18,1.09756097560976,-58,0.252173913043478,43,0.18695652173913,118,-0.575609756097561,
16045494,1015.625,4976,-3.05088902513795,-15184,-9.30962599632127,-2992,1.83445738810546,2,2.86585365853659,-47,-0.121951219512195,-19,1.15853658536585,-59,0.256521739130435,41,0.178260869565217,120,-0.585365853658537,
16046134,1035.15625,5008,-3.07050889025138,-15280,-9.36848559166156,-2992,1.83445738810546,6,2.92682926829268,-48,-0.365853658536585,-21,1.28048780487805,-59,0.256521739130435,41,0.178260869565217,119,-0.580487804878049,
16046774,1054.6875,5072,-3.10974862047823,-15200,-9.31943592887799,-2960,1.81483752299203,5,2.98780487804878,-49,-0.304878048780488,-22,1.34146341463415,-60,0.260869565217391,41,0.178260869565217,119,-0.580487804878049,
16047414,1074.21875,5024,-3.08031882280809,-15216,-9.3292458614347,-3056,1.87369711833231,5,3.23170731707317,-53,-0.304878048780488,-29,1.76829268292683,-57,0.247826086956522,40,0.173913043478261,120,-0.585365853658537,
16048054,1093.75,5008,-3.07050889025138,-15232,-9.33905579399141,-3024,1.85407725321888,1,2.92682926829268,-48,-0.0609756097560976,-30,1.82926829268293,-59,0.256521739130435,46,0.2,121,-0.590243902439024,
16048694,1113.28125,4912,-3.0116492949111,-15200,-9.31943592887799,-3024,1.85407725321888,-4,3.10975609756098,-51,0.24390243902439,-34,2.07317073170732,-59,0.256521739130435,46,0.2,120,-0.585365853658537,
16049334,1132.8125,4896,-3.00183936235438,-15104,-9.26057633353771,-2928,1.7952176578786,-7,2.92682926829268,-48,0.426829268292683,-30,1.82926829268293,-59,0.256521739130435,40,0.173913043478261,120,-0.585365853658537,
16049974,1152.34375,4848,-2.97240956468424,-15184,-9.30962599632127,-2784,1.70692826486818,-7,2.86585365853659,-47,0.426829268292683,-22,1.34146341463415,-60,0.260869565217391,44,0.191304347826087,118,-0.575609756097561,
16050614,1171.875,4832,-2.96259963212753,-15216,-9.3292458614347,-2848,1.74616799509503,3,2.37804878048781,-39,-0.182926829268293,-10,0.609756097560976,-58,0.252173913043478,43,0.18695652173913,118,-0.575609756097561,
16051254,1191.40625,4880,-2.99202942979767,-15232,-9.33905579399141,-2832,1.73635806253832,10,2.13414634146341,-35,-0.609756097560976,-2,0.121951219512195,-58,0.252173913043478,45,0.195652173913043,118,-0.575609756097561,
16051894,1210.9375,4912,-3.0116492949111,-15088,-9.25076640098099,-2832,1.73635806253832,10,2.13414634146341,-35,-0.609756097560976,-1,0.0609756097560976,-58,0.252173913043478,47,0.204347826086957,117,-0.570731707317073,
16052534,1230.46875,4912,-3.0116492949111,-15200,-9.31943592887799,-2896,1.77559779276517,2,2.13414634146341,-35,-0.121951219512195,-6,0.365853658536585,-61,0.265217391304348,42,0.182608695652174,118,-0.575609756097561,
16053174,1250,4880,-2.99202942979767,-15264,-9.35867565910484,-2944,1.80502759043532,1,2.07317073170732,-34,-0.0609756097560976,-6,0.365853658536585,-58,0.252173913043478,44,0.191304347826087,119,-0.580487804878049,
16053814,1269.53125,4960,-3.04107909258124,-15184,-9.30962599632127,-2864,1.75597792765175,1,2.5,-41,-0.0609756097560976,0,0,-60,0.260869565217391,49,0.21304347826087,118,-0.575609756097561,
16054454,1289.0625,4928,-3.02145922746781,-15184,-9.30962599632127,-2848,1.74616799509503,-4,2.86585365853659,-47,0.24390243902439,6,-0.365853658536585,-59,0.256521739130435,41,0.178260869565217,120,-0.585365853658537,
16055094,1308.59375,4880,-2.99202942979767,-15216,-9.3292458614347,-2976,1.82464745554874,-12,2.80487804878049,-46,0.731707317073171,4,-0.24390243902439,-60,0.260869565217391,42,0.182608695652174,120,-0.585365853658537,
16055734,1328.125,5008,-3.07050889025138,-15232,-9.33905579399141,-2960,1.81483752299203,-18,2.74390243902439,-45,1.09756097560976,1,-0.0609756097560976,-61,0.265217391304348,42,0.182608695652174,119,-0.580487804878049,
16056374,1347.65625,5040,-3.09012875536481,-15184,-9.30962599632127,-2864,1.75597792765175,-18,2.4390243902439,-40,1.09756097560976,-4,0.24390243902439,-58,0.252173913043478,41,0.178260869565217,119,-0.580487804878049,
16057014,1367.1875,5088,-3.11955855303495,-15184,-9.30962599632127,-2960,1.81483752299203,-16,2.4390243902439,-40,0.975609756097561,-4,0.24390243902439,-59,0.256521739130435,45,0.195652173913043,120,-0.585365853658537,
16057654,1386.71875,5024,-3.08031882280809,-15200,-9.31943592887799,-2912,1.78540772532189,-6,2.68292682926829,-44,0.365853658536585,-1,0.0609756097560976,-58,0.252173913043478,42,0.182608695652174,119,-0.580487804878049,
16058294,1406.25,4960,-3.04107909258124,-15136,-9.28019619865113,-2896,1.77559779276517,-10,2.19512195121951,-36,0.609756097560976,-2,0.121951219512195,-59,0.256521739130435,44,0.191304347826087,119,-0.580487804878049,
16058934,1425.78125,4960,-3.04107909258124,-15168,-9.29981606376456,-2928,1.7952176578786,-13,2.5,-41,0.792682926829268,0,0,-59,0.256521739130435,43,0.18695652173913,119,-0.580487804878049,
16059574,1445.3125,4944,-3.03126916002452,-15120,-9.27038626609442,-2816,1.72654812998161,-17,2.5609756097561,-42,1.03658536585366,2,-0.121951219512195,-58,0.252173913043478,45,0.195652173913043,118,-0.575609756097561,
16060214,1464.84375,5072,-3.10974862047823,-15152,-9.29000613120785,-2832,1.73635806253832,-14,2.37804878048781,-39,0.853658536585366,1,-0.0609756097560976,-57,0.247826086956522,40,0.173913043478261,121,-0.590243902439024,
16060854,1484.375,5008,-3.07050889025138,-15168,-9.29981606376456,-2912,1.78540772532189,-2,1.95121951219512,-32,0.121951219512195,0,0,-60,0.260869565217391,46,0.2,118,-0.575609756097561,
16061494,1503.90625,5104,-3.12936848559166,-15168,-9.29981606376456,-2864,1.75597792765175,3,1.89024390243902,-31,-0.182926829268293,-1,0.0609756097560976,-61,0.265217391304348,45,0.195652173913043,118,-0.575609756097561,
16062134,1523.4375,5072,-3.10974862047823,-15216,-9.3292458614347,-2880,1.76578786020846,3,1.40243902439024,-23,-0.182926829268293,6,-0.365853658536585,-58,0.252173913043478,44,0.191304347826087,119,-0.580487804878049,
16062774,1542.96875,5008,-3.07050889025138,-15280,-9.36848559166156,-2800,1.71673819742489,12,1.34146341463415,-22,-0.731707317073171,5,-0.304878048780488,-60,0.260869565217391,41,0.178260869565217,120,-0.585365853658537,
16063414,1562.5,5104,-3.12936848559166,-15248,-9.34886572654813,-2832,1.73635806253832,29,0,0,-1.76829268292683,16,-0.975609756097561,-60,0.260869565217391,46,0.2,119,-0.580487804878049,
16064054,1582.03125,5312,-3.25689760882894,-15392,-9.43715511955855,-3072,1.88350705088903,86,-0.548780487804878,9,-5.24390243902439,37,-2.25609756097561,-58,0.252173913043478,42,0.182608695652174,117,-0.570731707317073,
16064694,1601.5625,5344,-3.27651747394237,-15376,-9.42734518700184,-3280,2.0110361741263,154,-0.365853658536585,6,-9.39024390243902,55,-3.35365853658537,-58,0.252173913043478,47,0.204347826086957,118,-0.575609756097561,
16065334,1621.09375,5136,-3.14898835070509,-15440,-9.46658491722869,-3520,2.15818516247701,175,1.28048780487805,-21,-10.6707317073171,64,-3.90243902439024,-57,0.247826086956522,45,0.195652173913043,119,-0.580487804878049,
16065974,1640.625,5008,-3.07050889025138,-15456,-9.47639484978541,-3808,2.33476394849785,91,3.59756097560976,-59,-5.54878048780488,50,-3.04878048780488,-58,0.252173913043478,46,0.2,119,-0.580487804878049,
16066614,1660.15625,4960,-3.04107909258124,-15600,-9.56468424279583,-3776,2.31514408338443,35,7.01219512195122,-115,-2.13414634146341,23,-1.40243902439024,-55,0.239130434782609,42,0.182608695652174,119,-0.580487804878049,
16067254,1679.6875,5152,-3.1587982832618,-15552,-9.53525444512569,-3664,2.24647455548743,-6,9.32926829268293,-153,0.365853658536585,-13,0.792682926829268,-59,0.256521739130435,49,0.21304347826087,117,-0.570731707317073,
16067894,1699.21875,5120,-3.13917841814837,-15568,-9.5450643776824,-3568,2.18761496014715,-9,10.8536585365854,-178,0.548780487804878,-36,2.19512195121951,-58,0.252173913043478,45,0.195652173913043,118,-0.575609756097561,
16068534,1718.75,4976,-3.05088902513795,-15248,-9.34886572654813,-3376,2.06989576946658,-3,11.9512195121951,-196,0.182926829268293,-57,3.47560975609756,-58,0.252173913043478,44,0.191304347826087,118,-0.575609756097561,
16069174,1738.28125,4816,-2.95278969957082,-15056,-9.23114653586757,-3104,1.90312691600245,-6,11.8292682926829,-194,0.365853658536585,-54,3.29268292682927,-57,0.247826086956522,43,0.18695652173913,120,-0.585365853658537,
16069814,1757.8125,4736,-2.90374003678725,-15152,-9.29000613120785,-3104,1.90312691600245,-18,11.6463414634146,-191,1.09756097560976,-47,2.86585365853659,-58,0.252173913043478,46,0.2,120,-0.585365853658537,
16070454,1777.34375,4608,-2.82526057633354,-15136,-9.28019619865113,-3040,1.8638871857756,-16,11.8292682926829,-194,0.975609756097561,-29,1.76829268292683,-57,0.247826086956522,45,0.195652173913043,119,-0.580487804878049,
16071094,1796.875,4688,-2.87431023911711,-15008,-9.20171673819742,-2864,1.75597792765175,-21,11.5853658536585,-190,1.28048780487805,-18,1.09756097560976,-59,0.256521739130435,44,0.191304347826087,120,-0.585365853658537,
16071734,1816.40625,4512,-2.76640098099326,-14848,-9.10361741263029,-2640,1.61863887185776,-53,10.9146341463415,-179,3.23170731707317,-23,1.40243902439024,-59,0.256521739130435,40,0.173913043478261,121,-0.590243902439024,
16072374,1835.9375,4480,-2.74678111587983,-14768,-9.05456774984672,-2464,1.51072961373391,-93,9.63414634146342,-158,5.67073170731707,-30,1.82926829268293,-59,0.256521739130435,45,0.195652173913043,120,-0.585365853658537,
16073014,1855.46875,4512,-2.76640098099326,-14848,-9.10361741263029,-2384,1.46167995095034,-98,7.4390243902439,-122,5.97560975609756,-24,1.46341463414634,-57,0.247826086956522,42,0.182608695652174,120,-0.585365853658537,
16073654,1875,4736,-2.90374003678725,-14928,-9.15266707541386,-2432,1.49110974862048,-45,5.1219512195122,-84,2.74390243902439,-2,0.121951219512195,-58,0.252173913043478,40,0.173913043478261,121,-0.590243902439024,
16074294,1894.53125,4848,-2.97240956468424,-15024,-9.21152667075414,-2640,1.61863887185776,20,3.59756097560976,-59,-1.21951219512195,21,-1.28048780487805,-58,0.252173913043478,46,0.2,121,-0.590243902439024,
16074934,1914.0625,4784,-2.93316983445739,-14992,-9.19190680564071,-2816,1.72654812998161,37,2.37804878048781,-39,-2.25609756097561,32,-1.95121951219512,-59,0.256521739130435,44,0.191304347826087,120,-0.585365853658537,
16075574,1933.59375,4784,-2.93316983445739,-15040,-9.22133660331085,-2928,1.7952176578786,28,1.82926829268293,-30,-1.70731707317073,24,-1.46341463414634,-58,0.252173913043478,40,0.173913043478261,121,-0.590243902439024,
16076214,1953.125,4880,-2.99202942979767,-15072,-9.24095646842428,-3408,2.08951563458001,19,2.4390243902439,-40,-1.15853658536585,12,-0.731707317073171,-57,0.247826086956522,42,0.182608695652174,122,-0.595121951219512,
16076854,1972.65625,4928,-3.02145922746781,-15104,-9.26057633353771,-3600,2.20723482526058,-2,2.86585365853659,-47,0.121951219512195,1,-0.0609756097560976,-60,0.260869565217391,43,0.18695652173913,120,-0.585365853658537,
16077494,1992.1875,5088,-3.11955855303495,-15264,-9.35867565910484,-3760,2.30533415082771,-10,4.02439024390244,-66,0.609756097560976,-3,0.182926829268293,-58,0.252173913043478,46,0.2,120,-0.585365853658537,
16078134,2011.71875,5232,-3.20784794604537,-15280,-9.36848559166156,-3872,2.37400367872471,-23,5.1219512195122,-84,1.40243902439024,-3,0.182926829268293,-57,0.247826086956522,40,0.173913043478261,121,-0.590243902439024,
16078774,2031.25,5280,-3.23727774371551,-15248,-9.34886572654813,-3984,2.4426732066217,-24,6.15853658536585,-101,1.46341463414634,-6,0.365853658536585,-58,0.252173913043478,42,0.182608695652174,122,-0.595121951219512,
16079414,2050.78125,5392,-3.30594727161251,-15104,-9.26057633353771,-3872,2.37400367872471,-9,6.40243902439024,-105,0.548780487804878,-15,0.914634146341463,-57,0.247826086956522,43,0.18695652173913,120,-0.585365853658537,
16080054,2070.3125,5408,-3.31575720416922,-15040,-9.22133660331085,-3920,2.40343347639485,16,6.52439024390244,-107,-0.975609756097561,-28,1.70731707317073,-57,0.247826086956522,43,0.18695652173913,121,-0.590243902439024,
16080694,2089.84375,5440,-3.33537706928265,-14992,-9.19190680564071,-3888,2.38381361128142,47,6.64634146341464,-109,-2.86585365853659,-35,2.13414634146341,-60,0.260869565217391,42,0.182608695652174,122,-0.595121951219512,
16081334,2109.375,5392,-3.30594727161251,-15024,-9.21152667075414,-3760,2.30533415082771,72,6.70731707317073,-110,-4.39024390243902,-37,2.25609756097561,-59,0.256521739130435,41,0.178260869565217,121,-0.590243902439024,
16081974,2128.90625,5376,-3.29613733905579,-15024,-9.21152667075414,-3696,2.26609442060086,76,6.95121951219512,-114,-4.63414634146342,-41,2.5,-57,0.247826086956522,40,0.173913043478261,121,-0.590243902439024,
16082614,2148.4375,5296,-3.24708767627223,-14992,-9.19190680564071,-3664,2.24647455548743,69,7.19512195121951,-118,-4.20731707317073,-49,2.98780487804878,-58,0.252173913043478,41,0.178260869565217,121,-0.590243902439024,
16083254,2167.96875,5376,-3.29613733905579,-15072,-9.24095646842428,-3584,2.19742489270386,70,7.01219512195122,-115,-4.26829268292683,-55,3.35365853658537,-58,0.252173913043478,44,0.191304347826087,121,-0.590243902439024,
16083894,2187.5,5328,-3.26670754138565,-15072,-9.24095646842428,-3520,2.15818516247701,77,6.82926829268293,-112,-4.69512195121951,-63,3.84146341463415,-59,0.256521739130435,45,0.195652173913043,122,-0.595121951219512,
16084534,2207.03125,5248,-3.21765787860208,-15040,-9.22133660331085,-3504,2.14837522992029,88,6.52439024390244,-107,-5.36585365853659,-68,4.14634146341463,-58,0.252173913043478,43,0.18695652173913,120,-0.585365853658537,
16085174,2226.5625,5056,-3.09993868792152,-14976,-9.182096873084,-3504,2.14837522992029,94,6.34146341463415,-104,-5.73170731707317,-72,4.39024390243902,-59,0.256521739130435,39,0.169565217391304,122,-0.595121951219512,
16085814,2246.09375,4976,-3.05088902513795,-15024,-9.21152667075414,-3680,2.25628448804414,70,6.58536585365854,-108,-4.26829268292683,-77,4.69512195121951,-58,0.252173913043478,44,0.191304347826087,121,-0.590243902439024,
16086454,2265.625,4944,-3.03126916002452,-15056,-9.23114653586757,-3920,2.40343347639485,41,7.5609756097561,-124,-2.5,-75,4.57317073170732,-59,0.256521739130435,41,0.178260869565217,121,-0.590243902439024,
16087094,2285.15625,5120,-3.13917841814837,-15088,-9.25076640098099,-4384,2.68792152053955,44,8.47560975609756,-139,-2.68292682926829,-75,4.57317073170732,-58,0.252173913043478,40,0.173913043478261,123,-0.6,
16087734,2304.6875,5472,-3.35499693439608,-15184,-9.30962599632127,-5072,3.10974862047823,79,8.90243902439025,-146,-4.81707317073171,-93,5.67073170731707,-59,0.256521739130435,40,0.173913043478261,122,-0.595121951219512,
16088374,2324.21875,6176,-3.78663396689148,-15392,-9.43715511955855,-6048,3.70815450643777,198,9.9390243902439,-163,-12.0731707317073,-117,7.13414634146342,-57,0.247826086956522,43,0.18695652173913,122,-0.595121951219512,
16089014,2343.75,6928,-4.24770079705702,-15424,-9.45677498467198,-7136,4.3752299202943,396,12.9878048780488,-213,-24.1463414634146,-151,9.20731707317073,-60,0.260869565217391,44,0.191304347826087,122,-0.595121951219512,
16089654,2363.28125,7440,-4.56161863887186,-15488,-9.49601471489883,-8432,5.16983445738811,582,17.7439024390244,-291,-35.4878048780488,-195,11.890243902439,-59,0.256521739130435,41,0.178260869565217,123,-0.6,
16090294,2382.8125,7856,-4.81667688534641,-15808,-9.69221336603311,-9472,5.80748007357449,724,24.8170731707317,-407,-44.1463414634146,-246,15,-58,0.252173913043478,41,0.178260869565217,121,-0.590243902439024,
16090934,2402.34375,8416,-5.16002452483139,-16048,-9.83936235438381,-10576,6.48436541998774,889,33.9024390243902,-556,-54.2073170731707,-307,18.719512195122,-58,0.252173913043478,44,0.191304347826087,122,-0.595121951219512,
16091574,2421.875,8688,-5.32679337829552,-16256,-9.96689147762109,-11568,7.09258123850398,947,44.4512195121951,-729,-57.7439024390244,-353,21.5243902439024,-58,0.252173913043478,41,0.178260869565217,124,-0.604878048780488,
16092214,2441.40625,8592,-5.26793378295524,-16288,-9.98651134273452,-11536,7.07296137339056,902,55.2439024390244,-906,-55,-414,25.2439024390244,-57,0.247826086956522,43,0.18695652173913,125,-0.609756097560976,
16092854,2460.9375,8400,-5.15021459227468,-15952,-9.78050275904353,-11184,6.85714285714286,733,65.0609756097561,-1067,-44.6951219512195,-505,30.7926829268293,-57,0.247826086956522,41,0.178260869565217,126,-0.614634146341463,
16093494,2480.46875,8400,-5.15021459227468,-15920,-9.7608828939301,-10720,6.57265481299816,524,73.0487804878049,-1198,-31.9512195121951,-591,36.0365853658537,-56,0.243478260869565,38,0.165217391304348,127,-0.619512195121951,
16094134,2500,8528,-5.22869405272839,-15904,-9.75107296137339,-10016,6.14101778050276,381,80.2439024390244,-1316,-23.2317073170732,-681,41.5243902439024,-57,0.247826086956522,38,0.165217391304348,131,-0.639024390243902,
16094774,2519.53125,8672,-5.31698344573881,-15728,-9.64316370324954,-9312,5.70938074800736,341,84.9390243902439,-1393,-20.7926829268293,-751,45.7926829268293,-58,0.252173913043478,38,0.165217391304348,129,-0.629268292682927,
16095414,2539.0625,8752,-5.36603310852238,-15776,-9.67259350091968,-8656,5.3071735131821,400,89.2682926829268,-1464,-24.390243902439,-805,49.0853658536585,-59,0.256521739130435,37,0.160869565217391,132,-0.64390243902439,
16096054,2558.59375,8352,-5.12078479460454,-15440,-9.46658491722869,-8128,4.98344573881055,432,90.7926829268293,-1489,-26.3414634146341,-858,52.3170731707317,-58,0.252173913043478,38,0.165217391304348,134,-0.653658536585366,
16096694,2578.125,8080,-4.9540159411404,-15152,-9.29000613120785,-7696,4.71857755977928,433,90.7317073170732,-1488,-26.4024390243902,-889,54.2073170731707,-58,0.252173913043478,37,0.160869565217391,137,-0.668292682926829,
16097334,2597.65625,7888,-4.83629675045984,-14976,-9.182096873084,-7312,4.48313917841815,439,90.2439024390244,-1480,-26.7682926829268,-898,54.7560975609756,-61,0.265217391304348,37,0.160869565217391,139,-0.678048780487805,
16097974,2617.1875,7616,-4.66952789699571,-14608,-8.95646842427958,-7088,4.34580012262416,455,89.5121951219512,-1468,-27.7439024390244,-911,55.5487804878049,-62,0.269565217391304,29,0.126086956521739,141,-0.68780487804878,
16098614,2636.71875,7360,-4.51256897608829,-14096,-8.64255058246474,-7200,4.41446965052115,436,87.0731707317073,-1428,-26.5853658536585,-918,55.9756097560976,-61,0.265217391304348,30,0.130434782608696,144,-0.702439024390244,
16099254,2656.25,7168,-4.39484978540773,-13552,-8.30901287553648,-7520,4.61066830165543,428,83.780487804878,-1374,-26.0975609756098,-915,55.7926829268293,-61,0.265217391304348,27,0.117391304347826,145,-0.707317073170732,
16099894,2675.78125,7040,-4.31637032495402,-12912,-7.91661557326793,-7984,4.89515634580012,496,80.5487804878049,-1321,-30.2439024390244,-892,54.390243902439,-60,0.260869565217391,24,0.104347826086957,148,-0.721951219512195,
16100534,2695.3125,6880,-4.21827099938688,-12448,-7.63212752912324,-8048,4.93439607602698,566,76.5853658536585,-1256,-34.5121951219512,-844,51.4634146341463,-63,0.273913043478261,29,0.126086956521739,149,-0.726829268292683,
16101174,2714.84375,6544,-4.01226241569589,-12016,-7.36725935009197,-8032,4.92458614347026,630,74.1463414634146,-1216,-38.4146341463415,-786,47.9268292682927,-62,0.269565217391304,25,0.108695652173913,152,-0.741463414634146,
16101814,2734.375,5984,-3.66891477621091,-11536,-7.07296137339056,-8096,4.96382587369712,581,71.0365853658537,-1165,-35.4268292682927,-739,45.0609756097561,-62,0.269565217391304,21,0.091304347826087,152,-0.741463414634146,
16102454,2753.90625,5568,-3.41385652973636,-10864,-6.66094420600858,-8384,5.14040465971796,486,67.1341463414634,-1101,-29.6341463414634,-700,42.6829268292683,-61,0.265217391304348,22,0.0956521739130435,153,-0.746341463414634,
16103094,2773.4375,5616,-3.4432863274065,-10352,-6.34702636419375,-8576,5.25812385039853,417,63.4756097560976,-1041,-25.4268292682927,-632,38.5365853658537,-61,0.265217391304348,20,0.0869565217391304,153,-0.746341463414634,
16103734,2792.96875,5552,-3.40404659717964,-9904,-6.07234825260576,-8560,5.24831391784181,385,59.6951219512195,-979,-23.4756097560976,-559,34.0853658536585,-62,0.269565217391304,19,0.0826086956521739,153,-0.746341463414634,
16104374,2812.5,5408,-3.31575720416922,-9440,-5.78786020846107,-8544,5.2385039852851,376,55.9756097560976,-918,-22.9268292682927,-499,30.4268292682927,-62,0.269565217391304,15,0.0652173913043478,155,-0.75609756097561,
16105014,2832.03125,5520,-3.38442673206622,-8912,-5.46413243408952,-8800,5.39546290619252,379,51.219512195122,-840,-23.109756097561,-428,26.0975609756098,-63,0.273913043478261,15,0.0652173913043478,157,-0.765853658536585,
16105654,2851.5625,5584,-3.42366646229307,-8704,-5.33660331085224,-9184,5.63090128755365,383,46.4024390243902,-761,-23.3536585365854,-369,22.5,-60,0.260869565217391,16,0.0695652173913043,157,-0.765853658536585,
16106294,2871.09375,5536,-3.39423666462293,-8416,-5.16002452483139,-9360,5.7388105456775,393,42.6219512195122,-699,-23.9634146341463,-330,20.1219512195122,-60,0.260869565217391,14,0.0608695652173913,160,-0.780487804878049,
16106934,2890.625,5744,-3.52176578786021,-7968,-4.88534641324341,-9680,5.93500919681177,407,38.3536585365854,-629,-24.8170731707317,-289,17.6219512195122,-61,0.265217391304348,12,0.0521739130434783,160,-0.780487804878049,
16107574,2910.15625,5776,-3.54138565297364,-7776,-4.76762722256284,-9968,6.11158798283262,424,34.390243902439,-564,-25.8536585365854,-249,15.1829268292683,-59,0.256521739130435,8,0.0347826086956522,161,-0.785365853658537,
16108214,2929.6875,5728,-3.51195585530349,-7520,-4.61066830165543,-10320,6.32740649908032,482,31.4634146341463,-516,-29.390243902439,-203,12.3780487804878,-56,0.243478260869565,9,0.0391304347826087,161,-0.785365853658537,
16108854,2949.21875,5792,-3.55119558553035,-7360,-4.51256897608829,-10816,6.63151440833844,534,28.3536585365854,-465,-32.5609756097561,-157,9.57317073170732,-57,0.247826086956522,12,0.0521739130434783,159,-0.775609756097561,
16109494,2968.75,5808,-3.56100551808706,-7280,-4.46351931330472,-11280,6.91600245248314,601,26.4024390243902,-433,-36.6463414634146,-106,6.46341463414634,-58,0.252173913043478,13,0.0565217391304348,160,-0.780487804878049,
16110134,2988.28125,5536,-3.39423666462293,-7072,-4.33599019006744,-11744,7.20049049662784,661,24.7560975609756,-406,-40.3048780487805,-62,3.78048780487805,-55,0.239130434782609,9,0.0391304347826087,162,-0.790243902439024,
16110774,3007.8125,5216,-3.19803801348866,-6960,-4.26732066217045,-12224,7.49478847332925,665,24.0243902439024,-394,-40.5487804878049,-17,1.03658536585366,-54,0.234782608695652,10,0.0434782608695652,161,-0.785365853658537,
16111414,3027.34375,5328,-3.26670754138565,-6784,-4.1594114040466,-12656,7.75965665236051,650,21.8292682926829,-358,-39.6341463414634,9,-0.548780487804878,-51,0.221739130434783,8,0.0347826086956522,160,-0.780487804878049,
16112054,3046.875,5056,-3.09993868792152,-6704,-4.11036174126303,-13136,8.05395462906193,618,21.280487804878,-349,-37.6829268292683,45,-2.74390243902439,-53,0.230434782608696,8,0.0347826086956522,159,-0.775609756097561,
16112694,3066.40625,4784,-2.93316983445739,-6640,-4.07112201103617,-13376,8.20110361741263,554,21.5243902439024,-353,-33.780487804878,64,-3.90243902439024,-49,0.21304347826087,8,0.0347826086956522,159,-0.775609756097561,
16113334,3085.9375,4736,-2.90374003678725,-6512,-3.99264255058246,-13568,8.31882280809319,485,21.0975609756098,-346,-29.5731707317073,83,-5.0609756097561,-48,0.208695652173913,9,0.0391304347826087,159,-0.775609756097561,
16113974,3105.46875,4784,-2.93316983445739,-6512,-3.99264255058246,-13824,8.47578172900061,418,21.0975609756098,-346,-25.4878048780488,95,-5.79268292682927,-49,0.21304347826087,4,0.0173913043478261,160,-0.780487804878049,
16114614,3125,4768,-2.92335990190067,-6512,-3.99264255058246,-13936,8.54445125689761,372,21.0975609756098,-346,-22.6829268292683,98,-5.97560975609756,-48,0.208695652173913,6,0.0260869565217391,159,-0.775609756097561,
16115254,3144.53125,4640,-2.84488044144697,-6624,-4.06131207847946,-13984,8.57388105456775,306,22.3780487804878,-367,-18.6585365853659,99,-6.03658536585366,-47,0.204347826086957,8,0.0347826086956522,160,-0.780487804878049,
16115894,3164.0625,4432,-2.71735131820969,-6576,-4.03188228080932,-13824,8.47578172900061,218,23.780487804878,-390,-13.2926829268293,83,-5.0609756097561,-46,0.2,5,0.0217391304347826,159,-0.775609756097561,
16116534,3183.59375,4416,-2.70754138565297,-6576,-4.03188228080932,-13600,8.33844267320662,106,24.8170731707317,-407,-6.46341463414634,60,-3.65853658536585,-44,0.191304347826087,2,0.00869565217391304,161,-0.785365853658537,
16117174,3203.125,4400,-2.69773145309626,-6432,-3.9435928877989,-13392,8.21091354996934,-1,24.6951219512195,-405,0.0609756097560976,21,-1.28048780487805,-48,0.208695652173913,6,0.0260869565217391,160,-0.780487804878049,
16117814,3222.65625,4416,-2.70754138565297,-6240,-3.82587369711833,-13456,8.2501532801962,-82,24.2073170731707,-397,5,-15,0.914634146341463,-46,0.2,5,0.0217391304347826,161,-0.785365853658537,
16118454,3242.1875,4656,-2.85469037400368,-5840,-3.58062538320049,-13472,8.25996321275291,-81,22.2560975609756,-365,4.9390243902439,-34,2.07317073170732,-45,0.195652173913043,3,0.0130434782608696,162,-0.790243902439024,
16119094,3261.71875,4944,-3.03126916002452,-5616,-3.4432863274065,-13664,8.37768240343348,39,19.390243902439,-318,-2.37804878048781,-20,1.21951219512195,-45,0.195652173913043,1,0.00434782608695652,163,-0.795121951219512,
16119734,3281.25,4992,-3.06069895769467,-5344,-3.27651747394237,-13920,8.53464132434089,187,17.0731707317073,-280,-11.4024390243902,12,-0.731707317073171,-44,0.191304347826087,-3,-0.0130434782608696,163,-0.795121951219512,
16120374,3300.78125,4880,-2.99202942979767,-4880,-2.99202942979767,-14192,8.70141017780503,271,13.3536585365854,-219,-16.5243902439024,63,-3.84146341463415,-43,0.18695652173913,1,0.00434782608695652,164,-0.8,
16121014,3320.3125,5024,-3.08031882280809,-4416,-2.70754138565297,-14864,9.113427345187,328,10.2439024390244,-168,-20,160,-9.75609756097561,-45,0.195652173913043,2,0.00869565217391304,161,-0.785365853658537,
16121654,3339.84375,5104,-3.12936848559166,-4320,-2.64868179031269,-15680,9.6137339055794,444,7.80487804878049,-128,-27.0731707317073,266,-16.219512195122,-43,0.18695652173913,2,0.00869565217391304,161,-0.785365853658537,
16122294,3359.375,5280,-3.23727774371551,-4336,-2.6584917228694,-16064,9.84917228694053,595,7.07317073170732,-116,-36.280487804878,393,-23.9634146341463,-40,0.173913043478261,-5,-0.0217391304347826,162,-0.790243902439024,
16122934,3378.90625,5376,-3.29613733905579,-4256,-2.60944206008584,-16512,10.1238503985285,788,8.04878048780488,-132,-48.0487804878049,539,-32.8658536585366,-38,0.165217391304348,-3,-0.0130434782608696,163,-0.795121951219512,
16123574,3398.4375,4960,-3.04107909258124,-4512,-2.76640098099326,-17008,10.4279583077866,955,9.69512195121951,-159,-58.2317073170732,642,-39.1463414634146,-35,0.152173913043478,-3,-0.0130434782608696,160,-0.780487804878049,
16124214,3417.96875,4320,-2.64868179031269,-5072,-3.10974862047823,-16976,10.4083384426732,1025,13.3536585365854,-219,-62.5,697,-42.5,-34,0.147826086956522,-1,-0.00434782608695652,158,-0.770731707317073,
16124854,3437.5,3760,-2.30533415082771,-5456,-3.34518700183936,-16560,10.1532801961987,1039,17.0121951219512,-279,-63.3536585365854,723,-44.0853658536585,-32,0.139130434782609,-8,-0.0347826086956522,159,-0.775609756097561,
16125494,3457.03125,2896,-1.77559779276517,-5952,-3.64929491109749,-15840,9.71183323114654,1010,18.4756097560976,-303,-61.5853658536585,738,-45,-28,0.121739130434783,-10,-0.0434782608695652,158,-0.770731707317073,
16126134,3476.5625,2304,-1.41263028816677,-6208,-3.8062538320049,-15536,9.52544451256898,964,19.2073170731707,-315,-58.7804878048781,718,-43.780487804878,-25,0.108695652173913,-11,-0.0478260869565217,157,-0.765853658536585,
16126774,3496.09375,1760,-1.0790925812385,-6176,-3.78663396689148,-15424,9.45677498467198,955,18.6585365853659,-306,-58.2317073170732,705,-42.9878048780488,-22,0.0956521739130435,-13,-0.0565217391304348,156,-0.760975609756098,
16127414,3515.625,1024,-0.627835683629675,-6080,-3.7277743715512,-15088,9.25076640098099,970,17.6829268292683,-290,-59.1463414634146,713,-43.4756097560976,-22,0.0956521739130435,-7,-0.0304347826086957,155,-0.75609756097561,
16128054,3535.15625,464,-0.284488044144696,-5920,-3.62967504598406,-14688,9.00551808706315,915,16.7682926829268,-275,-55.7926829268293,686,-41.8292682926829,-20,0.0869565217391304,-10,-0.0434782608695652,153,-0.746341463414634,
16128694,3554.6875,64,-0.0392397302268547,-5680,-3.48252605763335,-14640,8.97608828939301,855,16.4634146341463,-270,-52.1341463414634,655,-39.9390243902439,-17,0.0739130434782609,-12,-0.0521739130434783,151,-0.736585365853659,
16129334,3574.21875,-288,0.176578786020846,-5808,-3.56100551808706,-14736,9.03494788473329,761,16.8292682926829,-276,-46.4024390243902,613,-37.3780487804878,-15,0.0652173913043478,-15,-0.0652173913043478,152,-0.741463414634146,
16129974,3593.75,-368,0.225628448804414,-5680,-3.48252605763335,-14704,9.01532801961987,590,17.1951219512195,-282,-35.9756097560976,520,-31.7073170731707,-16,0.0695652173913043,-15,-0.0652173913043478,149,-0.726829268292683,
16130614,3613.28125,-64,0.0392397302268547,-5504,-3.3746167995095,-14704,9.01532801961987,457,17.9878048780488,-295,-27.8658536585366,416,-25.3658536585366,-15,0.0652173913043478,-15,-0.0652173913043478,150,-0.731707317073171,
16131254,3632.8125,208,-0.127529123237278,-5520,-3.38442673206622,-14736,9.03494788473329,467,19.5121951219512,-320,-28.4756097560976,314,-19.1463414634146,-11,0.0478260869565217,-19,-0.0826086956521739,150,-0.731707317073171,
16131894,3652.34375,64,-0.0392397302268547,-5216,-3.19803801348866,-14736,9.03494788473329,487,21.890243902439,-359,-29.6951219512195,195,-11.890243902439,-13,0.0565217391304348,-21,-0.091304347826087,149,-0.726829268292683,
16132534,3671.875,-576,0.353157572041692,-4784,-2.93316983445739,-14624,8.9662783568363,421,23.5975609756098,-387,-25.6707317073171,81,-4.9390243902439,-11,0.0478260869565217,-20,-0.0869565217391304,149,-0.726829268292683,
16133174,3691.40625,-1168,0.716125076640098,-4544,-2.78602084610668,-14656,8.98589822194972,247,24.6951219512195,-405,-15.0609756097561,-27,1.64634146341463,-10,0.0434782608695652,-20,-0.0869565217391304,148,-0.721951219512195,
16133814,3710.9375,-1488,0.912323727774372,-4512,-2.76640098099326,-14448,8.85836909871245,42,24.5121951219512,-402,-2.5609756097561,-99,6.03658536585366,-10,0.0434782608695652,-22,-0.0956521739130435,147,-0.717073170731707,
16134454,3730.46875,-1376,0.843654199877376,-4528,-2.77621091354997,-14592,8.94665849172287,-66,24.4512195121951,-401,4.02439024390244,-140,8.53658536585366,-12,0.0521739130434783,-18,-0.0782608695652174,148,-0.721951219512195,
16135094,3750,-896,0.549356223175966,-4432,-2.71735131820969,-14688,9.00551808706315,-45,24.1463414634146,-396,2.74390243902439,-148,9.02439024390244,-9,0.0391304347826087,-20,-0.0869565217391304,148,-0.721951219512195,
16135734,3769.53125,-800,0.490496627835684,-4432,-2.71735131820969,-14880,9.12323727774372,57,23.2926829268293,-382,-3.47560975609756,-132,8.04878048780488,-9,0.0391304347826087,-24,-0.104347826086957,149,-0.726829268292683,
16136374,3789.0625,-976,0.598405885959534,-4160,-2.55058246474555,-14944,9.16247700797057,177,22.3170731707317,-366,-10.7926829268293,-116,7.07317073170732,-9,0.0391304347826087,-20,-0.0869565217391304,147,-0.717073170731707,
16137014,3808.59375,-1360,0.833844267320662,-3984,-2.4426732066217,-15088,9.25076640098099,237,21.3414634146341,-350,-14.4512195121951,-111,6.76829268292683,-11,0.0478260869565217,-24,-0.104347826086957,149,-0.726829268292683,
16137654,3828.125,-1696,1.03985285101165,-3888,-2.38381361128142,-15104,9.26057633353771,215,20.0609756097561,-329,-13.109756097561,-99,6.03658536585366,-7,0.0304347826086957,-26,-0.11304347826087,149,-0.726829268292683,
16138294,3847.65625,-1808,1.10852237890864,-3824,-2.34457388105457,-15024,9.21152667075414,176,18.5975609756098,-305,-10.7317073170732,-82,5,-8,0.0347826086956522,-22,-0.0956521739130435,149,-0.726829268292683,
16138934,3867.1875,-1744,1.06928264868179,-3856,-2.364193746168,-15072,9.24095646842428,117,17.8048780487805,-292,-7.13414634146342,-76,4.63414634146342,-8,0.0347826086956522,-22,-0.0956521739130435,148,-0.721951219512195,
16139574,3886.71875,-1760,1.0790925812385,-3712,-2.27590435315757,-15168,9.29981606376456,82,17.0121951219512,-279,-5,-68,4.14634146341463,-8,0.0347826086956522,-19,-0.0826086956521739,146,-0.712195121951219,
16140214,3906.25,-1808,1.10852237890864,-3680,-2.25628448804414,-15168,9.29981606376456,35,15.8536585365854,-260,-2.13414634146341,-53,3.23170731707317,-7,0.0304347826086957,-21,-0.091304347826087,147,-0.717073170731707,
16140854,3925.78125,-1680,1.03004291845494,-3520,-2.15818516247701,-15152,9.29000613120785,11,14.9390243902439,-245,-0.670731707317073,-34,2.07317073170732,-7,0.0304347826086957,-22,-0.0956521739130435,147,-0.717073170731707,
16141494,3945.3125,-1904,1.16738197424893,-3344,-2.05027590435316,-15152,9.29000613120785,8,13.2317073170732,-217,-0.487804878048781,-15,0.914634146341463,-6,0.0260869565217391,-22,-0.0956521739130435,147,-0.717073170731707,
16142134,3964.84375,-1824,1.11833231146536,-3344,-2.05027590435316,-15136,9.28019619865113,-10,12.1341463414634,-199,0.609756097560976,1,-0.0609756097560976,-7,0.0304347826086957,-21,-0.091304347826087,145,-0.707317073170732,
16142774,3984.375,-1936,1.18700183936235,-3200,-1.96198651134273,-15328,9.3979153893317,-32,11.3414634146341,-186,1.95121951219512,42,-2.5609756097561,-7,0.0304347826086957,-27,-0.117391304347826,148,-0.721951219512195,
16143414,4003.90625,-1744,1.06928264868179,-3088,-1.89331698344574,-15632,9.58430410790926,-48,9.9390243902439,-163,2.92682926829268,60,-3.65853658536585,-8,0.0347826086956522,-21,-0.091304347826087,146,-0.712195121951219,
16144054,4023.4375,-1360,0.833844267320662,-3184,-1.95217657878602,-15840,9.71183323114654,16,9.75609756097561,-160,-0.975609756097561,73,-4.45121951219512,-10,0.0434782608695652,-23,-0.1,147,-0.717073170731707,
16144694,4042.96875,-1296,0.794604537093807,-3248,-1.99141630901288,-15888,9.74126302881668,20,10.609756097561,-174,-1.21951219512195,67,-4.08536585365854,-7,0.0304347826086957,-29,-0.126086956521739,148,-0.721951219512195,
16145334,4062.5,-1232,0.755364806866953,-3184,-1.95217657878602,-15904,9.75107296137339,9,10.609756097561,-174,-0.548780487804878,43,-2.6219512195122,-5,0.0217391304347826,-28,-0.121739130434783,148,-0.721951219512195,
16145974,4082.03125,-720,0.441446965052115,-3232,-1.98160637645616,-15888,9.74126302881668,90,11.0365853658537,-181,-5.48780487804878,24,-1.46341463414634,-5,0.0217391304347826,-30,-0.130434782608696,148,-0.721951219512195,
16146614,4101.5625,-800,0.490496627835684,-3200,-1.96198651134273,-16000,9.80993255671367,143,11.5853658536585,-190,-8.71951219512195,-1,0.0609756097560976,-8,0.0347826086956522,-24,-0.104347826086957,146,-0.712195121951219,
16147254,4121.09375,-1200,0.735744941753525,-3152,-1.93255671367259,-16048,9.83936235438381,122,12.3170731707317,-202,-7.4390243902439,-13,0.792682926829268,-5,0.0217391304347826,-26,-0.11304347826087,149,-0.726829268292683,
16147894,4140.625,-1440,0.88289393010423,-3040,-1.8638871857756,-15968,9.79031269160024,62,12.3170731707317,-202,-3.78048780487805,-16,0.975609756097561,-8,0.0347826086956522,-27,-0.117391304347826,149,-0.726829268292683,
16148534,4160.15625,-1360,0.833844267320662,-3024,-1.85407725321888,-16288,9.98651134273452,51,12.3170731707317,-202,-3.10975609756098,-17,1.03658536585366,-5,0.0217391304347826,-31,-0.134782608695652,148,-0.721951219512195,
16149174,4179.6875,-1360,0.833844267320662,-2896,-1.77559779276517,-16400,10.0551808706315,66,12.4390243902439,-204,-4.02439024390244,-2,0.121951219512195,-5,0.0217391304347826,-29,-0.126086956521739,149,-0.726829268292683,
16149814,4199.21875,-1520,0.931943592887799,-2944,-1.80502759043532,-16128,9.88841201716738,74,12.2560975609756,-201,-4.51219512195122,11,-0.670731707317073,-4,0.0173913043478261,-28,-0.121739130434783,146,-0.712195121951219,
16150454,4218.75,-1536,0.941753525444513,-2720,-1.66768853464132,-16000,9.80993255671367,69,11.9512195121951,-196,-4.20731707317073,12,-0.731707317073171,-5,0.0217391304347826,-25,-0.108695652173913,147,-0.717073170731707,
16151094,4238.28125,-1408,0.863274064990803,-2784,-1.70692826486818,-16032,9.8295524218271,84,12.0121951219512,-197,-5.1219512195122,7,-0.426829268292683,-5,0.0217391304347826,-26,-0.11304347826087,145,-0.707317073170732,
16151734,4257.8125,-1376,0.843654199877376,-2800,-1.71673819742489,-15760,9.66278356836297,70,12.2560975609756,-201,-4.26829268292683,-7,0.426829268292683,-5,0.0217391304347826,-32,-0.139130434782609,149,-0.726829268292683,
16152374,4277.34375,-1520,0.931943592887799,-2656,-1.62844880441447,-15632,9.58430410790926,42,11.890243902439,-195,-2.5609756097561,-24,1.46341463414634,-5,0.0217391304347826,-25,-0.108695652173913,146,-0.712195121951219,
16153014,4296.875,-1520,0.931943592887799,-2448,-1.50091968117719,-15600,9.56468424279583,12,11.5243902439024,-189,-0.731707317073171,-44,2.68292682926829,-3,0.0130434782608696,-30,-0.130434782608696,146,-0.712195121951219,
16153654,4316.40625,-1408,0.863274064990803,-2336,-1.4322501532802,-15712,9.63335377069283,44,10.9756097560976,-180,-2.68292682926829,-41,2.5,-4,0.0173913043478261,-31,-0.134782608695652,145,-0.707317073170732,
16154294,4335.9375,-1584,0.971183323114654,-2336,-1.4322501532802,-15680,9.6137339055794,75,11.219512195122,-184,-4.57317073170732,-33,2.01219512195122,-4,0.0173913043478261,-28,-0.121739130434783,147,-0.717073170731707,
16154934,4355.46875,-1936,1.18700183936235,-2160,-1.32434089515635,-15568,9.5450643776824,24,10.4878048780488,-172,-1.46341463414634,-37,2.25609756097561,-3,0.0130434782608696,-33,-0.143478260869565,146,-0.712195121951219,
16155574,4375,-2032,1.24586143470264,-2128,-1.30472103004292,-15472,9.48620478234212,-3,9.20731707317073,-151,0.182926829268293,-30,1.82926829268293,-6,0.0260869565217391,-24,-0.104347826086957,145,-0.707317073170732,
16156214,4394.53125,-1904,1.16738197424893,-2192,-1.34396076026977,-15808,9.69221336603311,25,8.59756097560976,-141,-1.52439024390244,-15,0.914634146341463,-5,0.0217391304347826,-28,-0.121739130434783,148,-0.721951219512195,
16156854,4414.0625,-1888,1.15757204169221,-2272,-1.39301042305334,-15616,9.57449417535254,33,8.17073170731707,-134,-2.01219512195122,2,-0.121951219512195,-4,0.0173913043478261,-30,-0.130434782608696,146,-0.712195121951219,
16157494,4433.59375,-1904,1.16738197424893,-2128,-1.30472103004292,-15488,9.49601471489883,27,7.19512195121951,-118,-1.64634146341463,8,-0.487804878048781,-5,0.0217391304347826,-26,-0.11304347826087,145,-0.707317073170732,
16158134,4453.125,-1824,1.11833231146536,-2128,-1.30472103004292,-15488,9.49601471489883,43,6.52439024390244,-107,-2.6219512195122,12,-0.731707317073171,-5,0.0217391304347826,-29,-0.126086956521739,147,-0.717073170731707,
16158774,4472.65625,-1712,1.04966278356836,-2032,-1.24586143470264,-15536,9.52544451256898,55,5.79268292682927,-95,-3.35365853658537,-7,0.426829268292683,-4,0.0173913043478261,-31,-0.134782608695652,146,-0.712195121951219,
16159414,4492.1875,-1760,1.0790925812385,-1984,-1.2164316370325,-15584,9.55487431023912,58,5.54878048780488,-91,-3.53658536585366,-10,0.609756097560976,-2,0.00869565217391304,-29,-0.126086956521739,146,-0.712195121951219,
16160054,4511.71875,-1872,1.1477621091355,-2048,-1.25567136725935,-15440,9.46658491722869,22,5.36585365853659,-88,-1.34146341463415,-28,1.70731707317073,-4,0.0173913043478261,-29,-0.126086956521739,145,-0.707317073170732,
16160694,4531.25,-1936,1.18700183936235,-2016,-1.23605150214592,-15376,9.42734518700184,-16,4.14634146341463,-68,0.975609756097561,-37,2.25609756097561,-4,0.0173913043478261,-33,-0.143478260869565,147,-0.717073170731707,
16161334,4550.78125,-1856,1.13795217657879,-2016,-1.23605150214592,-15456,9.47639484978541,-17,3.29268292682927,-54,1.03658536585366,-28,1.70731707317073,-4,0.0173913043478261,-27,-0.117391304347826,147,-0.717073170731707,
16161974,4570.3125,-1872,1.1477621091355,-2096,-1.28510116492949,-15520,9.51563458001226,9,2.13414634146341,-35,-0.548780487804878,-9,0.548780487804878,-4,0.0173913043478261,-28,-0.121739130434783,145,-0.707317073170732,
16162614,4589.84375,-1904,1.16738197424893,-2016,-1.23605150214592,-15584,9.55487431023912,23,1.15853658536585,-19,-1.40243902439024,13,-0.792682926829268,-4,0.0173913043478261,-34,-0.147826086956522,148,-0.721951219512195,
16163254,4609.375,-1984,1.2164316370325,-2000,-1.22624156958921,-15840,9.71183323114654,13,0.609756097560976,-10,-0.792682926829268,25,-1.52439024390244,-5,0.0217391304347826,-29,-0.126086956521739,145,-0.707317073170732,
16163894,4628.90625,-1840,1.12814224402207,-2048,-1.25567136725935,-16144,9.89822194972409,38,0.24390243902439,-4,-2.31707317073171,36,-2.19512195121951,-2,0.00869565217391304,-34,-0.147826086956522,147,-0.717073170731707,
16164534,4648.4375,-1840,1.12814224402207,-2176,-1.33415082771306,-16176,9.91784181483752,57,0.609756097560976,-10,-3.47560975609756,41,-2.5,-3,0.0130434782608696,-33,-0.143478260869565,147,-0.717073170731707,
16165174,4667.96875,-1808,1.10852237890864,-2192,-1.34396076026977,-16336,10.0159411404047,52,1.15853658536585,-19,-3.17073170731707,38,-2.31707317073171,-4,0.0173913043478261,-26,-0.11304347826087,147,-0.717073170731707,
16165814,4687.5,-1776,1.08890251379522,-2336,-1.4322501532802,-16576,10.1630901287554,47,2.13414634146341,-35,-2.86585365853659,32,-1.95121951219512,-4,0.0173913043478261,-29,-0.126086956521739,146,-0.712195121951219,
16166454,4707.03125,-1760,1.0790925812385,-2224,-1.3635806253832,-16592,10.1729000613121,26,3.10975609756098,-51,-1.58536585365854,9,-0.548780487804878,-4,0.0173913043478261,-26,-0.11304347826087,144,-0.702439024390244,
16167094,4726.5625,-1792,1.09871244635193,-2224,-1.3635806253832,-16496,10.1140404659718,-4,3.90243902439024,-64,0.24390243902439,-12,0.731707317073171,-3,0.0130434782608696,-33,-0.143478260869565,146,-0.712195121951219,
16167734,4746.09375,-1760,1.0790925812385,-2128,-1.30472103004292,-16304,9.99632127529123,-34,4.57317073170732,-75,2.07317073170732,-33,2.01219512195122,-4,0.0173913043478261,-29,-0.126086956521739,145,-0.707317073170732,
16168374,4765.625,-1696,1.03985285101165,-2160,-1.32434089515635,-16208,9.93746167995095,-13,4.63414634146342,-76,0.792682926829268,-35,2.13414634146341,-3,0.0130434782608696,-30,-0.130434782608696,146,-0.712195121951219,
16169014,4785.15625,-1712,1.04966278356836,-2272,-1.39301042305334,-16224,9.94727161250766,25,5,-82,-1.52439024390244,-37,2.25609756097561,-1,0.00434782608695652,-33,-0.143478260869565,148,-0.721951219512195,
16169654,4804.6875,-1936,1.18700183936235,-2224,-1.3635806253832,-16000,9.80993255671367,18,5.36585365853659,-88,-1.09756097560976,-46,2.80487804878049,-4,0.0173913043478261,-30,-0.130434782608696,146,-0.712195121951219,
16170294,4824.21875,-1792,1.09871244635193,-2080,-1.27529123237278,-15856,9.72164316370325,-15,5.42682926829268,-89,0.914634146341463,-52,3.17073170731707,-2,0.00869565217391304,-30,-0.130434782608696,146,-0.712195121951219,
16170934,4843.75,-1680,1.03004291845494,-2032,-1.24586143470264,-15808,9.69221336603311,9,4.87804878048781,-80,-0.548780487804878,-66,4.02439024390244,-3,0.0130434782608696,-33,-0.143478260869565,146,-0.712195121951219,
16171574,4863.28125,-1792,1.09871244635193,-1952,-1.19681177191907,-15808,9.69221336603311,36,4.75609756097561,-78,-2.19512195121951,-63,3.84146341463415,-3,0.0130434782608696,-33,-0.143478260869565,148,-0.721951219512195,
16172214,4882.8125,-1872,1.1477621091355,-2144,-1.31453096259963,-15776,9.67259350091968,16,4.57317073170732,-75,-0.975609756097561,-74,4.51219512195122,-1,0.00434782608695652,-32,-0.139130434782609,145,-0.707317073170732,
16172854,4902.34375,-1840,1.12814224402207,-2032,-1.24586143470264,-15808,9.69221336603311,-1,4.87804878048781,-80,0.0609756097560976,-96,5.85365853658537,-3,0.0130434782608696,-34,-0.147826086956522,146,-0.712195121951219,
16173494,4921.875,-1808,1.10852237890864,-2160,-1.32434089515635,-15808,9.69221336603311,-21,5.1219512195122,-84,1.28048780487805,-114,6.95121951219512,-2,0.00869565217391304,-28,-0.121739130434783,146,-0.712195121951219,
16174134,4941.40625,-1744,1.06928264868179,-2144,-1.31453096259963,-15728,9.64316370324954,0,5.48780487804878,-90,0,-139,8.47560975609756,-3,0.0130434782608696,-29,-0.126086956521739,147,-0.717073170731707,
16174774,4960.9375,-1744,1.06928264868179,-2096,-1.28510116492949,-15728,9.64316370324954,25,5.73170731707317,-94,-1.52439024390244,-146,8.90243902439025,-4,0.0173913043478261,-33,-0.143478260869565,146,-0.712195121951219,
16175414,4980.46875,-1872,1.1477621091355,-1952,-1.19681177191907,-15840,9.71183323114654,45,5.24390243902439,-86,-2.74390243902439,-152,9.26829268292683,-3,0.0130434782608696,-34,-0.147826086956522,146,-0.712195121951219,
16176054,5000,-2112,1.2949110974862,-1952,-1.19681177191907,-15888,9.74126302881668,31,4.39024390243902,-72,-1.89024390243902,-142,8.65853658536586,-4,0.0173913043478261,-30,-0.130434782608696,145,-0.707317073170732,
16176694,5019.53125,-2240,1.37339055793991,-1904,-1.16738197424893,-15952,9.78050275904353,23,3.65853658536585,-60,-1.40243902439024,-104,6.34146341463415,-2,0.00869565217391304,-31,-0.134782608695652,144,-0.702439024390244,
16177334,5039.0625,-2384,1.46167995095034,-1920,-1.17719190680564,-16000,9.80993255671367,-5,2.68292682926829,-44,0.304878048780488,-73,4.45121951219512,-1,0.00434782608695652,-33,-0.143478260869565,146,-0.712195121951219,
16177974,5058.59375,-2288,1.40282035561006,-1888,-1.15757204169221,-16160,9.90803188228081,-18,1.64634146341463,-27,1.09756097560976,-29,1.76829268292683,-1,0.00434782608695652,-32,-0.139130434782609,147,-0.717073170731707,
16178614,5078.125,-2064,1.26548129981606,-1904,-1.16738197424893,-16416,10.0649908031882,4,0.731707317073171,-12,-0.24390243902439,-5,0.304878048780488,-4,0.0173913043478261,-30,-0.130434782608696,145,-0.707317073170732,
16179254,5097.65625,-2160,1.32434089515635,-1984,-1.2164316370325,-16528,10.1336603310852,25,0.24390243902439,-4,-1.52439024390244,31,-1.89024390243902,-1,0.00434782608695652,-30,-0.130434782608696,147,-0.717073170731707,
16179894,5117.1875,-2080,1.27529123237278,-2096,-1.28510116492949,-16496,10.1140404659718,26,0.426829268292683,-7,-1.58536585365854,45,-2.74390243902439,-3,0.0130434782608696,-31,-0.134782608695652,145,-0.707317073170732,
16180534,5136.71875,-2080,1.27529123237278,-2224,-1.3635806253832,-16464,10.0944206008584,16,0.731707317073171,-12,-0.975609756097561,49,-2.98780487804878,-3,0.0130434782608696,-32,-0.139130434782609,147,-0.717073170731707,
16181174,5156.25,-1920,1.17719190680564,-2304,-1.41263028816677,-16224,9.94727161250766,-5,1.52439024390244,-25,0.304878048780488,41,-2.5,-2,0.00869565217391304,-32,-0.139130434782609,145,-0.707317073170732,
16181814,5175.78125,-1840,1.12814224402207,-2192,-1.34396076026977,-16112,9.87860208461067,-18,2.01219512195122,-33,1.09756097560976,19,-1.15853658536585,-1,0.00434782608695652,-33,-0.143478260869565,146,-0.712195121951219,
16182454,5195.3125,-1712,1.04966278356836,-2176,-1.33415082771306,-16224,9.94727161250766,8,2.37804878048781,-39,-0.487804878048781,8,-0.487804878048781,-3,0.0130434782608696,-28,-0.121739130434783,146,-0.712195121951219,
16183094,5214.84375,-1904,1.16738197424893,-2256,-1.38320049049663,-16064,9.84917228694053,13,2.92682926829268,-48,-0.792682926829268,0,0,-3,0.0130434782608696,-28,-0.121739130434783,146,-0.712195121951219,
16183734,5234.375,-1952,1.19681177191907,-2096,-1.28510116492949,-16032,9.8295524218271,-18,3.10975609756098,-51,1.09756097560976,-4,0.24390243902439,-3,0.0130434782608696,-33,-0.143478260869565,145,-0.707317073170732,
16184374,5253.90625,-1728,1.05947271612508,-2064,-1.26548129981606,-16032,9.8295524218271,-32,3.04878048780488,-50,1.95121951219512,-10,0.609756097560976,-2,0.00869565217391304,-33,-0.143478260869565,146,-0.712195121951219,
16185014,5273.4375,-1664,1.02023298589822,-2128,-1.30472103004292,-15952,9.78050275904353,-6,2.98780487804878,-49,0.365853658536585,-13,0.792682926829268,-4,0.0173913043478261,-29,-0.126086956521739,146,-0.712195121951219,
16185654,5292.96875,-1776,1.08890251379522,-1984,-1.2164316370325,-16048,9.83936235438381,14,2.80487804878049,-46,-0.853658536585366,-24,1.46341463414634,-2,0.00869565217391304,-27,-0.117391304347826,145,-0.707317073170732,
16186294,5312.5,-1776,1.08890251379522,-1952,-1.19681177191907,-15872,9.73145309625996,26,2.37804878048781,-39,-1.58536585365854,-29,1.76829268292683,-2,0.00869565217391304,-32,-0.139130434782609,146,-0.712195121951219,
16186934,5332.03125,-1888,1.15757204169221,-1920,-1.17719190680564,-15952,9.78050275904353,38,1.89024390243902,-31,-2.31707317073171,-33,2.01219512195122,-4,0.0173913043478261,-26,-0.11304347826087,144,-0.702439024390244,
16187574,5351.5625,-2000,1.22624156958921,-2000,-1.22624156958921,-15808,9.69221336603311,39,1.64634146341463,-27,-2.37804878048781,-25,1.52439024390244,-1,0.00434782608695652,-29,-0.126086956521739,144,-0.702439024390244,
16188214,5371.09375,-1984,1.2164316370325,-2096,-1.28510116492949,-15760,9.66278356836297,32,0.975609756097561,-16,-1.95121951219512,-14,0.853658536585366,-4,0.0173913043478261,-28,-0.121739130434783,145,-0.707317073170732,
16188854,5390.625,-1872,1.1477621091355,-2144,-1.31453096259963,-15952,9.78050275904353,26,0.182926829268293,-3,-1.58536585365854,-10,0.609756097560976,-3,0.0130434782608696,-32,-0.139130434782609,146,-0.712195121951219,
16189494,5410.15625,-1920,1.17719190680564,-2176,-1.33415082771306,-15968,9.79031269160024,29,0.182926829268293,-3,-1.76829268292683,-18,1.09756097560976,-2,0.00869565217391304,-31,-0.134782608695652,145,-0.707317073170732,
16190134,5429.6875,-2016,1.23605150214592,-2272,-1.39301042305334,-16000,9.80993255671367,3,0.24390243902439,-4,-0.182926829268293,-26,1.58536585365854,-1,0.00434782608695652,-31,-0.134782608695652,145,-0.707317073170732,
16190774,5449.21875,-1920,1.17719190680564,-2240,-1.37339055793991,-16144,9.89822194972409,-44,1.21951219512195,-20,2.68292682926829,-49,2.98780487804878,-1,0.00434782608695652,-32,-0.139130434782609,145,-0.707317073170732,
16191414,5468.75,-1728,1.05947271612508,-2240,-1.37339055793991,-16240,9.95708154506438,-43,2.37804878048781,-39,2.6219512195122,-76,4.63414634146342,-2,0.00869565217391304,-31,-0.134782608695652,145,-0.707317073170732,
16192054,5488.28125,-1712,1.04966278356836,-2336,-1.4322501532802,-16368,10.0355610055181,21,2.92682926829268,-48,-1.28048780487805,-91,5.54878048780488,-1,0.00434782608695652,-26,-0.11304347826087,145,-0.707317073170732,
16192694,5507.8125,-1888,1.15757204169221,-2400,-1.47148988350705,-16256,9.96689147762109,80,3.71951219512195,-61,-4.87804878048781,-102,6.21951219512195,-1,0.00434782608695652,-31,-0.134782608695652,145,-0.707317073170732,
16193334,5527.34375,-2096,1.28510116492949,-2496,-1.53034947884733,-16416,10.0649908031882,85,4.75609756097561,-78,-5.18292682926829,-115,7.01219512195122,-1,0.00434782608695652,-32,-0.139130434782609,145,-0.707317073170732,
16193974,5546.875,-2128,1.30472103004292,-2432,-1.49110974862048,-16448,10.0846106683017,62,5.67073170731707,-93,-3.78048780487805,-126,7.68292682926829,-5,0.0217391304347826,-28,-0.121739130434783,146,-0.712195121951219,
16194614,5566.40625,-2240,1.37339055793991,-2464,-1.51072961373391,-16256,9.96689147762109,31,6.70731707317073,-110,-1.89024390243902,-135,8.23170731707317,-3,0.0130434782608696,-29,-0.126086956521739,145,-0.707317073170732,
16195254,5585.9375,-2128,1.30472103004292,-2432,-1.49110974862048,-16240,9.95708154506438,-7,6.89024390243902,-113,0.426829268292683,-144,8.78048780487805,-4,0.0173913043478261,-26,-0.11304347826087,144,-0.702439024390244,
16195894,5605.46875,-1984,1.2164316370325,-2464,-1.51072961373391,-16080,9.85898221949724,-19,6.95121951219512,-114,1.15853658536585,-133,8.10975609756098,-3,0.0130434782608696,-28,-0.121739130434783,145,-0.707317073170732,
16196534,5625,-1936,1.18700183936235,-2240,-1.37339055793991,-16096,9.86879215205395,-10,6.70731707317073,-110,0.609756097560976,-123,7.5,-1,0.00434782608695652,-27,-0.117391304347826,144,-0.702439024390244,
16197174,5644.53125,-2000,1.22624156958921,-2032,-1.24586143470264,-16016,9.81974248927039,11,6.09756097560976,-100,-0.670731707317073,-105,6.40243902439024,-1,0.00434782608695652,-28,-0.121739130434783,145,-0.707317073170732,
16197814,5664.0625,-2064,1.26548129981606,-1920,-1.17719190680564,-16016,9.81974248927039,26,5.42682926829268,-89,-1.58536585365854,-87,5.30487804878049,-2,0.00869565217391304,-29,-0.126086956521739,146,-0.712195121951219,
16198454,5683.59375,-2080,1.27529123237278,-2000,-1.22624156958921,-16128,9.88841201716738,29,4.45121951219512,-73,-1.76829268292683,-76,4.63414634146342,-3,0.0130434782608696,-28,-0.121739130434783,143,-0.697560975609756,
16199094,5703.125,-2016,1.23605150214592,-2032,-1.24586143470264,-16192,9.92765174739424,51,3.90243902439024,-64,-3.10975609756098,-64,3.90243902439024,-1,0.00434782608695652,-30,-0.130434782608696,145,-0.707317073170732,
16199734,5722.65625,-2288,1.40282035561006,-1968,-1.20662170447578,-16176,9.91784181483752,50,4.32926829268293,-71,-3.04878048780488,-59,3.59756097560976,-1,0.00434782608695652,-25,-0.108695652173913,144,-0.702439024390244,
16200374,5742.1875,-2336,1.4322501532802,-1920,-1.17719190680564,-16224,9.94727161250766,13,4.87804878048781,-80,-0.792682926829268,-64,3.90243902439024,-2,0.00869565217391304,-29,-0.126086956521739,145,-0.707317073170732,
16201014,5761.71875,-2240,1.37339055793991,-2000,-1.22624156958921,-16176,9.91784181483752,-13,5.42682926829268,-89,0.792682926829268,-71,4.32926829268293,-1,0.00434782608695652,-26,-0.11304347826087,145,-0.707317073170732,
16201654,5781.25,-2256,1.38320049049663,-1952,-1.19681177191907,-16176,9.91784181483752,-14,5.79268292682927,-95,0.853658536585366,-74,4.51219512195122,0,0,-31,-0.134782608695652,143,-0.697560975609756,
16202294,5800.78125,-2112,1.2949110974862,-2016,-1.23605150214592,-16160,9.90803188228081,2,5.91463414634146,-97,-0.121951219512195,-78,4.75609756097561,0,0,-30,-0.130434782608696,145,-0.707317073170732,
16202934,5820.3125,-2320,1.42244022072348,-2064,-1.26548129981606,-16048,9.83936235438381,11,6.09756097560976,-100,-0.670731707317073,-76,4.63414634146342,-1,0.00434782608695652,-25,-0.108695652173913,145,-0.707317073170732,
16203574,5839.84375,-2384,1.46167995095034,-1856,-1.13795217657879,-16128,9.88841201716738,10,5.73170731707317,-94,-0.609756097560976,-77,4.69512195121951,-2,0.00869565217391304,-27,-0.117391304347826,144,-0.702439024390244,
16204214,5859.375,-2192,1.34396076026977,-1952,-1.19681177191907,-16096,9.86879215205395,32,5.36585365853659,-88,-1.95121951219512,-64,3.90243902439024,0,0,-31,-0.134782608695652,145,-0.707317073170732,
16204854,5878.90625,-2288,1.40282035561006,-1856,-1.13795217657879,-15984,9.80012262415696,58,5.1219512195122,-84,-3.53658536585366,-50,3.04878048780488,-3,0.0130434782608696,-24,-0.104347826086957,143,-0.697560975609756,
16205494,5898.4375,-2496,1.53034947884733,-1824,-1.11833231146536,-16048,9.83936235438381,62,4.75609756097561,-78,-3.78048780487805,-35,2.13414634146341,0,0,-26,-0.11304347826087,143,-0.697560975609756,
16206134,5917.96875,-2592,1.58920907418761,-1872,-1.1477621091355,-16048,9.83936235438381,39,4.26829268292683,-70,-2.37804878048781,-17,1.03658536585366,0,0,-29,-0.126086956521739,145,-0.707317073170732,
16206774,5937.5,-2560,1.56958920907419,-1776,-1.08890251379522,-16032,9.8295524218271,26,3.29268292682927,-54,-1.58536585365854,18,-1.09756097560976,-1,0.00434782608695652,-29,-0.126086956521739,145,-0.707317073170732,
16207414,5957.03125,-2512,1.54015941140405,-1824,-1.11833231146536,-16080,9.85898221949724,11,2.4390243902439,-40,-0.670731707317073,34,-2.07317073170732,0,0,-27,-0.117391304347826,144,-0.702439024390244,
16208054,5976.5625,-2368,1.45187001839362,-1808,-1.10852237890864,-16112,9.87860208461067,7,2.25609756097561,-37,-0.426829268292683,61,-3.71951219512195,-3,0.0130434782608696,-26,-0.11304347826087,144,-0.702439024390244,
16208694,5996.09375,-2160,1.32434089515635,-1856,-1.13795217657879,-16256,9.96689147762109,-4,2.13414634146341,-35,0.24390243902439,64,-3.90243902439024,-1,0.00434782608695652,-30,-0.130434782608696,144,-0.702439024390244,
16209334,6015.625,-2048,1.25567136725935,-1952,-1.19681177191907,-16208,9.93746167995095,23,1.89024390243902,-31,-1.40243902439024,57,-3.47560975609756,-4,0.0173913043478261,-29,-0.126086956521739,142,-0.692682926829268,
16209974,6035.15625,-2080,1.27529123237278,-2048,-1.25567136725935,-16048,9.83936235438381,38,2.31707317073171,-38,-2.31707317073171,45,-2.74390243902439,1,-0.00434782608695652,-31,-0.134782608695652,144,-0.702439024390244,
16210614,6054.6875,-2048,1.25567136725935,-1888,-1.15757204169221,-16096,9.86879215205395,35,2.86585365853659,-47,-2.13414634146341,22,-1.34146341463415,0,0,-27,-0.117391304347826,143,-0.697560975609756,
16211254,6074.21875,-1952,1.19681177191907,-1952,-1.19681177191907,-16112,9.87860208461067,25,3.17073170731707,-52,-1.52439024390244,15,-0.914634146341463,-2,0.00869565217391304,-26,-0.11304347826087,144,-0.702439024390244,
16211894,6093.75,-1968,1.20662170447578,-2000,-1.22624156958921,-16192,9.92765174739424,58,3.65853658536585,-60,-3.53658536585366,12,-0.731707317073171,-2,0.00869565217391304,-27,-0.117391304347826,145,-0.707317073170732,
16212534,6113.28125,-2000,1.22624156958921,-1952,-1.19681177191907,-15936,9.77069282648682,75,3.90243902439024,-64,-4.57317073170732,4,-0.24390243902439,0,0,-31,-0.134782608695652,145,-0.707317073170732,
16213174,6132.8125,-2032,1.24586143470264,-1920,-1.17719190680564,-15984,9.80012262415696,78,3.84146341463415,-63,-4.75609756097561,-1,0.0609756097560976,-2,0.00869565217391304,-28,-0.121739130434783,142,-0.692682926829268,
16213814,6152.34375,-2160,1.32434089515635,-1888,-1.15757204169221,-16176,9.91784181483752,47,4.02439024390244,-66,-2.86585365853659,-9,0.548780487804878,1,-0.00434782608695652,-27,-0.117391304347826,144,-0.702439024390244,
16214454,6171.875,-2048,1.25567136725935,-1920,-1.17719190680564,-16128,9.88841201716738,14,3.53658536585366,-58,-0.853658536585366,-19,1.15853658536585,0,0,-28,-0.121739130434783,142,-0.692682926829268,
16215094,6191.40625,-2112,1.2949110974862,-1904,-1.16738197424893,-16064,9.84917228694053,4,3.84146341463415,-63,-0.24390243902439,-25,1.52439024390244,1,-0.00434782608695652,-31,-0.134782608695652,144,-0.702439024390244,
16215734,6210.9375,-2000,1.22624156958921,-1792,-1.09871244635193,-16000,9.80993255671367,16,3.71951219512195,-61,-0.975609756097561,-28,1.70731707317073,0,0,-30,-0.130434782608696,143,-0.697560975609756,
16216374,6230.46875,-1920,1.17719190680564,-1744,-1.06928264868179,-16064,9.84917228694053,29,3.29268292682927,-54,-1.76829268292683,-26,1.58536585365854,0,0,-27,-0.117391304347826,143,-0.697560975609756,
16217014,6250,-2096,1.28510116492949,-1808,-1.10852237890864,-16064,9.84917228694053,62,3.41463414634146,-56,-3.78048780487805,-28,1.70731707317073,1,-0.00434782608695652,-27,-0.117391304347826,143,-0.697560975609756,
16217654,6269.53125,-2240,1.37339055793991,-1776,-1.08890251379522,-16032,9.8295524218271,55,3.23170731707317,-53,-3.35365853658537,-28,1.70731707317073,-1,0.00434782608695652,-30,-0.130434782608696,143,-0.697560975609756,
16218294,6289.0625,-2352,1.44206008583691,-1744,-1.06928264868179,-16000,9.80993255671367,32,3.41463414634146,-56,-1.95121951219512,-28,1.70731707317073,0,0,-31,-0.134782608695652,144,-0.702439024390244,
16218934,6308.59375,-2336,1.4322501532802,-1744,-1.06928264868179,-15936,9.77069282648682,-5,3.41463414634146,-56,0.304878048780488,-28,1.70731707317073,1,-0.00434782608695652,-29,-0.126086956521739,143,-0.697560975609756,
16219574,6328.125,-2240,1.37339055793991,-1792,-1.09871244635193,-15872,9.73145309625996,-3,2.68292682926829,-44,0.182926829268293,-32,1.95121951219512,1,-0.00434782608695652,-31,-0.134782608695652,144,-0.702439024390244,
16220214,6347.65625,-2272,1.39301042305334,-1728,-1.05947271612508,-16000,9.80993255671367,19,2.6219512195122,-43,-1.15853658536585,-34,2.07317073170732,0,0,-30,-0.130434782608696,144,-0.702439024390244,
16220854,6367.1875,-2400,1.47148988350705,-1728,-1.05947271612508,-15936,9.77069282648682,16,2.31707317073171,-38,-0.975609756097561,-22,1.34146341463415,-1,0.00434782608695652,-25,-0.108695652173913,143,-0.697560975609756,
16221494,6386.71875,-2304,1.41263028816677,-1808,-1.10852237890864,-16032,9.8295524218271,12,1.70731707317073,-28,-0.731707317073171,-8,0.487804878048781,0,0,-29,-0.126086956521739,144,-0.702439024390244,
16222134,6406.25,-2320,1.42244022072348,-1776,-1.08890251379522,-16256,9.96689147762109,15,1.70731707317073,-28,-0.914634146341463,-3,0.182926829268293,0,0,-31,-0.134782608695652,143,-0.697560975609756,
16222774,6425.78125,-2368,1.45187001839362,-1808,-1.10852237890864,-16352,10.0257510729614,23,1.64634146341463,-27,-1.40243902439024,2,-0.121951219512195,-1,0.00434782608695652,-25,-0.108695652173913,144,-0.702439024390244,
16223414,6445.3125,-2368,1.45187001839362,-1936,-1.18700183936235,-16448,10.0846106683017,35,2.01219512195122,-33,-2.13414634146341,10,-0.609756097560976,0,0,-28,-0.121739130434783,143,-0.697560975609756,
16224054,6464.84375,-2432,1.49110974862048,-1952,-1.19681177191907,-16400,10.0551808706315,30,2.74390243902439,-45,-1.82926829268293,7,-0.426829268292683,1,-0.00434782608695652,-31,-0.134782608695652,143,-0.697560975609756,
16224694,6484.375,-2480,1.52053954629062,-1968,-1.20662170447578,-16384,10.0453709380748,18,3.10975609756098,-51,-1.09756097560976,-1,0.0609756097560976,-2,0.00869565217391304,-26,-0.11304347826087,143,-0.697560975609756,
16225334,6503.90625,-2448,1.50091968117719,-1984,-1.2164316370325,-16384,10.0453709380748,16,3.53658536585366,-58,-0.975609756097561,-15,0.914634146341463,0,0,-26,-0.11304347826087,142,-0.692682926829268,
16225974,6523.4375,-2336,1.4322501532802,-2096,-1.28510116492949,-16336,10.0159411404047,28,4.26829268292683,-70,-1.70731707317073,-27,1.64634146341463,0,0,-28,-0.121739130434783,142,-0.692682926829268,
16226614,6542.96875,-2432,1.49110974862048,-2064,-1.26548129981606,-16384,10.0453709380748,20,5.1219512195122,-84,-1.21951219512195,-42,2.5609756097561,2,-0.00869565217391304,-30,-0.130434782608696,144,-0.702439024390244,
16227254,6562.5,-2560,1.56958920907419,-2208,-1.35377069282649,-16256,9.96689147762109,-3,5.91463414634146,-97,0.182926829268293,-52,3.17073170731707,0,0,-28,-0.121739130434783,144,-0.702439024390244,
16227894,6582.03125,-2656,1.62844880441447,-2208,-1.35377069282649,-16272,9.9767014101778,-26,6.89024390243902,-113,1.58536585365854,-57,3.47560975609756,1,-0.00434782608695652,-28,-0.121739130434783,143,-0.697560975609756,
16228534,6601.5625,-2672,1.63825873697118,-2016,-1.23605150214592,-16208,9.93746167995095,-60,7.86585365853659,-129,3.65853658536585,-53,3.23170731707317,-1,0.00434782608695652,-25,-0.108695652173913,142,-0.692682926829268,
16229174,6621.09375,-2576,1.5793991416309,-1856,-1.13795217657879,-16048,9.83936235438381,-74,7.5609756097561,-124,4.51219512195122,-54,3.29268292682927,0,0,-30,-0.130434782608696,143,-0.697560975609756,
16229814,6640.625,-2448,1.50091968117719,-1808,-1.10852237890864,-16048,9.83936235438381,-36,6.82926829268293,-112,2.19512195121951,-49,2.98780487804878,0,0,-26,-0.11304347826087,142,-0.692682926829268,
16230454,6660.15625,-2448,1.50091968117719,-1696,-1.03985285101165,-16128,9.88841201716738,21,6.03658536585366,-99,-1.28048780487805,-40,2.4390243902439,1,-0.00434782608695652,-31,-0.134782608695652,143,-0.697560975609756,
16231094,6679.6875,-2576,1.5793991416309,-1712,-1.04966278356836,-16064,9.84917228694053,50,5.67073170731707,-93,-3.04878048780488,-27,1.64634146341463,1,-0.00434782608695652,-31,-0.134782608695652,143,-0.697560975609756,
16231734,6699.21875,-2640,1.61863887185776,-1632,-1.00061312078479,-15936,9.77069282648682,42,5.1219512195122,-84,-2.5609756097561,-20,1.21951219512195,0,0,-26,-0.11304347826087,144,-0.702439024390244,
16232374,6718.75,-2528,1.54996934396076,-1632,-1.00061312078479,-15840,9.71183323114654,32,4.63414634146342,-76,-1.95121951219512,-8,0.487804878048781,0,0,-26,-0.11304347826087,144,-0.702439024390244,
16233014,6738.28125,-2464,1.51072961373391,-1600,-0.980993255671367,-15808,9.69221336603311,27,3.78048780487805,-62,-1.64634146341463,-4,0.24390243902439,1,-0.00434782608695652,-29,-0.126086956521739,141,-0.68780487804878,
16233654,6757.8125,-2416,1.48129981606376,-1680,-1.03004291845494,-15840,9.71183323114654,23,3.04878048780488,-50,-1.40243902439024,2,-0.121951219512195,0,0,-30,-0.130434782608696,144,-0.702439024390244,
16234294,6777.34375,-2352,1.44206008583691,-1792,-1.09871244635193,-15936,9.77069282648682,57,2.80487804878049,-46,-3.47560975609756,15,-0.914634146341463,1,-0.00434782608695652,-28,-0.121739130434783,141,-0.68780487804878,
16234934,6796.875,-2496,1.53034947884733,-1744,-1.06928264868179,-15872,9.73145309625996,65,2.37804878048781,-39,-3.96341463414634,14,-0.853658536585366,-1,0.00434782608695652,-26,-0.11304347826087,142,-0.692682926829268,
16235574,6816.40625,-2544,1.55977927651747,-1712,-1.04966278356836,-15872,9.73145309625996,23,2.31707317073171,-38,-1.40243902439024,14,-0.853658536585366,2,-0.00869565217391304,-30,-0.130434782608696,143,-0.697560975609756,
16236214,6835.9375,-2416,1.48129981606376,-1792,-1.09871244635193,-15840,9.71183323114654,-12,2.13414634146341,-35,0.731707317073171,10,-0.609756097560976,0,0,-29,-0.126086956521739,143,-0.697560975609756,
16236854,6855.46875,-2272,1.39301042305334,-1760,-1.0790925812385,-15840,9.71183323114654,-7,1.64634146341463,-27,0.426829268292683,-3,0.182926829268293,2,-0.00869565217391304,-28,-0.121739130434783,142,-0.692682926829268,
16237494,6875,-2256,1.38320049049663,-1728,-1.05947271612508,-15856,9.72164316370325,17,1.58536585365854,-26,-1.03658536585366,-10,0.609756097560976,2,-0.00869565217391304,-30,-0.130434782608696,142,-0.692682926829268,
16238134,6894.53125,-2304,1.41263028816677,-1744,-1.06928264868179,-15936,9.77069282648682,35,1.21951219512195,-20,-2.13414634146341,-19,1.15853658536585,0,0,-30,-0.130434782608696,143,-0.697560975609756,
16238774,6914.0625,-2384,1.46167995095034,-1840,-1.12814224402207,-16000,9.80993255671367,24,1.28048780487805,-21,-1.46341463414634,-21,1.28048780487805,0,0,-27,-0.117391304347826,142,-0.692682926829268,
16239414,6933.59375,-2576,1.5793991416309,-1824,-1.11833231146536,-15984,9.80012262415696,17,1.28048780487805,-21,-1.03658536585366,-18,1.09756097560976,2,-0.00869565217391304,-30,-0.130434782608696,142,-0.692682926829268,
16240054,6953.125,-2592,1.58920907418761,-1856,-1.13795217657879,-16000,9.80993255671367,0,1.46341463414634,-24,0,-16,0.975609756097561,0,0,-31,-0.134782608695652,143,-0.697560975609756,
16240694,6972.65625,-2512,1.54015941140405,-1824,-1.11833231146536,-16128,9.88841201716738,-16,1.40243902439024,-23,0.975609756097561,-17,1.03658536585366,0,0,-26,-0.11304347826087,142,-0.692682926829268,
16241334,6992.1875,-2528,1.54996934396076,-1776,-1.08890251379522,-16192,9.92765174739424,-14,1.28048780487805,-21,0.853658536585366,-13,0.792682926829268,0,0,-25,-0.108695652173913,143,-0.697560975609756,
16241974,7011.71875,-2560,1.56958920907419,-1888,-1.15757204169221,-16112,9.87860208461067,-10,1.21951219512195,-20,0.609756097560976,-16,0.975609756097561,1,-0.00434782608695652,-30,-0.130434782608696,143,-0.697560975609756,
16242614,7031.25,-2512,1.54015941140405,-1936,-1.18700183936235,-16208,9.93746167995095,2,1.58536585365854,-26,-0.121951219512195,-15,0.914634146341463,-1,0.00434782608695652,-28,-0.121739130434783,142,-0.692682926829268,
16243254,7050.78125,-2656,1.62844880441447,-2000,-1.22624156958921,-16096,9.86879215205395,22,1.89024390243902,-31,-1.34146341463415,-13,0.792682926829268,1,-0.00434782608695652,-26,-0.11304347826087,142,-0.692682926829268,
16243894,7070.3125,-2624,1.60882893930104,-2032,-1.24586143470264,-16208,9.93746167995095,17,2.25609756097561,-37,-1.03658536585366,-13,0.792682926829268,3,-0.0130434782608696,-30,-0.130434782608696,143,-0.697560975609756,
16244534,7089.84375,-2656,1.62844880441447,-2016,-1.23605150214592,-16208,9.93746167995095,4,2.80487804878049,-46,-0.24390243902439,-15,0.914634146341463,2,-0.00869565217391304,-29,-0.126086956521739,143,-0.697560975609756,
16245174,7109.375,-2640,1.61863887185776,-1984,-1.2164316370325,-16144,9.89822194972409,-14,2.92682926829268,-48,0.853658536585366,-19,1.15853658536585,2,-0.00869565217391304,-26,-0.11304347826087,141,-0.68780487804878,
16245814,7128.90625,-2592,1.58920907418761,-2000,-1.22624156958921,-16096,9.86879215205395,-24,3.10975609756098,-51,1.46341463414634,-22,1.34146341463415,0,0,-25,-0.108695652173913,141,-0.68780487804878,
16246454,7148.4375,-2672,1.63825873697118,-1872,-1.1477621091355,-16096,9.86879215205395,-14,3.04878048780488,-50,0.853658536585366,-21,1.28048780487805,1,-0.00434782608695652,-31,-0.134782608695652,144,-0.702439024390244,
16247094,7167.96875,-2608,1.59901900674433,-1840,-1.12814224402207,-16144,9.89822194972409,-10,3.41463414634146,-56,0.609756097560976,-21,1.28048780487805,-1,0.00434782608695652,-28,-0.121739130434783,142,-0.692682926829268,
16247734,7187.5,-2640,1.61863887185776,-1856,-1.13795217657879,-16144,9.89822194972409,-2,3.17073170731707,-52,0.121951219512195,-14,0.853658536585366,2,-0.00869565217391304,-29,-0.126086956521739,142,-0.692682926829268,
16248374,7207.03125,-2672,1.63825873697118,-1888,-1.15757204169221,-16064,9.84917228694053,2,3.17073170731707,-52,-0.121951219512195,-8,0.487804878048781,1,-0.00434782608695652,-31,-0.134782608695652,141,-0.68780487804878,
16249014,7226.5625,-2640,1.61863887185776,-1792,-1.09871244635193,-16016,9.81974248927039,-8,3.23170731707317,-53,0.487804878048781,-9,0.548780487804878,1,-0.00434782608695652,-27,-0.117391304347826,143,-0.697560975609756,
16249654,7246.09375,-2528,1.54996934396076,-1904,-1.16738197424893,-16032,9.8295524218271,-21,3.10975609756098,-51,1.28048780487805,-4,0.24390243902439,0,0,-24,-0.104347826086957,143,-0.697560975609756,
16250294,7265.625,-2528,1.54996934396076,-1840,-1.12814224402207,-15968,9.79031269160024,-26,2.92682926829268,-48,1.58536585365854,-3,0.182926829268293,1,-0.00434782608695652,-30,-0.130434782608696,142,-0.692682926829268,
16250934,7285.15625,-2448,1.50091968117719,-1888,-1.15757204169221,-15968,9.79031269160024,-28,2.68292682926829,-44,1.70731707317073,-1,0.0609756097560976,-1,0.00434782608695652,-25,-0.108695652173913,143,-0.697560975609756,
16251574,7304.6875,-2432,1.49110974862048,-1840,-1.12814224402207,-16000,9.80993255671367,-18,2.68292682926829,-44,1.09756097560976,4,-0.24390243902439,1,-0.00434782608695652,-27,-0.117391304347826,143,-0.697560975609756,
16252214,7324.21875,-2480,1.52053954629062,-1792,-1.09871244635193,-15968,9.79031269160024,-20,2.31707317073171,-38,1.21951219512195,-2,0.121951219512195,1,-0.00434782608695652,-28,-0.121739130434783,142,-0.692682926829268,
16252854,7343.75,-2384,1.46167995095034,-1776,-1.08890251379522,-16000,9.80993255671367,-20,2.01219512195122,-33,1.21951219512195,-6,0.365853658536585,1,-0.00434782608695652,-30,-0.130434782608696,143,-0.697560975609756,
16253494,7363.28125,-2400,1.47148988350705,-1808,-1.10852237890864,-15984,9.80012262415696,-13,1.95121951219512,-32,0.792682926829268,-10,0.609756097560976,2,-0.00869565217391304,-31,-0.134782608695652,143,-0.697560975609756,
16254134,7382.8125,-2416,1.48129981606376,-1888,-1.15757204169221,-15872,9.73145309625996,-21,1.89024390243902,-31,1.28048780487805,-13,0.792682926829268,2,-0.00869565217391304,-27,-0.117391304347826,143,-0.697560975609756,
16254774,7402.34375,-2416,1.48129981606376,-1776,-1.08890251379522,-15856,9.72164316370325,-20,1.89024390243902,-31,1.21951219512195,-21,1.28048780487805,2,-0.00869565217391304,-27,-0.117391304347826,141,-0.68780487804878,
16255414,7421.875,-2384,1.46167995095034,-1856,-1.13795217657879,-16016,9.81974248927039,12,1.28048780487805,-21,-0.731707317073171,-19,1.15853658536585,-3,0.0130434782608696,-30,-0.130434782608696,143,-0.697560975609756,
16256054,7441.40625,-2480,1.52053954629062,-1872,-1.1477621091355,-16016,9.81974248927039,48,1.03658536585366,-17,-2.92682926829268,-11,0.670731707317073,-1,0.00434782608695652,-27,-0.117391304347826,141,-0.68780487804878,
16256694,7460.9375,-2672,1.63825873697118,-1920,-1.17719190680564,-16080,9.85898221949724,54,1.21951219512195,-20,-3.29268292682927,-2,0.121951219512195,-1,0.00434782608695652,-28,-0.121739130434783,142,-0.692682926829268,
16257334,7480.46875,-2672,1.63825873697118,-1952,-1.19681177191907,-16096,9.86879215205395,28,0.853658536585366,-14,-1.70731707317073,0,0,0,0,-24,-0.104347826086957,140,-0.682926829268293,
16257974,7500,-2592,1.58920907418761,-2016,-1.23605150214592,-16176,9.91784181483752,8,1.03658536585366,-17,-0.487804878048781,4,-0.24390243902439,1,-0.00434782608695652,-27,-0.117391304347826,142,-0.692682926829268,
16258614,7519.53125,-2624,1.60882893930104,-2096,-1.28510116492949,-16176,9.91784181483752,16,1.15853658536585,-19,-0.975609756097561,4,-0.24390243902439,0,0,-24,-0.104347826086957,143,-0.697560975609756,
16259254,7539.0625,-2592,1.58920907418761,-2064,-1.26548129981606,-16144,9.89822194972409,8,1.28048780487805,-21,-0.487804878048781,-1,0.0609756097560976,2,-0.00869565217391304,-31,-0.134782608695652,142,-0.692682926829268,
16259894,7558.59375,-2640,1.61863887185776,-2048,-1.25567136725935,-16112,9.87860208461067,12,1.76829268292683,-29,-0.731707317073171,-5,0.304878048780488,0,0,-27,-0.117391304347826,141,-0.68780487804878,
16260534,7578.125,-2672,1.63825873697118,-2064,-1.26548129981606,-16128,9.88841201716738,17,2.25609756097561,-37,-1.03658536585366,-5,0.304878048780488,0,0,-23,-0.1,141,-0.68780487804878,
16261174,7597.65625,-2560,1.56958920907419,-2032,-1.24586143470264,-16144,9.89822194972409,23,2.6219512195122,-43,-1.40243902439024,-8,0.487804878048781,1,-0.00434782608695652,-26,-0.11304347826087,141,-0.68780487804878,
16261814,7617.1875,-2688,1.6480686695279,-2000,-1.22624156958921,-16096,9.86879215205395,25,2.74390243902439,-45,-1.52439024390244,-4,0.24390243902439,2,-0.00869565217391304,-28,-0.121739130434783,142,-0.692682926829268,
16262454,7636.71875,-2800,1.71673819742489,-1920,-1.17719190680564,-16256,9.96689147762109,32,2.80487804878049,-46,-1.95121951219512,-6,0.365853658536585,1,-0.00434782608695652,-24,-0.104347826086957,141,-0.68780487804878,
16263094,7656.25,-2768,1.69711833231147,-1968,-1.20662170447578,-16176,9.91784181483752,31,2.86585365853659,-47,-1.89024390243902,-5,0.304878048780488,2,-0.00869565217391304,-26,-0.11304347826087,141,-0.68780487804878,
16263734,7675.78125,-2752,1.68730839975475,-1952,-1.19681177191907,-16064,9.84917228694053,22,2.86585365853659,-47,-1.34146341463415,-6,0.365853658536585,-1,0.00434782608695652,-23,-0.1,141,-0.68780487804878,
16264374,7695.3125,-2768,1.69711833231147,-1888,-1.15757204169221,-15984,9.80012262415696,26,2.98780487804878,-49,-1.58536585365854,-1,0.0609756097560976,1,-0.00434782608695652,-29,-0.126086956521739,141,-0.68780487804878,
16265014,7714.84375,-2768,1.69711833231147,-1888,-1.15757204169221,-15984,9.80012262415696,26,2.92682926829268,-48,-1.58536585365854,3,-0.182926829268293,0,0,-27,-0.117391304347826,142,-0.692682926829268,
16265654,7734.375,-2704,1.65787860208461,-1936,-1.18700183936235,-15920,9.7608828939301,20,2.68292682926829,-44,-1.21951219512195,3,-0.182926829268293,2,-0.00869565217391304,-29,-0.126086956521739,141,-0.68780487804878,
16266294,7753.90625,-2736,1.67749846719804,-1936,-1.18700183936235,-15920,9.7608828939301,17,2.6219512195122,-43,-1.03658536585366,9,-0.548780487804878,0,0,-28,-0.121739130434783,142,-0.692682926829268,
16266934,7773.4375,-2736,1.67749846719804,-2000,-1.22624156958921,-15840,9.71183323114654,22,2.5609756097561,-42,-1.34146341463415,10,-0.609756097560976,1,-0.00434782608695652,-27,-0.117391304347826,142,-0.692682926829268,
16267574,7792.96875,-2688,1.6480686695279,-1984,-1.2164316370325,-15824,9.70202329858982,27,2.13414634146341,-35,-1.64634146341463,17,-1.03658536585366,1,-0.00434782608695652,-24,-0.104347826086957,142,-0.692682926829268,
16268214,7812.5,-2736,1.67749846719804,-1936,-1.18700183936235,-15904,9.75107296137339,30,1.76829268292683,-29,-1.82926829268293,15,-0.914634146341463,3,-0.0130434782608696,-30,-0.130434782608696,141,-0.68780487804878,
16268854,7832.03125,-2656,1.62844880441447,-1920,-1.17719190680564,-15808,9.69221336603311,39,1.28048780487805,-21,-2.37804878048781,13,-0.792682926829268,1,-0.00434782608695652,-29,-0.126086956521739,141,-0.68780487804878,
16269494,7851.5625,-2768,1.69711833231147,-1984,-1.2164316370325,-15856,9.72164316370325,73,1.21951219512195,-20,-4.45121951219512,28,-1.70731707317073,2,-0.00869565217391304,-27,-0.117391304347826,141,-0.68780487804878,
16270134,7871.09375,-2896,1.77559779276517,-1968,-1.20662170447578,-15904,9.75107296137339,106,0.853658536585366,-14,-6.46341463414634,36,-2.19512195121951,3,-0.0130434782608696,-27,-0.117391304347826,141,-0.68780487804878,
16270774,7890.625,-3056,1.87369711833231,-2000,-1.22624156958921,-15936,9.77069282648682,112,0.365853658536585,-6,-6.82926829268293,53,-3.23170731707317,-1,0.00434782608695652,-25,-0.108695652173913,141,-0.68780487804878,
16271414,7910.15625,-3136,1.92274678111588,-2000,-1.22624156958921,-15968,9.79031269160024,114,-0.304878048780488,5,-6.95121951219512,71,-4.32926829268293,3,-0.0130434782608696,-29,-0.126086956521739,142,-0.692682926829268,
16272054,7929.6875,-3216,1.97179644389945,-2032,-1.24586143470264,-16000,9.80993255671367,102,-0.731707317073171,12,-6.21951219512195,82,-5,3,-0.0130434782608696,-27,-0.117391304347826,140,-0.682926829268293,
16272694,7949.21875,-3264,2.00122624156959,-2016,-1.23605150214592,-16096,9.86879215205395,44,-1.34146341463415,22,-2.68292682926829,81,-4.9390243902439,5,-0.0217391304347826,-27,-0.117391304347826,139,-0.678048780487805,
16273334,7968.75,-3248,1.99141630901288,-2096,-1.28510116492949,-16064,9.84917228694053,-10,-1.09756097560976,18,0.609756097560976,73,-4.45121951219512,2,-0.00869565217391304,-25,-0.108695652173913,138,-0.673170731707317,
16273974,7988.28125,-3072,1.88350705088903,-2208,-1.35377069282649,-16096,9.86879215205395,-21,-0.609756097560976,10,1.28048780487805,71,-4.32926829268293,1,-0.00434782608695652,-24,-0.104347826086957,139,-0.678048780487805,
16274614,8007.8125,-3008,1.84426732066217,-2176,-1.33415082771306,-16064,9.84917228694053,-15,0.24390243902439,-4,0.914634146341463,72,-4.39024390243902,2,-0.00869565217391304,-28,-0.121739130434783,140,-0.682926829268293,
16275254,8027.34375,-2928,1.7952176578786,-2176,-1.33415082771306,-15936,9.77069282648682,-9,0.426829268292683,-7,0.548780487804878,67,-4.08536585365854,3,-0.0130434782608696,-29,-0.126086956521739,139,-0.678048780487805,
16275894,8046.875,-2864,1.75597792765175,-2192,-1.34396076026977,-16064,9.84917228694053,5,0.426829268292683,-7,-0.304878048780488,60,-3.65853658536585,2,-0.00869565217391304,-30,-0.130434782608696,141,-0.68780487804878,
16276534,8066.40625,-2928,1.7952176578786,-2288,-1.40282035561006,-16080,9.85898221949724,-1,0.426829268292683,-7,0.0609756097560976,52,-3.17073170731707,2,-0.00869565217391304,-26,-0.11304347826087,141,-0.68780487804878,
16277174,8085.9375,-2816,1.72654812998161,-2256,-1.38320049049663,-16096,9.86879215205395,-22,1.40243902439024,-23,1.34146341463415,40,-2.4390243902439,0,0,-30,-0.130434782608696,140,-0.682926829268293,
16277814,8105.46875,-2704,1.65787860208461,-2176,-1.33415082771306,-16096,9.86879215205395,-27,1.52439024390244,-25,1.64634146341463,32,-1.95121951219512,4,-0.0173913043478261,-30,-0.130434782608696,140,-0.682926829268293,
16278454,8125,-2672,1.63825873697118,-2176,-1.33415082771306,-16160,9.90803188228081,-7,1.95121951219512,-32,0.426829268292683,24,-1.46341463414634,3,-0.0130434782608696,-27,-0.117391304347826,141,-0.68780487804878,
16279094,8144.53125,-2736,1.67749846719804,-2208,-1.35377069282649,-16112,9.87860208461067,4,2.13414634146341,-35,-0.24390243902439,16,-0.975609756097561,3,-0.0130434782608696,-26,-0.11304347826087,141,-0.68780487804878,
16279734,8164.0625,-2784,1.70692826486818,-2128,-1.30472103004292,-15936,9.77069282648682,10,2.19512195121951,-36,-0.609756097560976,13,-0.792682926829268,3,-0.0130434782608696,-28,-0.121739130434783,140,-0.682926829268293,
16280374,8183.59375,-2784,1.70692826486818,-2096,-1.28510116492949,-16016,9.81974248927039,-14,2.6219512195122,-43,0.853658536585366,6,-0.365853658536585,3,-0.0130434782608696,-26,-0.11304347826087,139,-0.678048780487805,
16281014,8203.125,-2640,1.61863887185776,-2160,-1.32434089515635,-16032,9.8295524218271,-26,2.4390243902439,-40,1.58536585365854,-3,0.182926829268293,3,-0.0130434782608696,-26,-0.11304347826087,140,-0.682926829268293,
16281654,8222.65625,-2672,1.63825873697118,-2160,-1.32434089515635,-16016,9.81974248927039,1,2.5,-41,-0.0609756097560976,0,0,3,-0.0130434782608696,-30,-0.130434782608696,141,-0.68780487804878,
16282294,8242.1875,-2800,1.71673819742489,-2160,-1.32434089515635,-16000,9.80993255671367,17,2.6219512195122,-43,-1.03658536585366,-2,0.121951219512195,2,-0.00869565217391304,-30,-0.130434782608696,141,-0.68780487804878,
16282934,8261.71875,-2704,1.65787860208461,-2240,-1.37339055793991,-16032,9.8295524218271,-1,2.92682926829268,-48,0.0609756097560976,-15,0.914634146341463,4,-0.0173913043478261,-26,-0.11304347826087,140,-0.682926829268293,
16283574,8281.25,-2720,1.66768853464132,-2160,-1.32434089515635,-15952,9.78050275904353,-6,2.86585365853659,-47,0.365853658536585,-13,0.792682926829268,-1,0.00434782608695652,-22,-0.0956521739130435,140,-0.682926829268293,
16284214,8300.78125,-2816,1.72654812998161,-2144,-1.31453096259963,-15936,9.77069282648682,4,3.23170731707317,-53,-0.24390243902439,-21,1.28048780487805,1,-0.00434782608695652,-28,-0.121739130434783,141,-0.68780487804878,
16284854,8320.3125,-2896,1.77559779276517,-2176,-1.33415082771306,-15920,9.7608828939301,4,3.17073170731707,-52,-0.24390243902439,-22,1.34146341463415,2,-0.00869565217391304,-28,-0.121739130434783,139,-0.678048780487805,
16285494,8339.84375,-2816,1.72654812998161,-2192,-1.34396076026977,-15984,9.80012262415696,-22,3.35365853658537,-55,1.34146341463415,-27,1.64634146341463,2,-0.00869565217391304,-28,-0.121739130434783,139,-0.678048780487805,
16286134,8359.375,-2800,1.71673819742489,-2128,-1.30472103004292,-15968,9.79031269160024,-15,3.10975609756098,-51,0.914634146341463,-25,1.52439024390244,1,-0.00434782608695652,-26,-0.11304347826087,140,-0.682926829268293,
16286774,8378.90625,-2752,1.68730839975475,-2160,-1.32434089515635,-15872,9.73145309625996,6,2.74390243902439,-45,-0.365853658536585,-31,1.89024390243902,1,-0.00434782608695652,-27,-0.117391304347826,139,-0.678048780487805,
16287414,8398.4375,-2880,1.76578786020846,-2208,-1.35377069282649,-15824,9.70202329858982,9,3.04878048780488,-50,-0.548780487804878,-34,2.07317073170732,1,-0.00434782608695652,-27,-0.117391304347826,142,-0.692682926829268,
16288054,8417.96875,-2832,1.73635806253832,-2096,-1.28510116492949,-15856,9.72164316370325,-1,3.10975609756098,-51,0.0609756097560976,-42,2.5609756097561,4,-0.0173913043478261,-30,-0.130434782608696,140,-0.682926829268293,
16288694,8437.5,-2800,1.71673819742489,-2144,-1.31453096259963,-15872,9.73145309625996,11,2.86585365853659,-47,-0.670731707317073,-39,2.37804878048781,3,-0.0130434782608696,-30,-0.130434782608696,141,-0.68780487804878,
16289334,8457.03125,-2912,1.78540772532189,-2160,-1.32434089515635,-15920,9.7608828939301,25,2.68292682926829,-44,-1.52439024390244,-37,2.25609756097561,2,-0.00869565217391304,-26,-0.11304347826087,140,-0.682926829268293,
16289974,8476.5625,-2976,1.82464745554874,-2208,-1.35377069282649,-15856,9.72164316370325,13,2.5,-41,-0.792682926829268,-33,2.01219512195122,3,-0.0130434782608696,-27,-0.117391304347826,138,-0.673170731707317,
16290614,8496.09375,-2992,1.83445738810546,-2160,-1.32434089515635,-15840,9.71183323114654,-9,2.4390243902439,-40,0.548780487804878,-25,1.52439024390244,2,-0.00869565217391304,-27,-0.117391304347826,140,-0.682926829268293,
16291254,8515.625,-2896,1.77559779276517,-2144,-1.31453096259963,-15744,9.65297363580625,-9,2.19512195121951,-36,0.548780487804878,-22,1.34146341463415,3,-0.0130434782608696,-28,-0.121739130434783,142,-0.692682926829268,
16291894,8535.15625,-2944,1.80502759043532,-2160,-1.32434089515635,-15776,9.67259350091968,-5,1.95121951219512,-32,0.304878048780488,-26,1.58536585365854,3,-0.0130434782608696,-26,-0.11304347826087,140,-0.682926829268293,
16292534,8554.6875,-2880,1.76578786020846,-2176,-1.33415082771306,-15776,9.67259350091968,1,1.52439024390244,-25,-0.0609756097560976,-27,1.64634146341463,4,-0.0173913043478261,-27,-0.117391304347826,139,-0.678048780487805,
16293174,8574.21875,-2992,1.83445738810546,-2208,-1.35377069282649,-15856,9.72164316370325,16,1.34146341463415,-22,-0.975609756097561,-25,1.52439024390244,1,-0.00434782608695652,-28,-0.121739130434783,141,-0.68780487804878,
16293814,8593.75,-2960,1.81483752299203,-2128,-1.30472103004292,-15872,9.73145309625996,22,1.46341463414634,-24,-1.34146341463415,-22,1.34146341463415,1,-0.00434782608695652,-26,-0.11304347826087,141,-0.68780487804878,
16294454,8613.28125,-3088,1.89331698344574,-2208,-1.35377069282649,-15904,9.75107296137339,28,1.28048780487805,-21,-1.70731707317073,-24,1.46341463414634,1,-0.00434782608695652,-27,-0.117391304347826,141,-0.68780487804878,
16295094,8632.8125,-3040,1.8638871857756,-2176,-1.33415082771306,-15936,9.77069282648682,1,1.46341463414634,-24,-0.0609756097560976,-21,1.28048780487805,3,-0.0130434782608696,-30,-0.130434782608696,139,-0.678048780487805,
16295734,8652.34375,-2992,1.83445738810546,-2224,-1.3635806253832,-16032,9.8295524218271,-3,1.28048780487805,-21,0.182926829268293,-16,0.975609756097561,1,-0.00434782608695652,-26,-0.11304347826087,140,-0.682926829268293,
16296374,8671.875,-2944,1.80502759043532,-2240,-1.37339055793991,-16016,9.81974248927039,12,1.28048780487805,-21,-0.731707317073171,-11,0.670731707317073,2,-0.00869565217391304,-26,-0.11304347826087,140,-0.682926829268293,
16297014,8691.40625,-3120,1.91293684855917,-2304,-1.41263028816677,-15984,9.80012262415696,4,1.28048780487805,-21,-0.24390243902439,-14,0.853658536585366,0,0,-21,-0.091304347826087,137,-0.668292682926829,
16297654,8710.9375,-2944,1.80502759043532,-2336,-1.4322501532802,-15968,9.79031269160024,-20,1.28048780487805,-21,1.21951219512195,-14,0.853658536585366,1,-0.00434782608695652,-22,-0.0956521739130435,138,-0.673170731707317,
16298294,8730.46875,-2848,1.74616799509503,-2400,-1.47148988350705,-16016,9.81974248927039,3,1.21951219512195,-20,-0.182926829268293,-13,0.792682926829268,2,-0.00869565217391304,-27,-0.117391304347826,139,-0.678048780487805,
16298934,8750,-2976,1.82464745554874,-2448,-1.50091968117719,-15984,9.80012262415696,13,1.64634146341463,-27,-0.792682926829268,-15,0.914634146341463,3,-0.0130434782608696,-24,-0.104347826086957,139,-0.678048780487805,
16299574,8769.53125,-3072,1.88350705088903,-2368,-1.45187001839362,-15984,9.80012262415696,1,2.07317073170732,-34,-0.0609756097560976,-22,1.34146341463415,4,-0.0173913043478261,-28,-0.121739130434783,141,-0.68780487804878,
16300214,8789.0625,-2912,1.78540772532189,-2384,-1.46167995095034,-15968,9.79031269160024,-14,2.19512195121951,-36,0.853658536585366,-29,1.76829268292683,3,-0.0130434782608696,-28,-0.121739130434783,140,-0.682926829268293,
16300854,8808.59375,-2912,1.78540772532189,-2432,-1.49110974862048,-15936,9.77069282648682,9,2.31707317073171,-38,-0.548780487804878,-30,1.82926829268293,3,-0.0130434782608696,-25,-0.108695652173913,140,-0.682926829268293,
16301494,8828.125,-3072,1.88350705088903,-2384,-1.46167995095034,-15952,9.78050275904353,17,2.74390243902439,-45,-1.03658536585366,-35,2.13414634146341,3,-0.0130434782608696,-26,-0.11304347826087,139,-0.678048780487805,
16302134,8847.65625,-3120,1.91293684855917,-2368,-1.45187001839362,-15952,9.78050275904353,3,2.4390243902439,-40,-0.182926829268293,-34,2.07317073170732,1,-0.00434782608695652,-28,-0.121739130434783,141,-0.68780487804878,
16302774,8867.1875,-3104,1.90312691600245,-2320,-1.42244022072348,-16000,9.80993255671367,5,2.86585365853659,-47,-0.304878048780488,-26,1.58536585365854,2,-0.00869565217391304,-28,-0.121739130434783,140,-0.682926829268293,
16303414,8886.71875,-3264,2.00122624156959,-2368,-1.45187001839362,-16016,9.81974248927039,7,2.74390243902439,-45,-0.426829268292683,-14,0.853658536585366,4,-0.0173913043478261,-23,-0.1,138,-0.673170731707317,
16304054,8906.25,-3120,1.91293684855917,-2432,-1.49110974862048,-15920,9.7608828939301,-6,2.92682926829268,-48,0.365853658536585,-9,0.548780487804878,0,0,-27,-0.117391304347826,140,-0.682926829268293,
16304694,8925.78125,-3056,1.87369711833231,-2448,-1.50091968117719,-15936,9.77069282648682,-7,2.68292682926829,-44,0.426829268292683,-3,0.182926829268293,3,-0.0130434782608696,-23,-0.1,140,-0.682926829268293,
16305334,8945.3125,-3040,1.8638871857756,-2464,-1.51072961373391,-15920,9.7608828939301,-3,2.5609756097561,-42,0.182926829268293,-3,0.182926829268293,3,-0.0130434782608696,-24,-0.104347826086957,141,-0.68780487804878,
16305974,8964.84375,-3072,1.88350705088903,-2432,-1.49110974862048,-15952,9.78050275904353,5,2.6219512195122,-43,-0.304878048780488,-7,0.426829268292683,3,-0.0130434782608696,-25,-0.108695652173913,139,-0.678048780487805,
16306614,8984.375,-3040,1.8638871857756,-2336,-1.4322501532802,-15968,9.79031269160024,-1,2.98780487804878,-49,0.0609756097560976,-10,0.609756097560976,4,-0.0173913043478261,-27,-0.117391304347826,139,-0.678048780487805,
16307254,9003.90625,-3008,1.84426732066217,-2352,-1.44206008583691,-15904,9.75107296137339,-1,3.23170731707317,-53,0.0609756097560976,-16,0.975609756097561,2,-0.00869565217391304,-25,-0.108695652173913,139,-0.678048780487805,
16307894,9023.4375,-3040,1.8638871857756,-2400,-1.47148988350705,-15872,9.73145309625996,9,3.17073170731707,-52,-0.548780487804878,-16,0.975609756097561,3,-0.0130434782608696,-27,-0.117391304347826,138,-0.673170731707317,
16308534,9042.96875,-3168,1.94236664622931,-2384,-1.46167995095034,-15792,9.6824034334764,4,3.29268292682927,-54,-0.24390243902439,-15,0.914634146341463,4,-0.0173913043478261,-29,-0.126086956521739,140,-0.682926829268293,
16309174,9062.5,-3248,1.99141630901288,-2384,-1.46167995095034,-15824,9.70202329858982,-7,3.47560975609756,-57,0.426829268292683,-18,1.09756097560976,4,-0.0173913043478261,-29,-0.126086956521739,141,-0.68780487804878,
16309814,9082.03125,-3120,1.91293684855917,-2432,-1.49110974862048,-15808,9.69221336603311,-16,2.92682926829268,-48,0.975609756097561,-12,0.731707317073171,4,-0.0173913043478261,-25,-0.108695652173913,139,-0.678048780487805,
16310454,9101.5625,-3056,1.87369711833231,-2416,-1.48129981606376,-15680,9.6137339055794,-5,2.92682926829268,-48,0.304878048780488,-4,0.24390243902439,4,-0.0173913043478261,-26,-0.11304347826087,140,-0.682926829268293,
16311094,9121.09375,-3168,1.94236664622931,-2352,-1.44206008583691,-15584,9.55487431023912,-10,2.4390243902439,-40,0.609756097560976,-1,0.0609756097560976,1,-0.00434782608695652,-25,-0.108695652173913,139,-0.678048780487805,
16311734,9140.625,-2944,1.80502759043532,-2240,-1.37339055793991,-15600,9.56468424279583,-29,2.13414634146341,-35,1.76829268292683,-4,0.24390243902439,0,0,-22,-0.0956521739130435,138,-0.673170731707317,
16312374,9160.15625,-2912,1.78540772532189,-2304,-1.41263028816677,-15696,9.62354383813611,5,1.46341463414634,-24,-0.304878048780488,2,-0.121951219512195,3,-0.0130434782608696,-27,-0.117391304347826,139,-0.678048780487805,
16313014,9179.6875,-3008,1.84426732066217,-2320,-1.42244022072348,-15680,9.6137339055794,42,0.731707317073171,-12,-2.5609756097561,6,-0.365853658536585,4,-0.0173913043478261,-29,-0.126086956521739,139,-0.678048780487805,
16313654,9199.21875,-3104,1.90312691600245,-2336,-1.4322501532802,-15728,9.64316370324954,55,0,0,-3.35365853658537,10,-0.609756097560976,2,-0.00869565217391304,-24,-0.104347826086957,140,-0.682926829268293,
16314294,9218.75,-3248,1.99141630901288,-2336,-1.4322501532802,-15792,9.6824034334764,53,0.121951219512195,-2,-3.23170731707317,11,-0.670731707317073,3,-0.0130434782608696,-24,-0.104347826086957,140,-0.682926829268293,
16314934,9238.28125,-3232,1.98160637645616,-2384,-1.46167995095034,-15904,9.75107296137339,25,0.731707317073171,-12,-1.52439024390244,12,-0.731707317073171,1,-0.00434782608695652,-25,-0.108695652173913,140,-0.682926829268293,
16315574,9257.8125,-3232,1.98160637645616,-2384,-1.46167995095034,-15952,9.78050275904353,-20,1.03658536585366,-17,1.21951219512195,9,-0.548780487804878,2,-0.00869565217391304,-29,-0.126086956521739,141,-0.68780487804878,
16316214,9277.34375,-3008,1.84426732066217,-2336,-1.4322501532802,-16000,9.80993255671367,-52,1.34146341463415,-22,3.17073170731707,0,0,2,-0.00869565217391304,-26,-0.11304347826087,139,-0.678048780487805,
16316854,9296.875,-2976,1.82464745554874,-2464,-1.51072961373391,-16048,9.83936235438381,-23,1.52439024390244,-25,1.40243902439024,1,-0.0609756097560976,1,-0.00434782608695652,-21,-0.091304347826087,137,-0.668292682926829,
16317494,9316.40625,-3136,1.92274678111588,-2512,-1.54015941140405,-16000,9.80993255671367,-7,1.64634146341463,-27,0.426829268292683,3,-0.182926829268293,2,-0.00869565217391304,-22,-0.0956521739130435,139,-0.678048780487805,
16318134,9335.9375,-3072,1.88350705088903,-2464,-1.51072961373391,-15968,9.79031269160024,-42,1.95121951219512,-32,2.5609756097561,-2,0.121951219512195,0,0,-22,-0.0956521739130435,138,-0.673170731707317,
16318774,9355.46875,-2896,1.77559779276517,-2480,-1.52053954629062,-15968,9.79031269160024,-48,1.70731707317073,-28,2.92682926829268,-3,0.182926829268293,1,-0.00434782608695652,-24,-0.104347826086957,139,-0.678048780487805,
16319414,9375,-2944,1.80502759043532,-2448,-1.50091968117719,-15984,9.80012262415696,-10,1.58536585365854,-26,0.609756097560976,5,-0.304878048780488,2,-0.00869565217391304,-28,-0.121739130434783,139,-0.678048780487805,
16320054,9394.53125,-3040,1.8638871857756,-2496,-1.53034947884733,-16048,9.83936235438381,20,1.64634146341463,-27,-1.21951219512195,7,-0.426829268292683,2,-0.00869565217391304,-26,-0.11304347826087,141,-0.68780487804878,
16320694,9414.0625,-3072,1.88350705088903,-2480,-1.52053954629062,-16000,9.80993255671367,0,2.01219512195122,-33,0,4,-0.24390243902439,3,-0.0130434782608696,-27,-0.117391304347826,139,-0.678048780487805,
16321334,9433.59375,-3024,1.85407725321888,-2480,-1.52053954629062,-16032,9.8295524218271,-23,2.31707317073171,-38,1.40243902439024,2,-0.121951219512195,4,-0.0173913043478261,-27,-0.117391304347826,138,-0.673170731707317,
16321974,9453.125,-2992,1.83445738810546,-2400,-1.47148988350705,-15936,9.77069282648682,-11,2.5609756097561,-42,0.670731707317073,4,-0.24390243902439,2,-0.00869565217391304,-28,-0.121739130434783,140,-0.682926829268293,
16322614,9472.65625,-2976,1.82464745554874,-2464,-1.51072961373391,-15968,9.79031269160024,-9,2.5,-41,0.548780487804878,1,-0.0609756097560976,3,-0.0130434782608696,-25,-0.108695652173913,139,-0.678048780487805,
16323254,9492.1875,-2912,1.78540772532189,-2416,-1.48129981606376,-15888,9.74126302881668,-10,2.37804878048781,-39,0.609756097560976,2,-0.121951219512195,0,0,-24,-0.104347826086957,138,-0.673170731707317,
16323894,9511.71875,-2752,1.68730839975475,-2368,-1.45187001839362,-15664,9.60392397302268,-5,2.5609756097561,-42,0.304878048780488,3,-0.182926829268293,3,-0.0130434782608696,-24,-0.104347826086957,137,-0.668292682926829,
16324534,9531.25,-2496,1.53034947884733,-2368,-1.45187001839362,-15648,9.59411404046597,28,1.82926829268293,-30,-1.70731707317073,2,-0.121951219512195,2,-0.00869565217391304,-25,-0.108695652173913,140,-0.682926829268293,
16325174,9550.78125,-2480,1.52053954629062,-2464,-1.51072961373391,-15616,9.57449417535254,110,1.15853658536585,-19,-6.70731707317073,-8,0.487804878048781,2,-0.00869565217391304,-24,-0.104347826086957,139,-0.678048780487805,
16325814,9570.3125,-2880,1.76578786020846,-2544,-1.55977927651747,-15696,9.62354383813611,194,0.548780487804878,-9,-11.8292682926829,-17,1.03658536585366,4,-0.0173913043478261,-26,-0.11304347826087,140,-0.682926829268293,
16326454,9589.84375,-3536,2.16799509503372,-2688,-1.6480686695279,-15776,9.67259350091968,166,1.03658536585366,-17,-10.1219512195122,-28,1.70731707317073,5,-0.0217391304347826,-27,-0.117391304347826,140,-0.682926829268293,
16327094,9609.375,-3568,2.18761496014715,-2608,-1.59901900674433,-15824,9.70202329858982,12,1.89024390243902,-31,-0.731707317073171,-32,1.95121951219512,4,-0.0173913043478261,-25,-0.108695652173913,138,-0.673170731707317,
16327734,9628.90625,-3200,1.96198651134273,-2528,-1.54996934396076,-15808,9.69221336603311,-117,2.37804878048781,-39,7.13414634146342,-31,1.89024390243902,4,-0.0173913043478261,-23,-0.1,138,-0.673170731707317,
16328374,9648.4375,-2960,1.81483752299203,-2480,-1.52053954629062,-15856,9.72164316370325,-116,2.31707317073171,-38,7.07317073170732,-22,1.34146341463415,3,-0.0130434782608696,-26,-0.11304347826087,140,-0.682926829268293,
16329014,9667.96875,-2928,1.7952176578786,-2512,-1.54015941140405,-15840,9.71183323114654,-52,1.70731707317073,-28,3.17073170731707,-12,0.731707317073171,0,0,-25,-0.108695652173913,139,-0.678048780487805,
16329654,9687.5,-3152,1.93255671367259,-2560,-1.56958920907419,-15936,9.77069282648682,7,1.34146341463415,-22,-0.426829268292683,-4,0.24390243902439,3,-0.0130434782608696,-25,-0.108695652173913,139,-0.678048780487805,
16330294,9707.03125,-3264,2.00122624156959,-2640,-1.61863887185776,-16064,9.84917228694053,-1,1.40243902439024,-23,0.0609756097560976,-2,0.121951219512195,4,-0.0173913043478261,-26,-0.11304347826087,138,-0.673170731707317,
16330934,9726.5625,-3232,1.98160637645616,-2704,-1.65787860208461,-16096,9.86879215205395,-36,1.82926829268293,-30,2.19512195121951,-6,0.365853658536585,3,-0.0130434782608696,-27,-0.117391304347826,139,-0.678048780487805,
16331574,9746.09375,-3200,1.96198651134273,-2672,-1.63825873697118,-16096,9.86879215205395,-60,2.25609756097561,-37,3.65853658536585,-2,0.121951219512195,3,-0.0130434782608696,-24,-0.104347826086957,139,-0.678048780487805,
16332214,9765.625,-3024,1.85407725321888,-2656,-1.62844880441447,-16112,9.87860208461067,-69,2.86585365853659,-47,4.20731707317073,-9,0.548780487804878,2,-0.00869565217391304,-28,-0.121739130434783,139,-0.678048780487805,
16332854,9785.15625,-2928,1.7952176578786,-2640,-1.61863887185776,-16080,9.85898221949724,-49,2.92682926829268,-48,2.98780487804878,-10,0.609756097560976,3,-0.0130434782608696,-28,-0.121739130434783,140,-0.682926829268293,
16333494,9804.6875,-2976,1.82464745554874,-2672,-1.63825873697118,-15984,9.80012262415696,-13,2.98780487804878,-49,0.792682926829268,-7,0.426829268292683,3,-0.0130434782608696,-21,-0.091304347826087,141,-0.68780487804878,
16334134,9824.21875,-3088,1.89331698344574,-2704,-1.65787860208461,-15840,9.71183323114654,4,3.10975609756098,-51,-0.24390243902439,-6,0.365853658536585,3,-0.0130434782608696,-24,-0.104347826086957,140,-0.682926829268293,
16334774,9843.75,-3168,1.94236664622931,-2560,-1.56958920907419,-15920,9.7608828939301,-22,3.35365853658537,-55,1.34146341463415,-9,0.548780487804878,3,-0.0130434782608696,-23,-0.1,140,-0.682926829268293,
16335414,9863.28125,-3024,1.85407725321888,-2720,-1.66768853464132,-16000,9.80993255671367,-35,3.35365853658537,-55,2.13414634146341,-8,0.487804878048781,4,-0.0173913043478261,-28,-0.121739130434783,141,-0.68780487804878,
16336054,9882.8125,-2976,1.82464745554874,-2736,-1.67749846719804,-15952,9.78050275904353,-4,3.23170731707317,-53,0.24390243902439,-3,0.182926829268293,3,-0.0130434782608696,-25,-0.108695652173913,138,-0.673170731707317,
16336694,9902.34375,-3088,1.89331698344574,-2704,-1.65787860208461,-15856,9.72164316370325,-7,3.41463414634146,-56,0.426829268292683,-3,0.182926829268293,4,-0.0173913043478261,-24,-0.104347826086957,139,-0.678048780487805,
16337334,9921.875,-3008,1.84426732066217,-2672,-1.63825873697118,-15872,9.73145309625996,-35,3.78048780487805,-62,2.13414634146341,-7,0.426829268292683,2,-0.00869565217391304,-26,-0.11304347826087,139,-0.678048780487805,
16337974,9941.40625,-2848,1.74616799509503,-2736,-1.67749846719804,-15824,9.70202329858982,-54,3.96341463414634,-65,3.29268292682927,-11,0.670731707317073,0,0,-27,-0.117391304347826,140,-0.682926829268293,
16338614,9960.9375,-2784,1.70692826486818,-2672,-1.63825873697118,-15808,9.69221336603311,-33,3.84146341463415,-63,2.01219512195122,-13,0.792682926829268,3,-0.0130434782608696,-25,-0.108695652173913,139,-0.678048780487805,
16339254,9980.46875,-2864,1.75597792765175,-2608,-1.59901900674433,-15712,9.63335377069283,-14,3.84146341463415,-63,0.853658536585366,-13,0.792682926829268,3,-0.0130434782608696,-26,-0.11304347826087,139,-0.678048780487805,
16339894,10000,-2848,1.74616799509503,-2576,-1.5793991416309,-15776,9.67259350091968,-20,3.96341463414634,-65,1.21951219512195,-17,1.03658536585366,2,-0.00869565217391304,-28,-0.121739130434783,140,-0.682926829268293,
16340534,10019.53125,-2800,1.71673819742489,-2544,-1.55977927651747,-15760,9.66278356836297,-21,3.41463414634146,-56,1.28048780487805,-17,1.03658536585366,3,-0.0130434782608696,-26,-0.11304347826087,140,-0.682926829268293,
16341174,10039.0625,-2768,1.69711833231147,-2544,-1.55977927651747,-15728,9.64316370324954,-11,3.53658536585366,-58,0.670731707317073,-14,0.853658536585366,3,-0.0130434782608696,-24,-0.104347826086957,138,-0.673170731707317,
16341814,10058.59375,-2832,1.73635806253832,-2544,-1.55977927651747,-15712,9.63335377069283,0,3.23170731707317,-53,0,-11,0.670731707317073,1,-0.00434782608695652,-26,-0.11304347826087,140,-0.682926829268293,
16342454,10078.125,-2848,1.74616799509503,-2592,-1.58920907418761,-15728,9.64316370324954,5,2.5609756097561,-42,-0.304878048780488,-15,0.914634146341463,2,-0.00869565217391304,-21,-0.091304347826087,139,-0.678048780487805,
16343094,10097.65625,3424,-2.09932556713673,11904,7.29858982219497,-2768,1.69711833231147,13,2.31707317073171,-38,-0.792682926829268,-18,1.09756097560976,2,-0.00869565217391304,-22,-0.0956521739130435,139,-0.678048780487805,
16343734,10117.1875,96,-0.058859595340282,3264,2.00122624156959,-11520,7.06315144083384,1078,137.19512195122,-2250,-65.7317073170732,-1243,75.7926829268293,4,-0.0173913043478261,-23,-0.1,137,-0.668292682926829,
16344374,10136.71875,-8144,4.99325567136726,816,0.500306560392397,-15152,9.29000613120785,1465,-3.71951219512195,61,-89.3292682926829,136,-8.29268292682927,6,-0.0260869565217391,-22,-0.0956521739130435,136,-0.663414634146342,
16345014,10156.25,-5648,3.46290619251993,-1968,-1.20662170447578,-16000,9.80993255671367,-42,5,-82,2.5609756097561,106,-6.46341463414634,3,-0.0130434782608696,-21,-0.091304347826087,135,-0.658536585365854,
16345654,10175.78125,-5136,3.14898835070509,-3168,-1.94236664622931,-16000,9.80993255671367,-815,6.89024390243902,-113,49.6951219512195,32,-1.95121951219512,2,-0.00869565217391304,-22,-0.0956521739130435,137,-0.668292682926829,
16346294,10195.3125,-3296,2.02084610668302,-2096,-1.28510116492949,-16640,10.2023298589822,-697,-8.53658536585366,140,42.5,8,-0.487804878048781,1,-0.00434782608695652,-21,-0.091304347826087,135,-0.658536585365854,
16346934,10214.84375,-2832,1.73635806253832,-3376,-2.06989576946658,-17504,10.7320662170448,-448,-7.01219512195122,115,27.3170731707317,82,-5,1,-0.00434782608695652,-24,-0.104347826086957,141,-0.68780487804878,
16347574,10234.375,-1840,1.12814224402207,-4992,-3.06069895769467,-17312,10.6143470263642,-197,1.89024390243902,-31,12.0121951219512,61,-3.71951219512195,-1,0.00434782608695652,-23,-0.1,139,-0.678048780487805,
16348214,10253.90625,-1760,1.0790925812385,-2976,-1.82464745554874,-16928,10.3789086450031,162,1.21951219512195,-20,-9.87804878048781,75,-4.57317073170732,2,-0.00869565217391304,-26,-0.11304347826087,140,-0.682926829268293,
16348854,10273.4375,-2880,1.76578786020846,-3152,-1.93255671367259,-16864,10.3396689147762,148,2.92682926829268,-48,-9.02439024390244,64,-3.90243902439024,1,-0.00434782608695652,-27,-0.117391304347826,140,-0.682926829268293,
16349494,10292.96875,-3296,2.02084610668302,-3120,-1.91293684855917,-16800,10.3004291845494,-42,4.81707317073171,-79,2.5609756097561,28,-1.70731707317073,1,-0.00434782608695652,-27,-0.117391304347826,140,-0.682926829268293,
16350134,10312.5,-2752,1.68730839975475,-2928,-1.7952176578786,-16560,10.1532801961987,-99,5.91463414634146,-97,6.03658536585366,7,-0.426829268292683,3,-0.0130434782608696,-27,-0.117391304347826,141,-0.68780487804878,
16350774,10332.03125,-2288,1.40282035561006,-2976,-1.82464745554874,-16400,10.0551808706315,13,6.89024390243902,-113,-0.792682926829268,12,-0.731707317073171,3,-0.0130434782608696,-24,-0.104347826086957,139,-0.678048780487805,
16351414,10351.5625,-2560,1.56958920907419,-2848,-1.74616799509503,-16144,9.89822194972409,70,7.4390243902439,-122,-4.26829268292683,6,-0.365853658536585,2,-0.00869565217391304,-22,-0.0956521739130435,140,-0.682926829268293,
16352054,10371.09375,-2736,1.67749846719804,-2832,-1.73635806253832,-16032,9.8295524218271,33,7.01219512195122,-115,-2.01219512195122,-2,0.121951219512195,1,-0.00434782608695652,-22,-0.0956521739130435,141,-0.68780487804878,
16352694,10390.625,-2784,1.70692826486818,-2688,-1.6480686695279,-15856,9.72164316370325,18,7.13414634146342,-117,-1.09756097560976,-14,0.853658536585366,1,-0.00434782608695652,-23,-0.1,140,-0.682926829268293,
16353334,10410.15625,-2800,1.71673819742489,-2672,-1.63825873697118,-15760,9.66278356836297,4,7.5,-123,-0.24390243902439,-16,0.975609756097561,2,-0.00869565217391304,-24,-0.104347826086957,140,-0.682926829268293,
16353974,10429.6875,-2720,1.66768853464132,-2640,-1.61863887185776,-15648,9.59411404046597,9,7.25609756097561,-119,-0.548780487804878,-17,1.03658536585366,2,-0.00869565217391304,-25,-0.108695652173913,138,-0.673170731707317,
16354614,10449.21875,-2704,1.65787860208461,-2480,-1.52053954629062,-15632,9.58430410790926,27,6.46341463414634,-106,-1.64634146341463,-21,1.28048780487805,2,-0.00869565217391304,-27,-0.117391304347826,142,-0.692682926829268,
16355254,10468.75,-2928,1.7952176578786,-2544,-1.55977927651747,-15648,9.59411404046597,22,5.85365853658537,-96,-1.34146341463415,-16,0.975609756097561,2,-0.00869565217391304,-21,-0.091304347826087,139,-0.678048780487805,
16355894,10488.28125,-3088,1.89331698344574,-2608,-1.59901900674433,-15616,9.57449417535254,-14,5.60975609756098,-92,0.853658536585366,-4,0.24390243902439,0,0,-22,-0.0956521739130435,139,-0.678048780487805,
16356534,10507.8125,-2960,1.81483752299203,-2512,-1.54015941140405,-15680,9.6137339055794,-15,5,-82,0.914634146341463,7,-0.426829268292683,0,0,-23,-0.1,139,-0.678048780487805,
16357174,10527.34375,-2896,1.77559779276517,-2592,-1.58920907418761,-15696,9.62354383813611,21,4.08536585365854,-67,-1.28048780487805,9,-0.548780487804878,1,-0.00434782608695652,-27,-0.117391304347826,141,-0.68780487804878,
16357814,10546.875,-2960,1.81483752299203,-2480,-1.52053954629062,-15776,9.67259350091968,38,3.84146341463415,-63,-2.31707317073171,11,-0.670731707317073,1,-0.00434782608695652,-27,-0.117391304347826,140,-0.682926829268293,
16358454,10566.40625,12592,-7.72041692213366,5408,3.31575720416922,-25488,15.6272225628449,3226,-79.8170731707317,1309,-196.707317073171,-2665,162.5,3,-0.0130434782608696,-26,-0.11304347826087,140,-0.682926829268293,
16359094,10585.9375,-4528,2.77621091354997,1776,1.08890251379522,-16368,10.0355610055181,927,-9.81707317073171,161,-56.5243902439024,98,-5.97560975609756,3,-0.0130434782608696,-21,-0.091304347826087,138,-0.673170731707317,
