Shimmer,Shimmer,Shimmer,Shimmer,Shimmer,Shimmer,Shimmer,Shimmer,Shimmer,Shimmer,Shimmer,Shimmer,Shimmer,Shimmer,Shimmer,Shimmer,Shimmer,Shimmer,Shimmer,Shimmer,
Timestamp,Timestamp,Wide Range Accelerometer X,Wide Range Accelerometer X,Wide Range Accelerometer Y,Wide Range Accelerometer Y,Wide Range Accelerometer Z,Wide Range Accelerometer Z,Gyroscope X,Gyroscope X,Gyroscope Y,Gyroscope Y,Gyroscope Z,Gyroscope Z,Magnetometer X,Magnetometer X,Magnetometer Y,Magnetometer Y,Magnetometer Z,Magnetometer Z,
RAW,CAL,RAW,CAL,RAW,CAL,RAW,CAL,RAW,CAL,RAW,CAL,RAW,CAL,RAW,CAL,RAW,CAL,RAW,CAL,
no units,mSecs,no units,m/(sec^2),no units,m/(sec^2),no units,m/(sec^2),no units,deg/sec,no units,deg/sec,no units,deg/sec,no units,local,no units,local,no units,local,
4870198,0,8336,-5.11097486204782,-12816,-7.85775597792765,-5344,3.27651747394237,-22,3.29268292682927,-54,1.34146341463415,-12,0.731707317073171,-73,0.317391304347826,42,0.182608695652174,129,-0.629268292682927,
4870838,19.53125,8368,-5.13059472716125,-12816,-7.85775597792765,-5360,3.28632740649908,-18,3.47560975609756,-57,1.09756097560976,-7,0.426829268292683,-72,0.31304347826087,42,0.182608695652174,128,-0.624390243902439,
4871478,39.0625,8304,-5.0913549969344,-12768,-7.82832618025751,-5344,3.27651747394237,-22,3.35365853658537,-55,1.34146341463415,-13,0.792682926829268,-72,0.31304347826087,38,0.165217391304348,130,-0.634146341463415,
4872118,58.59375,8368,-5.13059472716125,-12800,-7.84794604537094,-5440,3.33537706928265,-20,3.23170731707317,-53,1.21951219512195,-9,0.548780487804878,-73,0.317391304347826,41,0.178260869565217,127,-0.619512195121951,
4872758,78.125,8368,-5.13059472716125,-12800,-7.84794604537094,-5456,3.34518700183936,-18,3.23170731707317,-53,1.09756097560976,-10,0.609756097560976,-71,0.308695652173913,40,0.173913043478261,130,-0.634146341463415,
4873398,97.65625,8384,-5.14040465971796,-12800,-7.84794604537094,-5376,3.29613733905579,-21,3.47560975609756,-57,1.28048780487805,-6,0.365853658536585,-72,0.31304347826087,39,0.169565217391304,130,-0.634146341463415,
4874038,117.1875,8416,-5.16002452483139,-12784,-7.83813611281422,-5328,3.26670754138565,-22,3.41463414634146,-56,1.34146341463415,-3,0.182926829268293,-73,0.317391304347826,40,0.173913043478261,129,-0.629268292682927,
4874678,136.71875,8432,-5.16983445738811,-12768,-7.82832618025751,-5312,3.25689760882894,-24,3.41463414634146,-56,1.46341463414634,-5,0.304878048780488,-73,0.317391304347826,42,0.182608695652174,130,-0.634146341463415,
4875318,156.25,8384,-5.14040465971796,-12688,-7.77927651747394,-5344,3.27651747394237,-22,3.53658536585366,-58,1.34146341463415,-4,0.24390243902439,-72,0.31304347826087,37,0.160869565217391,129,-0.629268292682927,
4875958,175.78125,8400,-5.15021459227468,-12736,-7.80870631514408,-5440,3.33537706928265,-26,3.71951219512195,-61,1.58536585365854,-5,0.304878048780488,-72,0.31304347826087,38,0.165217391304348,131,-0.639024390243902,
4876598,195.3125,8416,-5.16002452483139,-12672,-7.76946658491723,-5504,3.3746167995095,-25,3.71951219512195,-61,1.52439024390244,-5,0.304878048780488,-74,0.321739130434783,45,0.195652173913043,128,-0.624390243902439,
4877238,214.84375,8368,-5.13059472716125,-12752,-7.8185162477008,-5424,3.32556713672594,-21,4.02439024390244,-66,1.28048780487805,-3,0.182926829268293,-74,0.321739130434783,42,0.182608695652174,128,-0.624390243902439,
4877878,234.375,8384,-5.14040465971796,-12704,-7.78908645003066,-5376,3.29613733905579,-26,3.78048780487805,-62,1.58536585365854,-7,0.426829268292683,-72,0.31304347826087,39,0.169565217391304,130,-0.634146341463415,
4878518,253.90625,8448,-5.17964438994482,-12704,-7.78908645003066,-5376,3.29613733905579,-27,3.59756097560976,-59,1.64634146341463,-3,0.182926829268293,-72,0.31304347826087,38,0.165217391304348,131,-0.639024390243902,
4879158,273.4375,8432,-5.16983445738811,-12688,-7.77927651747394,-5344,3.27651747394237,-29,3.04878048780488,-50,1.76829268292683,-3,0.182926829268293,-72,0.31304347826087,41,0.178260869565217,130,-0.634146341463415,
4879798,292.96875,8448,-5.17964438994482,-12704,-7.78908645003066,-5408,3.31575720416922,-22,3.10975609756098,-51,1.34146341463415,-1,0.0609756097560976,-71,0.308695652173913,40,0.173913043478261,129,-0.629268292682927,
4880438,312.5,8368,-5.13059472716125,-12704,-7.78908645003066,-5504,3.3746167995095,-14,3.23170731707317,-53,0.853658536585366,0,0,-74,0.321739130434783,40,0.173913043478261,130,-0.634146341463415,
4881078,332.03125,8352,-5.12078479460454,-12752,-7.8185162477008,-5456,3.34518700183936,-8,3.17073170731707,-52,0.487804878048781,-2,0.121951219512195,-74,0.321739130434783,39,0.169565217391304,129,-0.629268292682927,
4881718,351.5625,8400,-5.15021459227468,-12656,-7.75965665236051,-5408,3.31575720416922,-3,2.80487804878049,-46,0.182926829268293,0,0,-72,0.31304347826087,38,0.165217391304348,129,-0.629268292682927,
4882358,371.09375,8448,-5.17964438994482,-12656,-7.75965665236051,-5392,3.30594727161251,5,2.80487804878049,-46,-0.304878048780488,-5,0.304878048780488,-76,0.330434782608696,44,0.191304347826087,128,-0.624390243902439,
4882998,390.625,8416,-5.16002452483139,-12704,-7.78908645003066,-5392,3.30594727161251,2,2.68292682926829,-44,-0.121951219512195,-5,0.304878048780488,-73,0.317391304347826,42,0.182608695652174,129,-0.629268292682927,
4883638,410.15625,8368,-5.13059472716125,-12704,-7.78908645003066,-5408,3.31575720416922,2,2.86585365853659,-47,-0.121951219512195,-6,0.365853658536585,-73,0.317391304347826,42,0.182608695652174,130,-0.634146341463415,
4884278,429.6875,8400,-5.15021459227468,-12688,-7.77927651747394,-5264,3.2274678111588,-5,2.98780487804878,-49,0.304878048780488,-6,0.365853658536585,-71,0.308695652173913,38,0.165217391304348,130,-0.634146341463415,
4884918,449.21875,8384,-5.14040465971796,-12720,-7.79889638258737,-5296,3.24708767627223,-15,3.04878048780488,-50,0.914634146341463,-8,0.487804878048781,-74,0.321739130434783,37,0.160869565217391,131,-0.639024390243902,
4885558,468.75,8352,-5.12078479460454,-12672,-7.76946658491723,-5296,3.24708767627223,-22,3.17073170731707,-52,1.34146341463415,-6,0.365853658536585,-73,0.317391304347826,39,0.169565217391304,128,-0.624390243902439,
4886198,488.28125,8400,-5.15021459227468,-12640,-7.7498467198038,-5376,3.29613733905579,-28,3.04878048780488,-50,1.70731707317073,-6,0.365853658536585,-72,0.31304347826087,40,0.173913043478261,129,-0.629268292682927,
4886838,507.8125,8464,-5.18945432250153,-12720,-7.79889638258737,-5376,3.29613733905579,-18,3.10975609756098,-51,1.09756097560976,-4,0.24390243902439,-72,0.31304347826087,38,0.165217391304348,131,-0.639024390243902,
4887478,527.34375,8448,-5.17964438994482,-12672,-7.76946658491723,-5408,3.31575720416922,-10,2.86585365853659,-47,0.609756097560976,-6,0.365853658536585,-74,0.321739130434783,38,0.165217391304348,129,-0.629268292682927,
4888118,546.875,8432,-5.16983445738811,-12624,-7.74003678724709,-5376,3.29613733905579,-1,3.10975609756098,-51,0.0609756097560976,-10,0.609756097560976,-72,0.31304347826087,40,0.173913043478261,129,-0.629268292682927,
4888758,566.40625,8432,-5.16983445738811,-12672,-7.76946658491723,-5392,3.30594727161251,9,2.98780487804878,-49,-0.548780487804878,-11,0.670731707317073,-72,0.31304347826087,39,0.169565217391304,130,-0.634146341463415,
4889398,585.9375,8304,-5.0913549969344,-12720,-7.79889638258737,-5328,3.26670754138565,5,2.86585365853659,-47,-0.304878048780488,-14,0.853658536585366,-74,0.321739130434783,40,0.173913043478261,129,-0.629268292682927,
4890038,605.46875,8336,-5.11097486204782,-12752,-7.8185162477008,-5408,3.31575720416922,1,2.74390243902439,-45,-0.0609756097560976,-13,0.792682926829268,-76,0.330434782608696,43,0.18695652173913,129,-0.629268292682927,
4890678,625,8432,-5.16983445738811,-12688,-7.77927651747394,-5392,3.30594727161251,0,2.5609756097561,-42,0,-11,0.670731707317073,-72,0.31304347826087,37,0.160869565217391,130,-0.634146341463415,
4891318,644.53125,8400,-5.15021459227468,-12720,-7.79889638258737,-5360,3.28632740649908,-2,2.74390243902439,-45,0.121951219512195,-12,0.731707317073171,-74,0.321739130434783,41,0.178260869565217,130,-0.634146341463415,
4891958,664.0625,8400,-5.15021459227468,-12752,-7.8185162477008,-5424,3.32556713672594,1,2.86585365853659,-47,-0.0609756097560976,-10,0.609756097560976,-74,0.321739130434783,39,0.169565217391304,128,-0.624390243902439,
4892598,683.59375,8368,-5.13059472716125,-12736,-7.80870631514408,-5376,3.29613733905579,2,2.6219512195122,-43,-0.121951219512195,-13,0.792682926829268,-74,0.321739130434783,38,0.165217391304348,130,-0.634146341463415,
4893238,703.125,8352,-5.12078479460454,-12704,-7.78908645003066,-5360,3.28632740649908,-2,2.92682926829268,-48,0.121951219512195,-11,0.670731707317073,-74,0.321739130434783,39,0.169565217391304,130,-0.634146341463415,
4893878,722.65625,8400,-5.15021459227468,-12768,-7.82832618025751,-5408,3.31575720416922,-5,2.86585365853659,-47,0.304878048780488,-10,0.609756097560976,-72,0.31304347826087,41,0.178260869565217,129,-0.629268292682927,
4894518,742.1875,8400,-5.15021459227468,-12816,-7.85775597792765,-5424,3.32556713672594,-8,2.92682926829268,-48,0.487804878048781,-10,0.609756097560976,-73,0.317391304347826,42,0.182608695652174,129,-0.629268292682927,
4895158,761.71875,8448,-5.17964438994482,-12704,-7.78908645003066,-5344,3.27651747394237,-6,3.23170731707317,-53,0.365853658536585,-10,0.609756097560976,-75,0.326086956521739,38,0.165217391304348,131,-0.639024390243902,
4895798,781.25,8496,-5.20907418761496,-12720,-7.79889638258737,-5392,3.30594727161251,-2,3.35365853658537,-55,0.121951219512195,-10,0.609756097560976,-74,0.321739130434783,40,0.173913043478261,128,-0.624390243902439,
4896438,800.78125,8400,-5.15021459227468,-12688,-7.77927651747394,-5360,3.28632740649908,-4,3.23170731707317,-53,0.24390243902439,-10,0.609756097560976,-73,0.317391304347826,38,0.165217391304348,129,-0.629268292682927,
4897078,820.3125,8464,-5.18945432250153,-12688,-7.77927651747394,-5376,3.29613733905579,-6,3.29268292682927,-54,0.365853658536585,-8,0.487804878048781,-72,0.31304347826087,37,0.160869565217391,130,-0.634146341463415,
4897718,839.84375,8448,-5.17964438994482,-12704,-7.78908645003066,-5360,3.28632740649908,-8,3.41463414634146,-56,0.487804878048781,-10,0.609756097560976,-74,0.321739130434783,43,0.18695652173913,130,-0.634146341463415,
4898358,859.375,8368,-5.13059472716125,-12720,-7.79889638258737,-5488,3.36480686695279,-10,3.41463414634146,-56,0.609756097560976,-8,0.487804878048781,-74,0.321739130434783,42,0.182608695652174,129,-0.629268292682927,
4898998,878.90625,8432,-5.16983445738811,-12752,-7.8185162477008,-5424,3.32556713672594,-10,3.35365853658537,-55,0.609756097560976,-6,0.365853658536585,-74,0.321739130434783,43,0.18695652173913,131,-0.639024390243902,
4899638,898.4375,8432,-5.16983445738811,-12784,-7.83813611281422,-5408,3.31575720416922,-5,3.59756097560976,-59,0.304878048780488,-6,0.365853658536585,-72,0.31304347826087,37,0.160869565217391,132,-0.64390243902439,
4900278,917.96875,8464,-5.18945432250153,-12736,-7.80870631514408,-5456,3.34518700183936,-5,3.41463414634146,-56,0.304878048780488,-4,0.24390243902439,-74,0.321739130434783,40,0.173913043478261,130,-0.634146341463415,
4900918,937.5,8448,-5.17964438994482,-12704,-7.78908645003066,-5328,3.26670754138565,-3,3.29268292682927,-54,0.182926829268293,-6,0.365853658536585,-74,0.321739130434783,41,0.178260869565217,128,-0.624390243902439,
4901558,957.03125,8448,-5.17964438994482,-12752,-7.8185162477008,-5328,3.26670754138565,-3,3.23170731707317,-53,0.182926829268293,-7,0.426829268292683,-73,0.317391304347826,38,0.165217391304348,131,-0.639024390243902,
4902198,976.5625,8400,-5.15021459227468,-12768,-7.82832618025751,-5360,3.28632740649908,-3,3.10975609756098,-51,0.182926829268293,-4,0.24390243902439,-75,0.326086956521739,40,0.173913043478261,131,-0.639024390243902,
4902838,996.09375,8336,-5.11097486204782,-12688,-7.77927651747394,-5408,3.31575720416922,-4,3.41463414634146,-56,0.24390243902439,-7,0.426829268292683,-74,0.321739130434783,43,0.18695652173913,128,-0.624390243902439,
4903478,1015.625,8432,-5.16983445738811,-12640,-7.7498467198038,-5360,3.28632740649908,-8,3.29268292682927,-54,0.487804878048781,-10,0.609756097560976,-72,0.31304347826087,38,0.165217391304348,128,-0.624390243902439,
4904118,1035.15625,8480,-5.19926425505825,-12704,-7.78908645003066,-5360,3.28632740649908,-10,3.35365853658537,-55,0.609756097560976,-5,0.304878048780488,-73,0.317391304347826,40,0.173913043478261,130,-0.634146341463415,
4904758,1054.6875,8464,-5.18945432250153,-12752,-7.8185162477008,-5424,3.32556713672594,-7,3.04878048780488,-50,0.426829268292683,-4,0.24390243902439,-73,0.317391304347826,42,0.182608695652174,130,-0.634146341463415,
4905398,1074.21875,8448,-5.17964438994482,-12736,-7.80870631514408,-5472,3.35499693439608,-1,2.92682926829268,-48,0.0609756097560976,-4,0.24390243902439,-72,0.31304347826087,37,0.160869565217391,130,-0.634146341463415,
4906038,1093.75,8368,-5.13059472716125,-12672,-7.76946658491723,-5456,3.34518700183936,-2,3.10975609756098,-51,0.121951219512195,-3,0.182926829268293,-72,0.31304347826087,38,0.165217391304348,129,-0.629268292682927,
4906678,1113.28125,8368,-5.13059472716125,-12752,-7.8185162477008,-5472,3.35499693439608,6,3.04878048780488,-50,-0.365853658536585,-3,0.182926829268293,-76,0.330434782608696,41,0.178260869565217,130,-0.634146341463415,
4907318,1132.8125,8496,-5.20907418761496,-12816,-7.85775597792765,-5440,3.33537706928265,13,3.23170731707317,-53,-0.792682926829268,-2,0.121951219512195,-74,0.321739130434783,39,0.169565217391304,129,-0.629268292682927,
4907958,1152.34375,8400,-5.15021459227468,-12704,-7.78908645003066,-5440,3.33537706928265,27,3.47560975609756,-57,-1.64634146341463,-7,0.426829268292683,-72,0.31304347826087,39,0.169565217391304,131,-0.639024390243902,
4908598,1171.875,8208,-5.03249540159411,-12672,-7.76946658491723,-5296,3.24708767627223,26,3.90243902439024,-64,-1.58536585365854,-17,1.03658536585366,-73,0.317391304347826,40,0.173913043478261,130,-0.634146341463415,
4909238,1191.40625,8192,-5.0226854690374,-12672,-7.76946658491723,-5184,3.17841814837523,7,4.51219512195122,-74,-0.426829268292683,-30,1.82926829268293,-75,0.326086956521739,44,0.191304347826087,129,-0.629268292682927,
4909878,1210.9375,8160,-5.00306560392397,-12560,-7.70079705702023,-5024,3.08031882280809,-20,5.18292682926829,-85,1.21951219512195,-38,2.31707317073171,-72,0.31304347826087,40,0.173913043478261,130,-0.634146341463415,
4910518,1230.46875,8256,-5.06192519926425,-12592,-7.72041692213366,-5040,3.09012875536481,-64,4.9390243902439,-81,3.90243902439024,-42,2.5609756097561,-75,0.326086956521739,38,0.165217391304348,131,-0.639024390243902,
4911158,1250,8368,-5.13059472716125,-12688,-7.77927651747394,-5264,3.2274678111588,-103,4.81707317073171,-79,6.28048780487805,-45,2.74390243902439,-76,0.330434782608696,41,0.178260869565217,129,-0.629268292682927,
4911798,1269.53125,8464,-5.18945432250153,-12736,-7.80870631514408,-5376,3.29613733905579,-137,4.81707317073171,-79,8.35365853658537,-36,2.19512195121951,-73,0.317391304347826,37,0.160869565217391,130,-0.634146341463415,
4912438,1289.0625,8624,-5.28755364806867,-12736,-7.80870631514408,-5520,3.38442673206622,-174,4.51219512195122,-74,10.609756097561,-32,1.95121951219512,-73,0.317391304347826,37,0.160869565217391,131,-0.639024390243902,
4913078,1308.59375,8832,-5.41508277130595,-12816,-7.85775597792765,-5648,3.46290619251993,-149,3.53658536585366,-58,9.08536585365854,-18,1.09756097560976,-75,0.326086956521739,40,0.173913043478261,130,-0.634146341463415,
4913718,1328.125,8832,-5.41508277130595,-12704,-7.78908645003066,-5888,3.61005518087063,-95,2.92682926829268,-48,5.79268292682927,-7,0.426829268292683,-75,0.326086956521739,40,0.173913043478261,131,-0.639024390243902,
4914358,1347.65625,8704,-5.33660331085224,-12592,-7.72041692213366,-5824,3.57081545064378,-29,2.01219512195122,-33,1.76829268292683,0,0,-74,0.321739130434783,37,0.160869565217391,131,-0.639024390243902,
4914998,1367.1875,8640,-5.29736358062538,-12384,-7.59288779889638,-5824,3.57081545064378,19,1.09756097560976,-18,-1.15853658536585,0,0,-74,0.321739130434783,43,0.18695652173913,131,-0.639024390243902,
4915638,1386.71875,8624,-5.28755364806867,-12368,-7.58307786633967,-5712,3.50214592274678,67,0.121951219512195,-2,-4.08536585365854,-6,0.365853658536585,-76,0.330434782608696,39,0.169565217391304,130,-0.634146341463415,
4916278,1406.25,8640,-5.29736358062538,-12464,-7.64193746167995,-5728,3.51195585530349,104,-1.21951219512195,20,-6.34146341463415,-12,0.731707317073171,-74,0.321739130434783,40,0.173913043478261,131,-0.639024390243902,
4916918,1425.78125,8608,-5.27774371551196,-12560,-7.70079705702023,-5616,3.4432863274065,130,-2.01219512195122,33,-7.92682926829268,-14,0.853658536585366,-75,0.326086956521739,39,0.169565217391304,131,-0.639024390243902,
4917558,1445.3125,8592,-5.26793378295524,-12592,-7.72041692213366,-5440,3.33537706928265,142,-2.5,41,-8.65853658536586,-16,0.975609756097561,-75,0.326086956521739,42,0.182608695652174,130,-0.634146341463415,
4918198,1464.84375,8592,-5.26793378295524,-12736,-7.80870631514408,-5264,3.2274678111588,148,-2.80487804878049,46,-9.02439024390244,-14,0.853658536585366,-72,0.31304347826087,39,0.169565217391304,129,-0.629268292682927,
4918838,1484.375,8416,-5.16002452483139,-12720,-7.79889638258737,-5216,3.19803801348866,140,-2.6219512195122,43,-8.53658536585366,-12,0.731707317073171,-72,0.31304347826087,37,0.160869565217391,130,-0.634146341463415,
4919478,1503.90625,8400,-5.15021459227468,-12784,-7.83813611281422,-5184,3.17841814837523,122,-2.74390243902439,45,-7.4390243902439,-9,0.548780487804878,-74,0.321739130434783,43,0.18695652173913,130,-0.634146341463415,
4920118,1523.4375,8352,-5.12078479460454,-12736,-7.80870631514408,-5344,3.27651747394237,114,-2.6219512195122,43,-6.95121951219512,-7,0.426829268292683,-74,0.321739130434783,42,0.182608695652174,130,-0.634146341463415,
4920758,1542.96875,8352,-5.12078479460454,-12704,-7.78908645003066,-5296,3.24708767627223,107,-2.07317073170732,34,-6.52439024390244,-13,0.792682926829268,-74,0.321739130434783,42,0.182608695652174,129,-0.629268292682927,
4921398,1562.5,8368,-5.13059472716125,-12672,-7.76946658491723,-5280,3.23727774371551,104,-1.70731707317073,28,-6.34146341463415,-16,0.975609756097561,-73,0.317391304347826,42,0.182608695652174,129,-0.629268292682927,
4922038,1582.03125,8336,-5.11097486204782,-12672,-7.76946658491723,-5376,3.29613733905579,98,-1.46341463414634,24,-5.97560975609756,-15,0.914634146341463,-73,0.317391304347826,40,0.173913043478261,127,-0.619512195121951,
4922678,1601.5625,8368,-5.13059472716125,-12736,-7.80870631514408,-5328,3.26670754138565,93,-0.914634146341463,15,-5.67073170731707,-20,1.21951219512195,-72,0.31304347826087,42,0.182608695652174,127,-0.619512195121951,
4923318,1621.09375,8384,-5.14040465971796,-12752,-7.8185162477008,-5248,3.21765787860208,90,-0.304878048780488,5,-5.48780487804878,-19,1.15853658536585,-75,0.326086956521739,44,0.191304347826087,128,-0.624390243902439,
4923958,1640.625,8368,-5.13059472716125,-12848,-7.87737584304108,-5216,3.19803801348866,83,0.24390243902439,-4,-5.0609756097561,-19,1.15853658536585,-73,0.317391304347826,40,0.173913043478261,128,-0.624390243902439,
4924598,1660.15625,8400,-5.15021459227468,-12896,-7.90680564071122,-5312,3.25689760882894,78,1.03658536585366,-17,-4.75609756097561,-16,0.975609756097561,-73,0.317391304347826,40,0.173913043478261,128,-0.624390243902439,
4925238,1679.6875,8416,-5.16002452483139,-12928,-7.92642550582465,-5280,3.23727774371551,81,1.52439024390244,-25,-4.9390243902439,-10,0.609756097560976,-72,0.31304347826087,39,0.169565217391304,127,-0.619512195121951,
4925878,1699.21875,8336,-5.11097486204782,-12912,-7.91661557326793,-5216,3.19803801348866,80,2.37804878048781,-39,-4.87804878048781,-3,0.182926829268293,-72,0.31304347826087,40,0.173913043478261,128,-0.624390243902439,
4926518,1718.75,8240,-5.05211526670754,-12800,-7.84794604537094,-5200,3.18822808093194,69,2.86585365853659,-47,-4.20731707317073,-3,0.182926829268293,-72,0.31304347826087,44,0.191304347826087,128,-0.624390243902439,
4927158,1738.28125,8288,-5.08154506437768,-12848,-7.87737584304108,-5200,3.18822808093194,41,2.6219512195122,-43,-2.5,6,-0.365853658536585,-72,0.31304347826087,38,0.165217391304348,128,-0.624390243902439,
4927798,1757.8125,8384,-5.14040465971796,-12912,-7.91661557326793,-5456,3.34518700183936,33,2.01219512195122,-33,-2.01219512195122,17,-1.03658536585366,-72,0.31304347826087,38,0.165217391304348,129,-0.629268292682927,
4928438,1777.34375,8640,-5.29736358062538,-13024,-7.98528510116493,-5744,3.52176578786021,63,1.76829268292683,-29,-3.84146341463415,29,-1.76829268292683,-73,0.317391304347826,41,0.178260869565217,127,-0.619512195121951,
4929078,1796.875,8752,-5.36603310852238,-12992,-7.9656652360515,-6096,3.73758430410791,147,2.07317073170732,-34,-8.96341463414634,44,-2.68292682926829,-71,0.308695652173913,41,0.178260869565217,127,-0.619512195121951,
4929718,1816.40625,8800,-5.39546290619252,-13056,-8.00490496627836,-6208,3.8062538320049,258,2.07317073170732,-34,-15.7317073170732,69,-4.20731707317073,-69,0.3,39,0.169565217391304,129,-0.629268292682927,
4930358,1835.9375,8688,-5.32679337829552,-13168,-8.07357449417535,-6240,3.82587369711833,404,0.548780487804878,-9,-24.6341463414634,110,-6.70731707317073,-71,0.308695652173913,39,0.169565217391304,128,-0.624390243902439,
4930998,1855.46875,8448,-5.17964438994482,-13152,-8.06376456161864,-6192,3.79644389944819,542,-0.0609756097560976,1,-33.0487804878049,148,-9.02439024390244,-73,0.317391304347826,42,0.182608695652174,126,-0.614634146341463,
4931638,1875,8304,-5.0913549969344,-13360,-8.19129368485592,-6048,3.70815450643777,600,-0.792682926829268,13,-36.5853658536585,195,-11.890243902439,-71,0.308695652173913,39,0.169565217391304,128,-0.624390243902439,
4932278,1894.53125,8272,-5.07173513182097,-13456,-8.2501532801962,-5856,3.5904353157572,636,0.792682926829268,-13,-38.780487804878,240,-14.6341463414634,-68,0.295652173913043,39,0.169565217391304,128,-0.624390243902439,
4932918,1914.0625,8016,-4.91477621091355,-13344,-8.1814837522992,-5616,3.4432863274065,692,3.59756097560976,-59,-42.1951219512195,254,-15.4878048780488,-65,0.282608695652174,40,0.173913043478261,126,-0.614634146341463,
4933558,1933.59375,7456,-4.57142857142857,-13056,-8.00490496627836,-5344,3.27651747394237,702,6.58536585365854,-108,-42.8048780487805,235,-14.3292682926829,-64,0.278260869565217,38,0.165217391304348,126,-0.614634146341463,
4934198,1953.125,6800,-4.16922133660331,-12672,-7.76946658491723,-4912,3.0116492949111,654,9.14634146341463,-150,-39.8780487804878,195,-11.890243902439,-64,0.278260869565217,43,0.18695652173913,127,-0.619512195121951,
4934838,1972.65625,5936,-3.63948497854077,-12240,-7.50459840588596,-4544,2.78602084610668,514,10.1219512195122,-166,-31.3414634146341,140,-8.53658536585366,-63,0.273913043478261,45,0.195652173913043,126,-0.614634146341463,
4935478,1992.1875,5488,-3.36480686695279,-11888,-7.28877988963826,-3936,2.41324340895156,248,8.41463414634146,-138,-15.1219512195122,52,-3.17073170731707,-62,0.269565217391304,40,0.173913043478261,126,-0.614634146341463,
4936118,2011.71875,5680,-3.48252605763335,-11888,-7.28877988963826,-3936,2.41324340895156,-126,4.75609756097561,-78,7.68292682926829,-57,3.47560975609756,-62,0.269565217391304,43,0.18695652173913,127,-0.619512195121951,
4936758,2031.25,5856,-3.5904353157572,-12208,-7.48497854077253,-4432,2.71735131820969,-439,1.09756097560976,-18,26.7682926829268,-155,9.45121951219512,-63,0.273913043478261,40,0.173913043478261,125,-0.609756097560976,
4937398,2050.78125,6208,-3.8062538320049,-12496,-7.66155732679338,-4976,3.05088902513795,-738,-0.548780487804878,9,45,-245,14.9390243902439,-65,0.282608695652174,41,0.178260869565217,126,-0.614634146341463,
4938038,2070.3125,7008,-4.29675045984059,-12816,-7.85775597792765,-5568,3.41385652973636,-959,-0.0609756097560976,1,58.4756097560976,-323,19.6951219512195,-66,0.28695652173913,43,0.18695652173913,126,-0.614634146341463,
4938678,2089.84375,7808,-4.78724708767627,-13056,-8.00490496627836,-6016,3.68853464132434,-1012,2.5,-41,61.7073170731707,-368,22.4390243902439,-70,0.304347826086957,38,0.165217391304348,128,-0.624390243902439,
4939318,2109.375,8528,-5.22869405272839,-13056,-8.00490496627836,-6144,3.76701410177805,-966,4.39024390243902,-72,58.9024390243902,-370,22.5609756097561,-69,0.3,40,0.173913043478261,127,-0.619512195121951,
4939958,2128.90625,9216,-5.65052115266707,-13120,-8.04414469650521,-6256,3.83568362967505,-835,2.86585365853659,-47,50.9146341463415,-319,19.4512195121951,-71,0.308695652173913,42,0.182608695652174,127,-0.619512195121951,
4940598,2148.4375,10032,-6.15082771305947,-13584,-8.32863274064991,-6656,4.08093194359289,-670,-1.95121951219512,32,40.8536585365854,-207,12.6219512195122,-72,0.31304347826087,42,0.182608695652174,127,-0.619512195121951,
4941238,2167.96875,10848,-6.65113427345187,-14000,-8.58369098712446,-7232,4.43408951563458,-430,-5.1219512195122,84,26.219512195122,-80,4.87804878048781,-74,0.321739130434783,43,0.18695652173913,128,-0.624390243902439,
4941878,2187.5,10656,-6.53341508277131,-14096,-8.64255058246474,-7472,4.58123850398528,-92,-4.81707317073171,79,5.60975609756098,32,-1.95121951219512,-72,0.31304347826087,39,0.169565217391304,128,-0.624390243902439,
4942518,2207.03125,9472,-5.80748007357449,-13600,-8.33844267320662,-6832,4.18884120171674,255,-0.121951219512195,2,-15.5487804878049,102,-6.21951219512195,-72,0.31304347826087,39,0.169565217391304,130,-0.634146341463415,
4943158,2226.5625,8368,-5.13059472716125,-12912,-7.91661557326793,-5776,3.54138565297364,465,3.35365853658537,-55,-28.3536585365854,132,-8.04878048780488,-73,0.317391304347826,41,0.178260869565217,127,-0.619512195121951,
4943798,2246.09375,7616,-4.66952789699571,-12192,-7.47516860821582,-4688,2.87431023911711,513,5.48780487804878,-90,-31.2804878048781,128,-7.80487804878049,-73,0.317391304347826,44,0.191304347826087,126,-0.614634146341463,
4944438,2265.625,7344,-4.50275904353158,-11728,-7.19068056407112,-4080,2.50153280196199,378,4.14634146341463,-68,-23.0487804878049,90,-5.48780487804878,-70,0.304347826086957,39,0.169565217391304,128,-0.624390243902439,
4945078,2285.15625,7504,-4.60085836909871,-11792,-7.22992029429798,-4048,2.48191293684856,154,0.914634146341463,-15,-9.39024390243902,38,-2.31707317073171,-70,0.304347826086957,40,0.173913043478261,128,-0.624390243902439,
4945718,2304.6875,7920,-4.85591661557327,-12272,-7.52421827099939,-4736,2.90374003678725,-44,-2.37804878048781,39,2.68292682926829,-7,0.426829268292683,-69,0.3,42,0.182608695652174,127,-0.619512195121951,
4946358,2324.21875,8016,-4.91477621091355,-12736,-7.80870631514408,-5616,3.4432863274065,-121,-2.6219512195122,43,7.37804878048781,-30,1.82926829268293,-71,0.308695652173913,40,0.173913043478261,126,-0.614634146341463,
4946998,2343.75,8384,-5.14040465971796,-13072,-8.01471489883507,-5664,3.47271612507664,-139,-1.15853658536585,19,8.47560975609756,-32,1.95121951219512,-71,0.308695652173913,40,0.173913043478261,126,-0.614634146341463,
4947638,2363.28125,8448,-5.17964438994482,-13488,-8.26977314530963,-5936,3.63948497854077,-75,1.09756097560976,-18,4.57317073170732,-17,1.03658536585366,-71,0.308695652173913,44,0.191304347826087,127,-0.619512195121951,
4948278,2382.8125,8368,-5.13059472716125,-13616,-8.34825260576334,-5936,3.63948497854077,-30,3.35365853658537,-55,1.82926829268293,8,-0.487804878048781,-70,0.304347826086957,38,0.165217391304348,126,-0.614634146341463,
4948918,2402.34375,8240,-5.05211526670754,-13376,-8.20110361741263,-5648,3.46290619251993,-12,5.18292682926829,-85,0.731707317073171,22,-1.34146341463415,-72,0.31304347826087,39,0.169565217391304,127,-0.619512195121951,
4949558,2421.875,8192,-5.0226854690374,-12896,-7.90680564071122,-5600,3.43347639484979,-27,6.03658536585366,-99,1.64634146341463,27,-1.64634146341463,-74,0.321739130434783,44,0.191304347826087,127,-0.619512195121951,
4950198,2441.40625,8240,-5.05211526670754,-12512,-7.67136725935009,-5552,3.40404659717964,-44,6.34146341463415,-104,2.68292682926829,19,-1.15853658536585,-74,0.321739130434783,41,0.178260869565217,126,-0.614634146341463,
4950838,2460.9375,8352,-5.12078479460454,-12288,-7.5340282035561,-5488,3.36480686695279,-35,5.97560975609756,-98,2.13414634146341,9,-0.548780487804878,-71,0.308695652173913,39,0.169565217391304,128,-0.624390243902439,
4951478,2480.46875,8368,-5.13059472716125,-12288,-7.5340282035561,-5440,3.33537706928265,-12,5.36585365853659,-88,0.731707317073171,-2,0.121951219512195,-71,0.308695652173913,45,0.195652173913043,126,-0.614634146341463,
4952118,2500,8336,-5.11097486204782,-12416,-7.61250766400981,-5536,3.39423666462293,13,4.39024390243902,-72,-0.792682926829268,-11,0.670731707317073,-70,0.304347826086957,42,0.182608695652174,127,-0.619512195121951,
4952758,2519.53125,8160,-5.00306560392397,-12672,-7.76946658491723,-5488,3.36480686695279,21,3.53658536585366,-58,-1.28048780487805,-18,1.09756097560976,-73,0.317391304347826,46,0.2,127,-0.619512195121951,
4953398,2539.0625,8096,-4.96382587369712,-12976,-7.95585530349479,-5536,3.39423666462293,23,2.86585365853659,-47,-1.40243902439024,-19,1.15853658536585,-71,0.308695652173913,39,0.169565217391304,129,-0.629268292682927,
4954038,2558.59375,8128,-4.98344573881055,-13136,-8.05395462906193,-5536,3.39423666462293,34,2.37804878048781,-39,-2.07317073170732,-17,1.03658536585366,-72,0.31304347826087,41,0.178260869565217,127,-0.619512195121951,
4954678,2578.125,8144,-4.99325567136726,-13168,-8.07357449417535,-5616,3.4432863274065,53,2.13414634146341,-35,-3.23170731707317,-18,1.09756097560976,-70,0.304347826086957,39,0.169565217391304,127,-0.619512195121951,
4955318,2597.65625,8160,-5.00306560392397,-13072,-8.01471489883507,-5552,3.40404659717964,70,2.07317073170732,-34,-4.26829268292683,-17,1.03658536585366,-70,0.304347826086957,39,0.169565217391304,128,-0.624390243902439,
4955958,2617.1875,8208,-5.03249540159411,-12928,-7.92642550582465,-5456,3.34518700183936,76,1.52439024390244,-25,-4.63414634146342,-19,1.15853658536585,-71,0.308695652173913,43,0.18695652173913,128,-0.624390243902439,
4956598,2636.71875,8272,-5.07173513182097,-12768,-7.82832618025751,-5424,3.32556713672594,87,1.03658536585366,-17,-5.30487804878049,-20,1.21951219512195,-71,0.308695652173913,42,0.182608695652174,127,-0.619512195121951,
4957238,2656.25,8288,-5.08154506437768,-12752,-7.8185162477008,-5344,3.27651747394237,94,0.853658536585366,-14,-5.73170731707317,-22,1.34146341463415,-69,0.3,39,0.169565217391304,127,-0.619512195121951,
4957878,2675.78125,8208,-5.03249540159411,-12912,-7.91661557326793,-5408,3.31575720416922,97,0.426829268292683,-7,-5.91463414634146,-17,1.03658536585366,-70,0.304347826086957,38,0.165217391304348,127,-0.619512195121951,
4958518,2695.3125,8160,-5.00306560392397,-12960,-7.94604537093807,-5360,3.28632740649908,91,1.28048780487805,-21,-5.54878048780488,-12,0.731707317073171,-70,0.304347826086957,41,0.178260869565217,125,-0.609756097560976,
4959158,2714.84375,8080,-4.9540159411404,-12976,-7.95585530349479,-5216,3.19803801348866,75,1.76829268292683,-29,-4.57317073170732,-9,0.548780487804878,-70,0.304347826086957,42,0.182608695652174,126,-0.614634146341463,
4959798,2734.375,8000,-4.90496627835684,-12928,-7.92642550582465,-5136,3.14898835070509,40,1.82926829268293,-30,-2.4390243902439,-12,0.731707317073171,-72,0.31304347826087,39,0.169565217391304,128,-0.624390243902439,
4960438,2753.90625,7952,-4.8755364806867,-12992,-7.9656652360515,-5184,3.17841814837523,4,1.34146341463415,-22,-0.24390243902439,-11,0.670731707317073,-72,0.31304347826087,40,0.173913043478261,128,-0.624390243902439,
4961078,2773.4375,8048,-4.93439607602698,-13088,-8.02452483139178,-5440,3.33537706928265,-22,1.09756097560976,-18,1.34146341463415,-2,0.121951219512195,-71,0.308695652173913,44,0.191304347826087,125,-0.609756097560976,
4961718,2792.96875,8256,-5.06192519926425,-13088,-8.02452483139178,-5536,3.39423666462293,-36,1.46341463414634,-24,2.19512195121951,7,-0.426829268292683,-70,0.304347826086957,39,0.169565217391304,126,-0.614634146341463,
4962358,2812.5,8256,-5.06192519926425,-13024,-7.98528510116493,-5664,3.47271612507664,-19,2.37804878048781,-39,1.15853658536585,19,-1.15853658536585,-70,0.304347826086957,46,0.2,126,-0.614634146341463,
4962998,2832.03125,8288,-5.08154506437768,-12816,-7.85775597792765,-5552,3.40404659717964,-2,2.68292682926829,-44,0.121951219512195,20,-1.21951219512195,-71,0.308695652173913,46,0.2,127,-0.619512195121951,
4963638,2851.5625,8208,-5.03249540159411,-12752,-7.8185162477008,-5440,3.33537706928265,9,2.86585365853659,-47,-0.548780487804878,21,-1.28048780487805,-71,0.308695652173913,39,0.169565217391304,128,-0.624390243902439,
4964278,2871.09375,8192,-5.0226854690374,-12720,-7.79889638258737,-5328,3.26670754138565,4,2.74390243902439,-45,-0.24390243902439,14,-0.853658536585366,-68,0.295652173913043,38,0.165217391304348,128,-0.624390243902439,
4964918,2890.625,8160,-5.00306560392397,-12832,-7.86756591048437,-5424,3.32556713672594,-1,2.68292682926829,-44,0.0609756097560976,10,-0.609756097560976,-69,0.3,42,0.182608695652174,126,-0.614634146341463,
4965558,2910.15625,8080,-4.9540159411404,-12896,-7.90680564071122,-5344,3.27651747394237,-7,2.68292682926829,-44,0.426829268292683,7,-0.426829268292683,-71,0.308695652173913,44,0.191304347826087,126,-0.614634146341463,
4966198,2929.6875,8064,-4.94420600858369,-12896,-7.90680564071122,-5376,3.29613733905579,-11,3.10975609756098,-51,0.670731707317073,2,-0.121951219512195,-70,0.304347826086957,41,0.178260869565217,128,-0.624390243902439,
4966838,2949.21875,8048,-4.93439607602698,-12912,-7.91661557326793,-5360,3.28632740649908,-19,3.10975609756098,-51,1.15853658536585,4,-0.24390243902439,-70,0.304347826086957,39,0.169565217391304,127,-0.619512195121951,
4967478,2968.75,8112,-4.97363580625383,-12880,-7.89699570815451,-5392,3.30594727161251,-24,3.17073170731707,-52,1.46341463414634,5,-0.304878048780488,-71,0.308695652173913,45,0.195652173913043,126,-0.614634146341463,
4968118,2988.28125,8096,-4.96382587369712,-12832,-7.86756591048437,-5440,3.33537706928265,-29,3.59756097560976,-59,1.76829268292683,1,-0.0609756097560976,-73,0.317391304347826,45,0.195652173913043,125,-0.609756097560976,
4968758,3007.8125,8128,-4.98344573881055,-12816,-7.85775597792765,-5456,3.34518700183936,-32,3.65853658536585,-60,1.95121951219512,-8,0.487804878048781,-70,0.304347826086957,43,0.18695652173913,126,-0.614634146341463,
4969398,3027.34375,8160,-5.00306560392397,-12800,-7.84794604537094,-5408,3.31575720416922,-28,3.84146341463415,-63,1.70731707317073,-13,0.792682926829268,-70,0.304347826086957,44,0.191304347826087,127,-0.619512195121951,
4970038,3046.875,8176,-5.01287553648069,-12768,-7.82832618025751,-5568,3.41385652973636,-29,3.90243902439024,-64,1.76829268292683,-14,0.853658536585366,-68,0.295652173913043,39,0.169565217391304,127,-0.619512195121951,
4970678,3066.40625,8192,-5.0226854690374,-12816,-7.85775597792765,-5504,3.3746167995095,-25,4.14634146341463,-68,1.52439024390244,-17,1.03658536585366,-69,0.3,41,0.178260869565217,126,-0.614634146341463,
4971318,3085.9375,8208,-5.03249540159411,-12816,-7.85775597792765,-5472,3.35499693439608,-29,4.14634146341463,-68,1.76829268292683,-20,1.21951219512195,-71,0.308695652173913,42,0.182608695652174,127,-0.619512195121951,
4971958,3105.46875,8112,-4.97363580625383,-12928,-7.92642550582465,-5440,3.33537706928265,-39,4.75609756097561,-78,2.37804878048781,-17,1.03658536585366,-70,0.304347826086957,42,0.182608695652174,126,-0.614634146341463,
4972598,3125,8096,-4.96382587369712,-12832,-7.86756591048437,-5520,3.38442673206622,-46,5,-82,2.80487804878049,-15,0.914634146341463,-71,0.308695652173913,42,0.182608695652174,127,-0.619512195121951,
4973238,3144.53125,8128,-4.98344573881055,-12800,-7.84794604537094,-5440,3.33537706928265,-51,5.0609756097561,-83,3.10975609756098,-18,1.09756097560976,-69,0.3,42,0.182608695652174,125,-0.609756097560976,
4973878,3164.0625,8128,-4.98344573881055,-12768,-7.82832618025751,-5440,3.33537706928265,-55,4.69512195121951,-77,3.35365853658537,-17,1.03658536585366,-70,0.304347826086957,42,0.182608695652174,127,-0.619512195121951,
4974518,3183.59375,8192,-5.0226854690374,-12768,-7.82832618025751,-5424,3.32556713672594,-63,4.51219512195122,-74,3.84146341463415,-20,1.21951219512195,-71,0.308695652173913,41,0.178260869565217,128,-0.624390243902439,
4975158,3203.125,8256,-5.06192519926425,-12752,-7.8185162477008,-5488,3.36480686695279,-67,4.51219512195122,-74,4.08536585365854,-23,1.40243902439024,-71,0.308695652173913,39,0.169565217391304,127,-0.619512195121951,
4975798,3222.65625,8208,-5.03249540159411,-12864,-7.88718577559779,-5488,3.36480686695279,-56,4.45121951219512,-73,3.41463414634146,-27,1.64634146341463,-70,0.304347826086957,38,0.165217391304348,127,-0.619512195121951,
4976438,3242.1875,8304,-5.0913549969344,-12864,-7.88718577559779,-5584,3.42366646229307,-41,4.57317073170732,-75,2.5,-29,1.76829268292683,-70,0.304347826086957,39,0.169565217391304,127,-0.619512195121951,
4977078,3261.71875,8288,-5.08154506437768,-12880,-7.89699570815451,-5424,3.32556713672594,-32,4.32926829268293,-71,1.95121951219512,-25,1.52439024390244,-74,0.321739130434783,43,0.18695652173913,127,-0.619512195121951,
4977718,3281.25,8272,-5.07173513182097,-12864,-7.88718577559779,-5376,3.29613733905579,-30,4.45121951219512,-73,1.82926829268293,-25,1.52439024390244,-72,0.31304347826087,43,0.18695652173913,128,-0.624390243902439,
4978358,3300.78125,8224,-5.04230533415083,-12832,-7.86756591048437,-5456,3.34518700183936,-24,4.14634146341463,-68,1.46341463414634,-26,1.58536585365854,-71,0.308695652173913,39,0.169565217391304,128,-0.624390243902439,
4978998,3320.3125,8192,-5.0226854690374,-12880,-7.89699570815451,-5488,3.36480686695279,-29,3.84146341463415,-63,1.76829268292683,-23,1.40243902439024,-71,0.308695652173913,40,0.173913043478261,129,-0.629268292682927,
4979638,3339.84375,8240,-5.05211526670754,-12864,-7.88718577559779,-5488,3.36480686695279,-34,3.84146341463415,-63,2.07317073170732,-21,1.28048780487805,-71,0.308695652173913,43,0.18695652173913,127,-0.619512195121951,
4980278,3359.375,8272,-5.07173513182097,-12896,-7.90680564071122,-5536,3.39423666462293,-28,3.65853658536585,-60,1.70731707317073,-16,0.975609756097561,-73,0.317391304347826,43,0.18695652173913,126,-0.614634146341463,
4980918,3378.90625,8256,-5.06192519926425,-12832,-7.86756591048437,-5488,3.36480686695279,-26,3.90243902439024,-64,1.58536585365854,-20,1.21951219512195,-71,0.308695652173913,40,0.173913043478261,128,-0.624390243902439,
4981558,3398.4375,8304,-5.0913549969344,-12784,-7.83813611281422,-5472,3.35499693439608,-25,3.59756097560976,-59,1.52439024390244,-16,0.975609756097561,-73,0.317391304347826,39,0.169565217391304,129,-0.629268292682927,
4982198,3417.96875,8336,-5.11097486204782,-12864,-7.88718577559779,-5440,3.33537706928265,-22,3.59756097560976,-59,1.34146341463415,-16,0.975609756097561,-70,0.304347826086957,40,0.173913043478261,127,-0.619512195121951,
4982838,3437.5,8336,-5.11097486204782,-12784,-7.83813611281422,-5520,3.38442673206622,-17,3.47560975609756,-57,1.03658536585366,-15,0.914634146341463,-70,0.304347826086957,40,0.173913043478261,127,-0.619512195121951,
4983478,3457.03125,8224,-5.04230533415083,-12768,-7.82832618025751,-5504,3.3746167995095,-15,3.71951219512195,-61,0.914634146341463,-14,0.853658536585366,-73,0.317391304347826,41,0.178260869565217,127,-0.619512195121951,
4984118,3476.5625,8256,-5.06192519926425,-12768,-7.82832618025751,-5440,3.33537706928265,-18,3.65853658536585,-60,1.09756097560976,-12,0.731707317073171,-71,0.308695652173913,45,0.195652173913043,128,-0.624390243902439,
4984758,3496.09375,8272,-5.07173513182097,-12720,-7.79889638258737,-5424,3.32556713672594,-10,3.59756097560976,-59,0.609756097560976,-12,0.731707317073171,-70,0.304347826086957,38,0.165217391304348,128,-0.624390243902439,
4985398,3515.625,8272,-5.07173513182097,-12736,-7.80870631514408,-5504,3.3746167995095,-11,3.59756097560976,-59,0.670731707317073,-10,0.609756097560976,-71,0.308695652173913,41,0.178260869565217,126,-0.614634146341463,
4986038,3535.15625,8352,-5.12078479460454,-12704,-7.78908645003066,-5488,3.36480686695279,-7,3.59756097560976,-59,0.426829268292683,-11,0.670731707317073,-71,0.308695652173913,40,0.173913043478261,129,-0.629268292682927,
4986678,3554.6875,8336,-5.11097486204782,-12720,-7.79889638258737,-5440,3.33537706928265,-12,3.90243902439024,-64,0.731707317073171,-12,0.731707317073171,-71,0.308695652173913,44,0.191304347826087,127,-0.619512195121951,
4987318,3574.21875,8320,-5.10116492949111,-12752,-7.8185162477008,-5440,3.33537706928265,-19,3.90243902439024,-64,1.15853658536585,-14,0.853658536585366,-70,0.304347826086957,40,0.173913043478261,129,-0.629268292682927,
4987958,3593.75,8240,-5.05211526670754,-12880,-7.89699570815451,-5376,3.29613733905579,-27,3.84146341463415,-63,1.64634146341463,-13,0.792682926829268,-72,0.31304347826087,42,0.182608695652174,126,-0.614634146341463,
4988598,3613.28125,8336,-5.11097486204782,-12800,-7.84794604537094,-5504,3.3746167995095,-33,3.84146341463415,-63,2.01219512195122,-12,0.731707317073171,-72,0.31304347826087,43,0.18695652173913,127,-0.619512195121951,
4989238,3632.8125,8336,-5.11097486204782,-12768,-7.82832618025751,-5584,3.42366646229307,-35,4.08536585365854,-67,2.13414634146341,-10,0.609756097560976,-71,0.308695652173913,41,0.178260869565217,128,-0.624390243902439,
4989878,3652.34375,8416,-5.16002452483139,-12752,-7.8185162477008,-5600,3.43347639484979,-28,4.14634146341463,-68,1.70731707317073,-6,0.365853658536585,-72,0.31304347826087,38,0.165217391304348,128,-0.624390243902439,
4990518,3671.875,8464,-5.18945432250153,-12640,-7.7498467198038,-5664,3.47271612507664,-22,4.26829268292683,-70,1.34146341463415,-9,0.548780487804878,-72,0.31304347826087,40,0.173913043478261,129,-0.629268292682927,
4991158,3691.40625,8448,-5.17964438994482,-12704,-7.78908645003066,-5584,3.42366646229307,-16,4.32926829268293,-71,0.975609756097561,-11,0.670731707317073,-71,0.308695652173913,38,0.165217391304348,127,-0.619512195121951,
4991798,3710.9375,8384,-5.14040465971796,-12768,-7.82832618025751,-5504,3.3746167995095,-11,4.26829268292683,-70,0.670731707317073,-13,0.792682926829268,-74,0.321739130434783,39,0.169565217391304,127,-0.619512195121951,
4992438,3730.46875,8272,-5.07173513182097,-12720,-7.79889638258737,-5456,3.34518700183936,-9,3.96341463414634,-65,0.548780487804878,-10,0.609756097560976,-75,0.326086956521739,41,0.178260869565217,129,-0.629268292682927,
4993078,3750,8288,-5.08154506437768,-12784,-7.83813611281422,-5536,3.39423666462293,-13,3.84146341463415,-63,0.792682926829268,-14,0.853658536585366,-73,0.317391304347826,42,0.182608695652174,128,-0.624390243902439,
4993718,3769.53125,8304,-5.0913549969344,-12848,-7.87737584304108,-5520,3.38442673206622,-11,3.65853658536585,-60,0.670731707317073,-13,0.792682926829268,-71,0.308695652173913,39,0.169565217391304,128,-0.624390243902439,
4994358,3789.0625,8384,-5.14040465971796,-12864,-7.88718577559779,-5520,3.38442673206622,-17,3.71951219512195,-61,1.03658536585366,-6,0.365853658536585,-72,0.31304347826087,41,0.178260869565217,128,-0.624390243902439,
4994998,3808.59375,8464,-5.18945432250153,-12896,-7.90680564071122,-5520,3.38442673206622,-6,3.41463414634146,-56,0.365853658536585,-4,0.24390243902439,-72,0.31304347826087,41,0.178260869565217,127,-0.619512195121951,
4995638,3828.125,8416,-5.16002452483139,-12848,-7.87737584304108,-5504,3.3746167995095,1,3.53658536585366,-58,-0.0609756097560976,-6,0.365853658536585,-71,0.308695652173913,41,0.178260869565217,128,-0.624390243902439,
4996278,3847.65625,8320,-5.10116492949111,-12736,-7.80870631514408,-5456,3.34518700183936,2,3.29268292682927,-54,-0.121951219512195,-3,0.182926829268293,-73,0.317391304347826,40,0.173913043478261,130,-0.634146341463415,
4996918,3867.1875,8256,-5.06192519926425,-12720,-7.79889638258737,-5360,3.28632740649908,-5,3.04878048780488,-50,0.304878048780488,-5,0.304878048780488,-73,0.317391304347826,38,0.165217391304348,128,-0.624390243902439,
4997558,3886.71875,8288,-5.08154506437768,-12704,-7.78908645003066,-5392,3.30594727161251,-12,2.80487804878049,-46,0.731707317073171,-7,0.426829268292683,-75,0.326086956521739,45,0.195652173913043,126,-0.614634146341463,
4998198,3906.25,8320,-5.10116492949111,-12736,-7.80870631514408,-5488,3.36480686695279,-15,2.92682926829268,-48,0.914634146341463,-7,0.426829268292683,-70,0.304347826086957,37,0.160869565217391,129,-0.629268292682927,
4998838,3925.78125,8352,-5.12078479460454,-12704,-7.78908645003066,-5536,3.39423666462293,-7,2.68292682926829,-44,0.426829268292683,-7,0.426829268292683,-73,0.317391304347826,40,0.173913043478261,129,-0.629268292682927,
4999478,3945.3125,8352,-5.12078479460454,-12672,-7.76946658491723,-5504,3.3746167995095,3,2.92682926829268,-48,-0.182926829268293,-9,0.548780487804878,-73,0.317391304347826,42,0.182608695652174,128,-0.624390243902439,
5000118,3964.84375,8400,-5.15021459227468,-12672,-7.76946658491723,-5504,3.3746167995095,7,2.98780487804878,-49,-0.426829268292683,-11,0.670731707317073,-71,0.308695652173913,39,0.169565217391304,128,-0.624390243902439,
5000758,3984.375,8336,-5.11097486204782,-12656,-7.75965665236051,-5360,3.28632740649908,2,2.80487804878049,-46,-0.121951219512195,-11,0.670731707317073,-72,0.31304347826087,39,0.169565217391304,128,-0.624390243902439,
5001398,4003.90625,8336,-5.11097486204782,-12688,-7.77927651747394,-5408,3.31575720416922,-5,2.68292682926829,-44,0.304878048780488,-11,0.670731707317073,-72,0.31304347826087,41,0.178260869565217,129,-0.629268292682927,
5002038,4023.4375,8368,-5.13059472716125,-12752,-7.8185162477008,-5456,3.34518700183936,-6,2.4390243902439,-40,0.365853658536585,-8,0.487804878048781,-74,0.321739130434783,43,0.18695652173913,127,-0.619512195121951,
5002678,4042.96875,8368,-5.13059472716125,-12768,-7.82832618025751,-5504,3.3746167995095,1,2.86585365853659,-47,-0.0609756097560976,-9,0.548780487804878,-72,0.31304347826087,38,0.165217391304348,130,-0.634146341463415,
5003318,4062.5,8368,-5.13059472716125,-12736,-7.80870631514408,-5408,3.31575720416922,2,2.74390243902439,-45,-0.121951219512195,-7,0.426829268292683,-72,0.31304347826087,40,0.173913043478261,129,-0.629268292682927,
5003958,4082.03125,8288,-5.08154506437768,-12752,-7.8185162477008,-5504,3.3746167995095,2,2.19512195121951,-36,-0.121951219512195,-7,0.426829268292683,-73,0.317391304347826,44,0.191304347826087,127,-0.619512195121951,
5004598,4101.5625,8288,-5.08154506437768,-12736,-7.80870631514408,-5472,3.35499693439608,5,2.19512195121951,-36,-0.304878048780488,-6,0.365853658536585,-71,0.308695652173913,40,0.173913043478261,128,-0.624390243902439,
5005238,4121.09375,8336,-5.11097486204782,-12736,-7.80870631514408,-5488,3.36480686695279,7,2.19512195121951,-36,-0.426829268292683,-9,0.548780487804878,-74,0.321739130434783,42,0.182608695652174,128,-0.624390243902439,
5005878,4140.625,8368,-5.13059472716125,-12688,-7.77927651747394,-5488,3.36480686695279,3,2.01219512195122,-33,-0.182926829268293,-12,0.731707317073171,-72,0.31304347826087,38,0.165217391304348,128,-0.624390243902439,
5006518,4160.15625,8384,-5.14040465971796,-12704,-7.78908645003066,-5536,3.39423666462293,4,2.13414634146341,-35,-0.24390243902439,-9,0.548780487804878,-71,0.308695652173913,38,0.165217391304348,128,-0.624390243902439,
5007158,4179.6875,8368,-5.13059472716125,-12736,-7.80870631514408,-5568,3.41385652973636,11,1.82926829268293,-30,-0.670731707317073,-6,0.365853658536585,-70,0.304347826086957,38,0.165217391304348,128,-0.624390243902439,
5007798,4199.21875,8352,-5.12078479460454,-12832,-7.86756591048437,-5584,3.42366646229307,16,2.37804878048781,-39,-0.975609756097561,-3,0.182926829268293,-74,0.321739130434783,41,0.178260869565217,128,-0.624390243902439,
5008438,4218.75,8320,-5.10116492949111,-12752,-7.8185162477008,-5504,3.3746167995095,19,2.5609756097561,-42,-1.15853658536585,-2,0.121951219512195,-72,0.31304347826087,41,0.178260869565217,128,-0.624390243902439,
5009078,4238.28125,8304,-5.0913549969344,-12784,-7.83813611281422,-5536,3.39423666462293,15,2.6219512195122,-43,-0.914634146341463,-6,0.365853658536585,-72,0.31304347826087,43,0.18695652173913,128,-0.624390243902439,
5009718,4257.8125,8336,-5.11097486204782,-12736,-7.80870631514408,-5456,3.34518700183936,14,2.5,-41,-0.853658536585366,-7,0.426829268292683,-71,0.308695652173913,43,0.18695652173913,128,-0.624390243902439,
5010358,4277.34375,8352,-5.12078479460454,-12704,-7.78908645003066,-5456,3.34518700183936,14,2.31707317073171,-38,-0.853658536585366,-7,0.426829268292683,-73,0.317391304347826,43,0.18695652173913,126,-0.614634146341463,
5010998,4296.875,8368,-5.13059472716125,-12736,-7.80870631514408,-5504,3.3746167995095,9,2.6219512195122,-43,-0.548780487804878,-10,0.609756097560976,-71,0.308695652173913,41,0.178260869565217,129,-0.629268292682927,
5011638,4316.40625,8368,-5.13059472716125,-12768,-7.82832618025751,-5520,3.38442673206622,4,2.80487804878049,-46,-0.24390243902439,-7,0.426829268292683,-73,0.317391304347826,43,0.18695652173913,127,-0.619512195121951,
5012278,4335.9375,8336,-5.11097486204782,-12752,-7.8185162477008,-5408,3.31575720416922,4,3.10975609756098,-51,-0.24390243902439,-8,0.487804878048781,-72,0.31304347826087,39,0.169565217391304,128,-0.624390243902439,
5012918,4355.46875,8336,-5.11097486204782,-12704,-7.78908645003066,-5472,3.35499693439608,1,2.80487804878049,-46,-0.0609756097560976,-8,0.487804878048781,-71,0.308695652173913,39,0.169565217391304,127,-0.619512195121951,
5013558,4375,8288,-5.08154506437768,-12704,-7.78908645003066,-5408,3.31575720416922,1,2.74390243902439,-45,-0.0609756097560976,-6,0.365853658536585,-71,0.308695652173913,38,0.165217391304348,129,-0.629268292682927,
5014198,4394.53125,8336,-5.11097486204782,-12752,-7.8185162477008,-5456,3.34518700183936,3,2.74390243902439,-45,-0.182926829268293,-4,0.24390243902439,-72,0.31304347826087,42,0.182608695652174,129,-0.629268292682927,
5014838,4414.0625,8384,-5.14040465971796,-12752,-7.8185162477008,-5488,3.36480686695279,8,2.68292682926829,-44,-0.487804878048781,-1,0.0609756097560976,-70,0.304347826086957,39,0.169565217391304,127,-0.619512195121951,
5015478,4433.59375,8368,-5.13059472716125,-12752,-7.8185162477008,-5520,3.38442673206622,17,2.5609756097561,-42,-1.03658536585366,-2,0.121951219512195,-71,0.308695652173913,37,0.160869565217391,129,-0.629268292682927,
5016118,4453.125,8384,-5.14040465971796,-12768,-7.82832618025751,-5600,3.43347639484979,21,2.37804878048781,-39,-1.28048780487805,-4,0.24390243902439,-73,0.317391304347826,41,0.178260869565217,128,-0.624390243902439,
5016758,4472.65625,8304,-5.0913549969344,-12720,-7.79889638258737,-5520,3.38442673206622,26,2.37804878048781,-39,-1.58536585365854,-3,0.182926829268293,-73,0.317391304347826,41,0.178260869565217,128,-0.624390243902439,
5017398,4492.1875,8304,-5.0913549969344,-12752,-7.8185162477008,-5440,3.33537706928265,20,2.19512195121951,-36,-1.21951219512195,-3,0.182926829268293,-71,0.308695652173913,39,0.169565217391304,129,-0.629268292682927,
5018038,4511.71875,8336,-5.11097486204782,-12768,-7.82832618025751,-5424,3.32556713672594,16,1.95121951219512,-32,-0.975609756097561,-2,0.121951219512195,-72,0.31304347826087,40,0.173913043478261,127,-0.619512195121951,
5018678,4531.25,8384,-5.14040465971796,-12896,-7.90680564071122,-5584,3.42366646229307,16,1.34146341463415,-22,-0.975609756097561,0,0,-71,0.308695652173913,42,0.182608695652174,127,-0.619512195121951,
5019318,4550.78125,8624,-5.28755364806867,-13664,-8.37768240343348,-6960,4.26732066217045,4,0.0609756097560976,-1,-0.24390243902439,-21,1.28048780487805,-70,0.304347826086957,42,0.182608695652174,128,-0.624390243902439,
5019958,4570.3125,8752,-5.36603310852238,-14544,-8.91722869405273,-9984,6.12139791538933,46,5.67073170731707,-93,-2.80487804878049,-14,0.853658536585366,-73,0.317391304347826,42,0.182608695652174,128,-0.624390243902439,
5020598,4589.84375,9472,-5.80748007357449,-15840,-9.71183323114654,-11808,7.23973022685469,270,17.3170731707317,-284,-16.4634146341463,-34,2.07317073170732,-74,0.321739130434783,43,0.18695652173913,126,-0.614634146341463,
5021238,4609.375,8656,-5.3071735131821,-17344,-10.6339668914776,-16432,10.0748007357449,124,36.3414634146341,-596,-7.5609756097561,-201,12.2560975609756,-71,0.308695652173913,40,0.173913043478261,128,-0.624390243902439,
5021878,4628.90625,10112,-6.19987737584304,-18304,-11.2225628448804,-19744,12.1054567749847,404,60.9756097560976,-1000,-24.6341463414634,-296,18.0487804878049,-70,0.304347826086957,37,0.160869565217391,130,-0.634146341463415,
5022518,4648.4375,12160,-7.45554874310239,-18528,-11.3599019006744,-23872,14.6364193746168,722,95.609756097561,-1568,-44.0243902439024,-462,28.1707317073171,-72,0.31304347826087,41,0.178260869565217,132,-0.64390243902439,
5023158,4667.96875,12640,-7.7498467198038,-18144,-11.1244635193133,-25744,15.7841814837523,173,130.609756097561,-2142,-10.5487804878049,-638,38.9024390243902,-75,0.326086956521739,37,0.160869565217391,134,-0.653658536585366,
5023798,4687.5,11024,-6.75904353157572,-12944,-7.93623543838136,-23040,14.1263028816677,-225,157.256097560976,-2579,13.719512195122,-509,31.0365853658537,-73,0.317391304347826,36,0.156521739130435,136,-0.663414634146342,
5024438,4707.03125,18032,-11.0557939914163,-7072,-4.33599019006744,-15264,9.35867565910484,996,131.829268292683,-2162,-60.7317073170732,-1121,68.3536585365854,-73,0.317391304347826,30,0.130434782608696,144,-0.702439024390244,
5025078,4726.5625,17504,-10.7320662170448,-8896,-5.4543225015328,-11936,7.3182096873084,3438,160.30487804878,-2629,-209.634146341463,-170,10.3658536585366,-75,0.326086956521739,32,0.139130434782609,144,-0.702439024390244,
5025718,4746.09375,8112,-4.97363580625383,-6592,-4.04169221336603,-13376,8.20110361741263,2304,146.219512195122,-2398,-140.487804878049,-533,32.5,-69,0.3,27,0.117391304347826,147,-0.717073170731707,
5026358,4765.625,7760,-4.75781729000613,-7952,-4.8755364806867,-14784,9.06437768240343,1882,167.439024390244,-2746,-114.756097560976,-631,38.4756097560976,-67,0.291304347826087,23,0.1,149,-0.726829268292683,
5026998,4785.15625,6016,-3.68853464132434,-7296,-4.47332924586143,-15424,9.45677498467198,1041,173.536585365854,-2846,-63.4756097560976,-819,49.9390243902439,-64,0.278260869565217,17,0.0739130434782609,154,-0.751219512195122,
5027638,4804.6875,8912,-5.46413243408952,-4112,-2.52115266707541,-14224,8.72103004291846,865,156.829268292683,-2572,-52.7439024390244,-735,44.8170731707317,-65,0.282608695652174,18,0.0782608695652174,156,-0.760975609756098,
5028278,4824.21875,13712,-8.40711220110362,-3440,-2.10913549969344,-13632,8.35806253832005,1645,143.048780487805,-2346,-100.30487804878,-492,30,-63,0.273913043478261,13,0.0565217391304348,158,-0.770731707317073,
5028918,4843.75,14608,-8.95646842427958,-5120,-3.13917841814837,-14816,9.08399754751686,2610,142.378048780488,-2335,-159.146341463415,-84,5.1219512195122,-58,0.252173913043478,9,0.0391304347826087,161,-0.785365853658537,
5029558,4863.28125,10688,-6.55303494788473,-6784,-4.1594114040466,-16208,9.93746167995095,2949,145.30487804878,-2383,-179.817073170732,295,-17.9878048780488,-50,0.217391304347826,4,0.0173913043478261,163,-0.795121951219512,
5030198,4882.8125,5648,-3.46290619251993,-7856,-4.81667688534641,-16320,10.0061312078479,2615,144.756097560976,-2374,-159.451219512195,567,-34.5731707317073,-45,0.195652173913043,-2,-0.00869565217391304,161,-0.785365853658537,
5030838,4902.34375,1968,-1.20662170447578,-8528,-5.22869405272839,-14832,9.09380748007357,1840,134.878048780488,-2212,-112.19512195122,855,-52.1341463414634,-37,0.160869565217391,-11,-0.0478260869565217,163,-0.795121951219512,
5031478,4921.875,1408,-0.863274064990803,-8672,-5.31698344573881,-13360,8.19129368485592,952,119.634146341463,-1962,-58.0487804878049,977,-59.5731707317073,-37,0.160869565217391,-9,-0.0391304347826087,161,-0.785365853658537,
5032118,4941.40625,3456,-2.11894543225015,-8816,-5.40527283874923,-11968,7.33782955242183,404,102.378048780488,-1679,-24.6341463414634,1096,-66.8292682926829,-35,0.152173913043478,-15,-0.0652173913043478,162,-0.790243902439024,
5032758,4960.9375,3936,-2.41324340895156,-9232,-5.66033108522379,-11136,6.82771305947272,11,86.3414634146341,-1416,-0.670731707317073,1126,-68.6585365853659,-33,0.143478260869565,-21,-0.091304347826087,163,-0.795121951219512,
5033398,4980.46875,3536,-2.16799509503372,-9488,-5.81729000613121,-10736,6.58246474555487,-469,71.4024390243902,-1171,28.5975609756098,1074,-65.4878048780488,-35,0.152173913043478,-24,-0.104347826086957,167,-0.814634146341463,
5034038,5000,4224,-2.58982219497241,-9104,-5.58185162477008,-9856,6.04291845493562,-645,57.6829268292683,-946,39.3292682926829,1029,-62.7439024390244,-32,0.139130434782609,-26,-0.11304347826087,166,-0.809756097560976,
5034678,5019.53125,5344,-3.27651747394237,-8496,-5.20907418761496,-9184,5.63090128755365,-304,46.219512195122,-758,18.5365853658537,1030,-62.8048780487805,-35,0.152173913043478,-30,-0.130434782608696,166,-0.809756097560976,
5035318,5039.0625,6144,-3.76701410177805,-8032,-4.92458614347026,-9136,5.60147148988351,271,37.9878048780488,-623,-16.5243902439024,1048,-63.9024390243902,-36,0.156521739130435,-30,-0.130434782608696,168,-0.819512195121951,
5035958,5058.59375,5536,-3.39423666462293,-7584,-4.64990803188228,-9072,5.56223175965665,745,31.7682926829268,-521,-45.4268292682927,1078,-65.7317073170732,-31,0.134782608695652,-34,-0.147826086956522,168,-0.819512195121951,
5036598,5078.125,4464,-2.73697118332311,-6720,-4.12017167381974,-8624,5.28755364806867,1003,23.5975609756098,-387,-61.1585365853659,1057,-64.4512195121951,-30,0.130434782608696,-38,-0.165217391304348,167,-0.814634146341463,
5037238,5097.65625,3808,-2.33476394849785,-6304,-3.86511342734519,-8496,5.20907418761496,1094,16.1585365853659,-265,-66.7073170731707,967,-58.9634146341463,-26,0.11304347826087,-41,-0.178260869565217,167,-0.814634146341463,
5037878,5117.1875,3664,-2.24647455548743,-6224,-3.81606376456162,-8880,5.44451256897609,1097,13.1707317073171,-216,-66.890243902439,843,-51.4024390243902,-26,0.11304347826087,-38,-0.165217391304348,165,-0.804878048780488,
5038518,5136.71875,3648,-2.23666462293072,-5536,-3.39423666462293,-9120,5.59166155732679,1173,11.8292682926829,-194,-71.5243902439024,695,-42.3780487804878,-26,0.11304347826087,-39,-0.169565217391304,162,-0.790243902439024,
5039158,5156.25,2704,-1.65787860208461,-4784,-2.93316983445739,-9712,5.9546290619252,1124,9.57317073170732,-157,-68.5365853658537,507,-30.9146341463415,-20,0.0869565217391304,-42,-0.182608695652174,161,-0.785365853658537,
5039798,5175.78125,1696,-1.03985285101165,-4016,-2.46229307173513,-10352,6.34702636419375,861,7.80487804878049,-128,-52.5,285,-17.3780487804878,-18,0.0782608695652174,-38,-0.165217391304348,158,-0.770731707317073,
5040438,5195.3125,1152,-0.706315144083384,-3552,-2.17780502759044,-11232,6.886572654813,656,5.36585365853659,-88,-40,111,-6.76829268292683,-15,0.0652173913043478,-41,-0.178260869565217,159,-0.775609756097561,
5041078,5214.84375,928,-0.568976088289393,-3120,-1.91293684855917,-11984,7.34763948497854,625,5.73170731707317,-94,-38.109756097561,13,-0.792682926829268,-17,0.0739130434782609,-37,-0.160869565217391,159,-0.775609756097561,
5041718,5234.375,800,-0.490496627835684,-2432,-1.49110974862048,-12240,7.50459840588596,701,5.0609756097561,-83,-42.7439024390244,-4,0.24390243902439,-16,0.0695652173913043,-41,-0.178260869565217,157,-0.765853658536585,
5042358,5253.90625,384,-0.235438381361128,-1936,-1.18700183936235,-13072,8.01471489883507,726,1.95121951219512,-32,-44.2682926829268,26,-1.58536585365854,-14,0.0608695652173913,-43,-0.18695652173913,156,-0.760975609756098,
5042998,5273.4375,-496,0.304107909258124,-2032,-1.24586143470264,-14144,8.67198038013489,557,-0.24390243902439,4,-33.9634146341463,57,-3.47560975609756,-12,0.0521739130434783,-43,-0.18695652173913,155,-0.75609756097561,
5043638,5292.96875,-1552,0.951563458001226,-2096,-1.28510116492949,-15184,9.30962599632127,287,-0.426829268292683,7,-17.5,67,-4.08536585365854,-9,0.0391304347826087,-45,-0.195652173913043,155,-0.75609756097561,
5044278,5312.5,-1344,0.824034334763949,-1904,-1.16738197424893,-15856,9.72164316370325,66,-2.4390243902439,40,-4.02439024390244,95,-5.79268292682927,-11,0.0478260869565217,-40,-0.173913043478261,155,-0.75609756097561,
5044918,5332.03125,-1216,0.745554874310239,-2000,-1.22624156958921,-16224,9.94727161250766,34,-4.26829268292683,70,-2.07317073170732,163,-9.9390243902439,-11,0.0478260869565217,-39,-0.169565217391304,154,-0.751219512195122,
5045558,5351.5625,-1264,0.77498467198038,-2320,-1.42244022072348,-16416,10.0649908031882,102,-4.63414634146342,76,-6.21951219512195,224,-13.6585365853659,-10,0.0434782608695652,-44,-0.191304347826087,155,-0.75609756097561,
5046198,5371.09375,-656,0.402207234825261,-2672,-1.63825873697118,-16384,10.0453709380748,241,-3.53658536585366,58,-14.6951219512195,246,-15,-8,0.0347826086956522,-45,-0.195652173913043,155,-0.75609756097561,
5046838,5390.625,-1296,0.794604537093807,-2768,-1.69711833231147,-16304,9.99632127529123,342,-2.25609756097561,37,-20.8536585365854,296,-18.0487804878049,-11,0.0478260869565217,-40,-0.173913043478261,154,-0.751219512195122,
5047478,5410.15625,-2032,1.24586143470264,-3008,-1.84426732066217,-16464,10.0944206008584,161,-2.31707317073171,38,-9.81707317073171,286,-17.4390243902439,-12,0.0521739130434783,-41,-0.178260869565217,153,-0.746341463414634,
5048118,5429.6875,-1696,1.03985285101165,-3312,-2.03065603923973,-16528,10.1336603310852,52,-1.09756097560976,18,-3.17073170731707,263,-16.0365853658537,-10,0.0434782608695652,-40,-0.173913043478261,152,-0.741463414634146,
5048758,5449.21875,-1472,0.902513795217658,-3296,-2.02084610668302,-16368,10.0355610055181,73,0.304878048780488,-5,-4.45121951219512,231,-14.0853658536585,-10,0.0434782608695652,-42,-0.182608695652174,151,-0.736585365853659,
5049398,5468.75,-1168,0.716125076640098,-3184,-1.95217657878602,-16336,10.0159411404047,192,1.03658536585366,-17,-11.7073170731707,220,-13.4146341463415,-12,0.0521739130434783,-41,-0.178260869565217,152,-0.741463414634146,
5050038,5488.28125,-1808,1.10852237890864,-3200,-1.96198651134273,-16048,9.83936235438381,323,2.01219512195122,-33,-19.6951219512195,214,-13.0487804878049,-7,0.0304347826086957,-47,-0.204347826086957,154,-0.751219512195122,
5050678,5507.8125,-2864,1.75597792765175,-2672,-1.63825873697118,-15504,9.50582464745555,350,2.80487804878049,-46,-21.3414634146341,201,-12.2560975609756,-7,0.0304347826086957,-47,-0.204347826086957,153,-0.746341463414634,
5051318,5527.34375,-2576,1.5793991416309,-2736,-1.67749846719804,-15616,9.57449417535254,309,3.47560975609756,-57,-18.8414634146341,167,-10.1829268292683,-7,0.0304347826086957,-43,-0.18695652173913,152,-0.741463414634146,
5051958,5546.875,-2912,1.78540772532189,-2672,-1.63825873697118,-15648,9.59411404046597,210,5.1219512195122,-84,-12.8048780487805,140,-8.53658536585366,-6,0.0260869565217391,-43,-0.18695652173913,150,-0.731707317073171,
5052598,5566.40625,-3184,1.95217657878602,-2464,-1.51072961373391,-15632,9.58430410790926,12,6.46341463414634,-106,-0.731707317073171,104,-6.34146341463415,-8,0.0347826086956522,-40,-0.173913043478261,150,-0.731707317073171,
5053238,5585.9375,-2496,1.53034947884733,-2304,-1.41263028816677,-15616,9.57449417535254,-61,7.98780487804878,-131,3.71951219512195,73,-4.45121951219512,-7,0.0304347826086957,-44,-0.191304347826087,152,-0.741463414634146,
5053878,5605.46875,-2112,1.2949110974862,-2208,-1.35377069282649,-15600,9.56468424279583,13,8.90243902439025,-146,-0.792682926829268,47,-2.86585365853659,-9,0.0391304347826087,-48,-0.208695652173913,151,-0.736585365853659,
5054518,5625,-2016,1.23605150214592,-2160,-1.32434089515635,-15440,9.46658491722869,67,8.47560975609756,-139,-4.08536585365854,15,-0.914634146341463,-5,0.0217391304347826,-48,-0.208695652173913,153,-0.746341463414634,
5055158,5644.53125,-2192,1.34396076026977,-1904,-1.16738197424893,-15184,9.30962599632127,120,7.5609756097561,-124,-7.31707317073171,-5,0.304878048780488,-6,0.0260869565217391,-46,-0.2,149,-0.726829268292683,
5055798,5664.0625,-2384,1.46167995095034,-1856,-1.13795217657879,-15280,9.36848559166156,139,6.03658536585366,-99,-8.47560975609756,11,-0.670731707317073,-4,0.0173913043478261,-47,-0.204347826086957,151,-0.736585365853659,
5056438,5683.59375,-2480,1.52053954629062,-1824,-1.11833231146536,-15392,9.43715511955855,162,5.48780487804878,-90,-9.87804878048781,44,-2.68292682926829,-6,0.0260869565217391,-47,-0.204347826086957,152,-0.741463414634146,
5057078,5703.125,-2464,1.51072961373391,-1808,-1.10852237890864,-15392,9.43715511955855,163,4.26829268292683,-70,-9.9390243902439,66,-4.02439024390244,-6,0.0260869565217391,-49,-0.21304347826087,152,-0.741463414634146,
5057718,5722.65625,-2096,1.28510116492949,-1856,-1.13795217657879,-15472,9.48620478234212,185,4.45121951219512,-73,-11.280487804878,69,-4.20731707317073,-4,0.0173913043478261,-48,-0.208695652173913,150,-0.731707317073171,
5058358,5742.1875,-1920,1.17719190680564,-1968,-1.20662170447578,-15728,9.64316370324954,234,4.75609756097561,-78,-14.2682926829268,53,-3.23170731707317,-4,0.0173913043478261,-45,-0.195652173913043,148,-0.721951219512195,
5058998,5761.71875,-2144,1.31453096259963,-1984,-1.2164316370325,-15760,9.66278356836297,209,5.48780487804878,-90,-12.7439024390244,20,-1.21951219512195,-3,0.0130434782608696,-47,-0.204347826086957,149,-0.726829268292683,
5059638,5781.25,-2272,1.39301042305334,-1872,-1.1477621091355,-15680,9.6137339055794,105,6.21951219512195,-102,-6.40243902439024,-19,1.15853658536585,-4,0.0173913043478261,-45,-0.195652173913043,149,-0.726829268292683,
5060278,5800.78125,-2160,1.32434089515635,-1856,-1.13795217657879,-15856,9.72164316370325,57,5.79268292682927,-95,-3.47560975609756,-32,1.95121951219512,-4,0.0173913043478261,-49,-0.21304347826087,150,-0.731707317073171,
5060918,5820.3125,-2064,1.26548129981606,-1888,-1.15757204169221,-15936,9.77069282648682,59,6.03658536585366,-99,-3.59756097560976,-28,1.70731707317073,-3,0.0130434782608696,-50,-0.217391304347826,150,-0.731707317073171,
5061558,5839.84375,-2288,1.40282035561006,-1696,-1.03985285101165,-16160,9.90803188228081,69,5.97560975609756,-98,-4.20731707317073,-27,1.64634146341463,-4,0.0173913043478261,-47,-0.204347826086957,149,-0.726829268292683,
5062198,5859.375,-2400,1.47148988350705,-1680,-1.03004291845494,-16080,9.85898221949724,6,5.54878048780488,-91,-0.365853658536585,-27,1.64634146341463,-3,0.0130434782608696,-48,-0.208695652173913,147,-0.717073170731707,
5062838,5878.90625,-2384,1.46167995095034,-1600,-0.980993255671367,-16112,9.87860208461067,-13,5.54878048780488,-91,0.792682926829268,-6,0.365853658536585,-2,0.00869565217391304,-50,-0.217391304347826,149,-0.726829268292683,
5063478,5898.4375,-2384,1.46167995095034,-1696,-1.03985285101165,-16272,9.9767014101778,2,5.0609756097561,-83,-0.121951219512195,17,-1.03658536585366,-2,0.00869565217391304,-49,-0.21304347826087,150,-0.731707317073171,
5064118,5917.96875,-2368,1.45187001839362,-1712,-1.04966278356836,-16224,9.94727161250766,9,5.36585365853659,-88,-0.548780487804878,35,-2.13414634146341,-1,0.00434782608695652,-47,-0.204347826086957,147,-0.717073170731707,
5064758,5937.5,-2208,1.35377069282649,-1488,-0.912323727774372,-16192,9.92765174739424,33,5.0609756097561,-83,-2.01219512195122,35,-2.13414634146341,-2,0.00869565217391304,-48,-0.208695652173913,149,-0.726829268292683,
5065398,5957.03125,-2240,1.37339055793991,-1536,-0.941753525444513,-16224,9.94727161250766,25,5.18292682926829,-85,-1.52439024390244,22,-1.34146341463415,-4,0.0173913043478261,-52,-0.226086956521739,149,-0.726829268292683,
5066038,5976.5625,-2416,1.48129981606376,-1568,-0.96137339055794,-16048,9.83936235438381,-4,5.67073170731707,-93,0.24390243902439,14,-0.853658536585366,-4,0.0173913043478261,-49,-0.21304347826087,147,-0.717073170731707,
5066678,5996.09375,-2256,1.38320049049663,-1600,-0.980993255671367,-15840,9.71183323114654,-59,5.60975609756098,-92,3.59756097560976,-8,0.487804878048781,-2,0.00869565217391304,-50,-0.217391304347826,148,-0.721951219512195,
5067318,6015.625,-1968,1.20662170447578,-1584,-0.971183323114654,-15920,9.7608828939301,-62,5.42682926829268,-89,3.78048780487805,-6,0.365853658536585,-2,0.00869565217391304,-46,-0.2,147,-0.717073170731707,
5067958,6035.15625,-1904,1.16738197424893,-1552,-0.951563458001226,-16016,9.81974248927039,4,4.75609756097561,-78,-0.24390243902439,-2,0.121951219512195,-3,0.0130434782608696,-47,-0.204347826086957,150,-0.731707317073171,
5068598,6054.6875,-1968,1.20662170447578,-1552,-0.951563458001226,-15984,9.80012262415696,53,4.57317073170732,-75,-3.23170731707317,2,-0.121951219512195,-3,0.0130434782608696,-45,-0.195652173913043,148,-0.721951219512195,
5069238,6074.21875,-2224,1.3635806253832,-1424,-0.873083997547517,-15904,9.75107296137339,57,4.32926829268293,-71,-3.47560975609756,1,-0.0609756097560976,-5,0.0217391304347826,-52,-0.226086956521739,149,-0.726829268292683,
5069878,6093.75,-2416,1.48129981606376,-1296,-0.794604537093807,-15856,9.72164316370325,-1,4.26829268292683,-70,0.0609756097560976,-7,0.426829268292683,-1,0.00434782608695652,-51,-0.221739130434783,149,-0.726829268292683,
5070518,6113.28125,-2240,1.37339055793991,-1280,-0.784794604537094,-16000,9.80993255671367,-26,3.84146341463415,-63,1.58536585365854,-1,0.0609756097560976,-2,0.00869565217391304,-49,-0.21304347826087,148,-0.721951219512195,
5071158,6132.8125,-2032,1.24586143470264,-1360,-0.833844267320662,-15904,9.75107296137339,3,3.90243902439024,-64,-0.182926829268293,-1,0.0609756097560976,-1,0.00434782608695652,-49,-0.21304347826087,148,-0.721951219512195,
5071798,6152.34375,-2096,1.28510116492949,-1424,-0.873083997547517,-15888,9.74126302881668,14,3.23170731707317,-53,-0.853658536585366,-7,0.426829268292683,-2,0.00869565217391304,-51,-0.221739130434783,149,-0.726829268292683,
5072438,6171.875,-1936,1.18700183936235,-1296,-0.794604537093807,-15920,9.7608828939301,5,3.17073170731707,-52,-0.304878048780488,-16,0.975609756097561,-4,0.0173913043478261,-52,-0.226086956521739,149,-0.726829268292683,
5073078,6191.40625,-1904,1.16738197424893,-1376,-0.843654199877376,-15984,9.80012262415696,35,2.98780487804878,-49,-2.13414634146341,-21,1.28048780487805,-1,0.00434782608695652,-50,-0.217391304347826,148,-0.721951219512195,
5073718,6210.9375,-2000,1.22624156958921,-1472,-0.902513795217658,-15952,9.78050275904353,48,3.17073170731707,-52,-2.92682926829268,-27,1.64634146341463,-1,0.00434782608695652,-52,-0.226086956521739,147,-0.717073170731707,
5074358,6230.46875,-2080,1.27529123237278,-1504,-0.922133660331085,-16032,9.8295524218271,39,3.17073170731707,-52,-2.37804878048781,-31,1.89024390243902,-3,0.0130434782608696,-47,-0.204347826086957,149,-0.726829268292683,
5074998,6250,-2000,1.22624156958921,-1568,-0.96137339055794,-16112,9.87860208461067,19,3.78048780487805,-62,-1.15853658536585,-39,2.37804878048781,-4,0.0173913043478261,-46,-0.2,147,-0.717073170731707,
5075638,6269.53125,-2096,1.28510116492949,-1520,-0.931943592887799,-16096,9.86879215205395,32,3.84146341463415,-63,-1.95121951219512,-46,2.80487804878049,0,0,-51,-0.221739130434783,148,-0.721951219512195,
5076278,6289.0625,-2272,1.39301042305334,-1520,-0.931943592887799,-16064,9.84917228694053,28,3.84146341463415,-63,-1.70731707317073,-51,3.10975609756098,-2,0.00869565217391304,-51,-0.221739130434783,150,-0.731707317073171,
5076918,6308.59375,-2432,1.49110974862048,-1472,-0.902513795217658,-16016,9.81974248927039,-12,3.84146341463415,-63,0.731707317073171,-66,4.02439024390244,-3,0.0130434782608696,-49,-0.21304347826087,148,-0.721951219512195,
5077558,6328.125,-2512,1.54015941140405,-1424,-0.873083997547517,-15904,9.75107296137339,-75,4.02439024390244,-66,4.57317073170732,-65,3.96341463414634,-2,0.00869565217391304,-47,-0.204347826086957,148,-0.721951219512195,
5078198,6347.65625,-2368,1.45187001839362,-1360,-0.833844267320662,-16032,9.8295524218271,-98,3.59756097560976,-59,5.97560975609756,-51,3.10975609756098,-1,0.00434782608695652,-50,-0.217391304347826,150,-0.731707317073171,
5078838,6367.1875,-2176,1.33415082771306,-1424,-0.873083997547517,-16144,9.89822194972409,-85,3.29268292682927,-54,5.18292682926829,-39,2.37804878048781,-3,0.0130434782608696,-48,-0.208695652173913,150,-0.731707317073171,
5079478,6386.71875,-2192,1.34396076026977,-1536,-0.941753525444513,-16064,9.84917228694053,-59,2.80487804878049,-46,3.59756097560976,-24,1.46341463414634,-4,0.0173913043478261,-46,-0.2,148,-0.721951219512195,
5080118,6406.25,-2240,1.37339055793991,-1536,-0.941753525444513,-16112,9.87860208461067,-25,2.4390243902439,-40,1.52439024390244,-10,0.609756097560976,-2,0.00869565217391304,-50,-0.217391304347826,149,-0.726829268292683,
5080758,6425.78125,-2304,1.41263028816677,-1552,-0.951563458001226,-16352,10.0257510729614,7,2.4390243902439,-40,-0.426829268292683,0,0,-3,0.0130434782608696,-50,-0.217391304347826,150,-0.731707317073171,
5081398,6445.3125,-2240,1.37339055793991,-1520,-0.931943592887799,-16368,10.0355610055181,13,2.4390243902439,-40,-0.792682926829268,-1,0.0609756097560976,-4,0.0173913043478261,-47,-0.204347826086957,149,-0.726829268292683,
5082038,6464.84375,-2224,1.3635806253832,-1648,-1.01042305334151,-16400,10.0551808706315,-7,2.74390243902439,-45,0.426829268292683,-5,0.304878048780488,-2,0.00869565217391304,-50,-0.217391304347826,148,-0.721951219512195,
5082678,6484.375,-2240,1.37339055793991,-1600,-0.980993255671367,-16336,10.0159411404047,-18,3.23170731707317,-53,1.09756097560976,-13,0.792682926829268,-5,0.0217391304347826,-49,-0.21304347826087,149,-0.726829268292683,
5083318,6503.90625,-2240,1.37339055793991,-1616,-0.990803188228081,-16352,10.0257510729614,-28,3.41463414634146,-56,1.70731707317073,-14,0.853658536585366,-4,0.0173913043478261,-47,-0.204347826086957,149,-0.726829268292683,
5083958,6523.4375,-2112,1.2949110974862,-1568,-0.96137339055794,-16288,9.98651134273452,-11,3.71951219512195,-61,0.670731707317073,-15,0.914634146341463,-4,0.0173913043478261,-48,-0.208695652173913,149,-0.726829268292683,
5084598,6542.96875,-2064,1.26548129981606,-1472,-0.902513795217658,-16144,9.89822194972409,15,3.96341463414634,-65,-0.914634146341463,-18,1.09756097560976,-6,0.0260869565217391,-47,-0.204347826086957,148,-0.721951219512195,
5085238,6562.5,-2112,1.2949110974862,-1424,-0.873083997547517,-16128,9.88841201716738,16,4.20731707317073,-69,-0.975609756097561,-21,1.28048780487805,-2,0.00869565217391304,-50,-0.217391304347826,150,-0.731707317073171,
5085878,6582.03125,-2224,1.3635806253832,-1392,-0.853464132434089,-15920,9.7608828939301,-5,3.90243902439024,-64,0.304878048780488,-25,1.52439024390244,-3,0.0130434782608696,-45,-0.195652173913043,148,-0.721951219512195,
5086518,6601.5625,-2128,1.30472103004292,-1424,-0.873083997547517,-16000,9.80993255671367,-25,3.59756097560976,-59,1.52439024390244,-27,1.64634146341463,-4,0.0173913043478261,-44,-0.191304347826087,148,-0.721951219512195,
5087158,6621.09375,-2000,1.22624156958921,-1504,-0.922133660331085,-15984,9.80012262415696,-36,3.23170731707317,-53,2.19512195121951,-23,1.40243902439024,-4,0.0173913043478261,-51,-0.221739130434783,150,-0.731707317073171,
5087798,6640.625,-2000,1.22624156958921,-1552,-0.951563458001226,-15936,9.77069282648682,-13,2.25609756097561,-37,0.792682926829268,-19,1.15853658536585,-3,0.0130434782608696,-50,-0.217391304347826,150,-0.731707317073171,
5088438,6660.15625,-1904,1.16738197424893,-1488,-0.912323727774372,-15920,9.7608828939301,29,2.07317073170732,-34,-1.76829268292683,-12,0.731707317073171,-2,0.00869565217391304,-51,-0.221739130434783,148,-0.721951219512195,
5089078,6679.6875,-2208,1.35377069282649,-1488,-0.912323727774372,-15888,9.74126302881668,50,1.95121951219512,-32,-3.04878048780488,-9,0.548780487804878,-1,0.00434782608695652,-46,-0.2,146,-0.712195121951219,
5089718,6699.21875,-2224,1.3635806253832,-1472,-0.902513795217658,-15968,9.79031269160024,16,2.6219512195122,-43,-0.975609756097561,-22,1.34146341463415,-3,0.0130434782608696,-46,-0.2,150,-0.731707317073171,
5090358,6718.75,-2192,1.34396076026977,-1472,-0.902513795217658,-16064,9.84917228694053,-25,2.4390243902439,-40,1.52439024390244,-28,1.70731707317073,-3,0.0130434782608696,-43,-0.18695652173913,148,-0.721951219512195,
5090998,6738.28125,-2304,1.41263028816677,-1376,-0.843654199877376,-15968,9.79031269160024,-35,2.37804878048781,-39,2.13414634146341,-33,2.01219512195122,-2,0.00869565217391304,-49,-0.21304347826087,148,-0.721951219512195,
5091638,6757.8125,-2256,1.38320049049663,-1504,-0.922133660331085,-16016,9.81974248927039,-22,2.19512195121951,-36,1.34146341463415,-25,1.52439024390244,-2,0.00869565217391304,-49,-0.21304347826087,150,-0.731707317073171,
5092278,6777.34375,-2368,1.45187001839362,-1584,-0.971183323114654,-16016,9.81974248927039,8,1.89024390243902,-31,-0.487804878048781,-9,0.548780487804878,-2,0.00869565217391304,-47,-0.204347826086957,147,-0.717073170731707,
5092918,6796.875,-2544,1.55977927651747,-1600,-0.980993255671367,-16080,9.85898221949724,11,1.95121951219512,-32,-0.670731707317073,-4,0.24390243902439,-1,0.00434782608695652,-48,-0.208695652173913,148,-0.721951219512195,
5093558,6816.40625,-2464,1.51072961373391,-1536,-0.941753525444513,-16112,9.87860208461067,-29,2.01219512195122,-33,1.76829268292683,0,0,-4,0.0173913043478261,-49,-0.21304347826087,149,-0.726829268292683,
5094198,6835.9375,-2416,1.48129981606376,-1520,-0.931943592887799,-16128,9.88841201716738,-47,1.46341463414634,-24,2.86585365853659,12,-0.731707317073171,-5,0.0217391304347826,-50,-0.217391304347826,149,-0.726829268292683,
5094838,6855.46875,-2176,1.33415082771306,-1552,-0.951563458001226,-16144,9.89822194972409,-11,1.21951219512195,-20,0.670731707317073,20,-1.21951219512195,-2,0.00869565217391304,-49,-0.21304347826087,149,-0.726829268292683,
5095478,6875,-2176,1.33415082771306,-1680,-1.03004291845494,-16208,9.93746167995095,27,1.52439024390244,-25,-1.64634146341463,19,-1.15853658536585,-3,0.0130434782608696,-50,-0.217391304347826,150,-0.731707317073171,
5096118,6894.53125,-2224,1.3635806253832,-1680,-1.03004291845494,-16208,9.93746167995095,11,1.58536585365854,-26,-0.670731707317073,18,-1.09756097560976,-3,0.0130434782608696,-47,-0.204347826086957,149,-0.726829268292683,
5096758,6914.0625,-2208,1.35377069282649,-1760,-1.0790925812385,-16256,9.96689147762109,-9,1.95121951219512,-32,0.548780487804878,17,-1.03658536585366,-1,0.00434782608695652,-51,-0.221739130434783,149,-0.726829268292683,
5097398,6933.59375,-2176,1.33415082771306,-1744,-1.06928264868179,-16208,9.93746167995095,-25,2.4390243902439,-40,1.52439024390244,12,-0.731707317073171,-4,0.0173913043478261,-41,-0.178260869565217,147,-0.717073170731707,
5098038,6953.125,-2064,1.26548129981606,-1744,-1.06928264868179,-16256,9.96689147762109,-30,2.5609756097561,-42,1.82926829268293,2,-0.121951219512195,-3,0.0130434782608696,-46,-0.2,150,-0.731707317073171,
5098678,6972.65625,-1936,1.18700183936235,-1680,-1.03004291845494,-16352,10.0257510729614,-1,2.6219512195122,-43,0.0609756097560976,-2,0.121951219512195,-3,0.0130434782608696,-48,-0.208695652173913,149,-0.726829268292683,
5099318,6992.1875,-1952,1.19681177191907,-1696,-1.03985285101165,-16224,9.94727161250766,16,3.04878048780488,-50,-0.975609756097561,-5,0.304878048780488,-2,0.00869565217391304,-49,-0.21304347826087,150,-0.731707317073171,
5099958,7011.71875,-2096,1.28510116492949,-1600,-0.980993255671367,-16256,9.96689147762109,17,3.35365853658537,-55,-1.03658536585366,-5,0.304878048780488,-4,0.0173913043478261,-45,-0.195652173913043,148,-0.721951219512195,
5100598,7031.25,-2000,1.22624156958921,-1616,-0.990803188228081,-16336,10.0159411404047,-2,3.41463414634146,-56,0.121951219512195,-5,0.304878048780488,-2,0.00869565217391304,-46,-0.2,147,-0.717073170731707,
5101238,7050.78125,-2032,1.24586143470264,-1552,-0.951563458001226,-16208,9.93746167995095,7,3.47560975609756,-57,-0.426829268292683,2,-0.121951219512195,-1,0.00434782608695652,-48,-0.208695652173913,149,-0.726829268292683,
5101878,7070.3125,-2160,1.32434089515635,-1536,-0.941753525444513,-16192,9.92765174739424,23,3.65853658536585,-60,-1.40243902439024,3,-0.182926829268293,-4,0.0173913043478261,-50,-0.217391304347826,149,-0.726829268292683,
5102518,7089.84375,-2224,1.3635806253832,-1504,-0.922133660331085,-16272,9.9767014101778,21,3.59756097560976,-59,-1.28048780487805,5,-0.304878048780488,-3,0.0130434782608696,-48,-0.208695652173913,149,-0.726829268292683,
5103158,7109.375,-2224,1.3635806253832,-1488,-0.912323727774372,-16176,9.91784181483752,13,3.65853658536585,-60,-0.792682926829268,-1,0.0609756097560976,-1,0.00434782608695652,-50,-0.217391304347826,149,-0.726829268292683,
5103798,7128.90625,-2224,1.3635806253832,-1504,-0.922133660331085,-16160,9.90803188228081,21,3.78048780487805,-62,-1.28048780487805,-1,0.0609756097560976,-6,0.0260869565217391,-42,-0.182608695652174,146,-0.712195121951219,
5104438,7148.4375,-2304,1.41263028816677,-1552,-0.951563458001226,-16192,9.92765174739424,5,4.08536585365854,-67,-0.304878048780488,0,0,-4,0.0173913043478261,-47,-0.204347826086957,148,-0.721951219512195,
5105078,7167.96875,-2256,1.38320049049663,-1456,-0.892703862660944,-16080,9.85898221949724,-23,4.26829268292683,-70,1.40243902439024,0,0,-3,0.0130434782608696,-47,-0.204347826086957,149,-0.726829268292683,
5105718,7187.5,-2240,1.37339055793991,-1472,-0.902513795217658,-16032,9.8295524218271,-30,4.02439024390244,-66,1.82926829268293,1,-0.0609756097560976,-3,0.0130434782608696,-50,-0.217391304347826,149,-0.726829268292683,
5106358,7207.03125,-2192,1.34396076026977,-1376,-0.843654199877376,-15984,9.80012262415696,-28,3.47560975609756,-57,1.70731707317073,7,-0.426829268292683,-2,0.00869565217391304,-50,-0.217391304347826,151,-0.736585365853659,
5106998,7226.5625,-2128,1.30472103004292,-1488,-0.912323727774372,-15888,9.74126302881668,3,2.86585365853659,-47,-0.182926829268293,21,-1.28048780487805,-2,0.00869565217391304,-46,-0.2,148,-0.721951219512195,
5107638,7246.09375,-2224,1.3635806253832,-1472,-0.902513795217658,-15856,9.72164316370325,17,2.74390243902439,-45,-1.03658536585366,26,-1.58536585365854,-2,0.00869565217391304,-47,-0.204347826086957,148,-0.721951219512195,
5108278,7265.625,-2144,1.31453096259963,-1488,-0.912323727774372,-15808,9.69221336603311,3,2.25609756097561,-37,-0.182926829268293,28,-1.70731707317073,-4,0.0173913043478261,-50,-0.217391304347826,150,-0.731707317073171,
5108918,7285.15625,-2112,1.2949110974862,-1344,-0.824034334763949,-15888,9.74126302881668,5,2.01219512195122,-33,-0.304878048780488,25,-1.52439024390244,-3,0.0130434782608696,-48,-0.208695652173913,149,-0.726829268292683,
5109558,7304.6875,-2064,1.26548129981606,-1424,-0.873083997547517,-15920,9.7608828939301,8,1.21951219512195,-20,-0.487804878048781,21,-1.28048780487805,-1,0.00434782608695652,-50,-0.217391304347826,149,-0.726829268292683,
5110198,7324.21875,-2128,1.30472103004292,-1504,-0.922133660331085,-16064,9.84917228694053,-11,1.21951219512195,-20,0.670731707317073,20,-1.21951219512195,-5,0.0217391304347826,-45,-0.195652173913043,148,-0.721951219512195,
5110838,7343.75,-2000,1.22624156958921,-1488,-0.912323727774372,-16080,9.85898221949724,-18,1.64634146341463,-27,1.09756097560976,15,-0.914634146341463,-4,0.0173913043478261,-48,-0.208695652173913,149,-0.726829268292683,
5111478,7363.28125,-1968,1.20662170447578,-1424,-0.873083997547517,-16032,9.8295524218271,-12,1.70731707317073,-28,0.731707317073171,7,-0.426829268292683,-4,0.0173913043478261,-47,-0.204347826086957,149,-0.726829268292683,
5112118,7382.8125,-2000,1.22624156958921,-1440,-0.88289393010423,-16048,9.83936235438381,-18,1.76829268292683,-29,1.09756097560976,-4,0.24390243902439,-2,0.00869565217391304,-50,-0.217391304347826,148,-0.721951219512195,
5112758,7402.34375,-1920,1.17719190680564,-1520,-0.931943592887799,-16128,9.88841201716738,-11,1.82926829268293,-30,0.670731707317073,-4,0.24390243902439,-3,0.0130434782608696,-46,-0.2,149,-0.726829268292683,
5113398,7421.875,-1920,1.17719190680564,-1648,-1.01042305334151,-16240,9.95708154506438,17,1.28048780487805,-21,-1.03658536585366,1,-0.0609756097560976,-3,0.0130434782608696,-49,-0.21304347826087,148,-0.721951219512195,
5114038,7441.40625,-2096,1.28510116492949,-1696,-1.03985285101165,-16176,9.91784181483752,44,1.34146341463415,-22,-2.68292682926829,5,-0.304878048780488,-5,0.0217391304347826,-45,-0.195652173913043,147,-0.717073170731707,
5114678,7460.9375,-2336,1.4322501532802,-1696,-1.03985285101165,-16128,9.88841201716738,10,1.52439024390244,-25,-0.609756097560976,9,-0.548780487804878,-2,0.00869565217391304,-44,-0.191304347826087,145,-0.707317073170732,
5115318,7480.46875,-2288,1.40282035561006,-1712,-1.04966278356836,-16256,9.96689147762109,-31,1.76829268292683,-29,1.89024390243902,9,-0.548780487804878,-4,0.0173913043478261,-50,-0.217391304347826,149,-0.726829268292683,
5115958,7500,-2128,1.30472103004292,-1696,-1.03985285101165,-16400,10.0551808706315,-21,2.13414634146341,-35,1.28048780487805,16,-0.975609756097561,-1,0.00434782608695652,-48,-0.208695652173913,148,-0.721951219512195,
5116598,7519.53125,-2176,1.33415082771306,-1664,-1.02023298589822,-16368,10.0355610055181,16,2.37804878048781,-39,-0.975609756097561,18,-1.09756097560976,-2,0.00869565217391304,-49,-0.21304347826087,149,-0.726829268292683,
5117238,7539.0625,-2240,1.37339055793991,-1712,-1.04966278356836,-16288,9.98651134273452,20,2.74390243902439,-45,-1.21951219512195,12,-0.731707317073171,-4,0.0173913043478261,-50,-0.217391304347826,148,-0.721951219512195,
5117878,7558.59375,-2352,1.44206008583691,-1664,-1.02023298589822,-16304,9.99632127529123,-8,3.35365853658537,-55,0.487804878048781,6,-0.365853658536585,-3,0.0130434782608696,-48,-0.208695652173913,148,-0.721951219512195,
5118518,7578.125,-2320,1.42244022072348,-1680,-1.03004291845494,-16368,10.0355610055181,-39,3.59756097560976,-59,2.37804878048781,-3,0.182926829268293,-2,0.00869565217391304,-51,-0.221739130434783,148,-0.721951219512195,
5119158,7597.65625,-2144,1.31453096259963,-1632,-1.00061312078479,-16272,9.9767014101778,-48,4.20731707317073,-69,2.92682926829268,-1,0.0609756097560976,-2,0.00869565217391304,-52,-0.226086956521739,151,-0.736585365853659,
5119798,7617.1875,-2112,1.2949110974862,-1616,-0.990803188228081,-16144,9.89822194972409,-17,4.02439024390244,-66,1.03658536585366,6,-0.365853658536585,-3,0.0130434782608696,-49,-0.21304347826087,150,-0.731707317073171,
5120438,7636.71875,-2080,1.27529123237278,-1616,-0.990803188228081,-16016,9.81974248927039,2,3.84146341463415,-63,-0.121951219512195,7,-0.426829268292683,-3,0.0130434782608696,-48,-0.208695652173913,150,-0.731707317073171,
5121078,7656.25,-2240,1.37339055793991,-1616,-0.990803188228081,-15952,9.78050275904353,15,3.78048780487805,-62,-0.914634146341463,6,-0.365853658536585,-2,0.00869565217391304,-51,-0.221739130434783,149,-0.726829268292683,
5121718,7675.78125,-2208,1.35377069282649,-1584,-0.971183323114654,-15920,9.7608828939301,-16,3.65853658536585,-60,0.975609756097561,2,-0.121951219512195,-2,0.00869565217391304,-45,-0.195652173913043,147,-0.717073170731707,
5122358,7695.3125,-2128,1.30472103004292,-1552,-0.951563458001226,-15936,9.77069282648682,-34,3.47560975609756,-57,2.07317073170732,4,-0.24390243902439,-1,0.00434782608695652,-47,-0.204347826086957,148,-0.721951219512195,
5122998,7714.84375,-1952,1.19681177191907,-1520,-0.931943592887799,-15872,9.73145309625996,-26,3.23170731707317,-53,1.58536585365854,6,-0.365853658536585,-4,0.0173913043478261,-47,-0.204347826086957,148,-0.721951219512195,
5123638,7734.375,-1936,1.18700183936235,-1584,-0.971183323114654,-15872,9.73145309625996,-5,2.6219512195122,-43,0.304878048780488,9,-0.548780487804878,-5,0.0217391304347826,-51,-0.221739130434783,149,-0.726829268292683,
5124278,7753.90625,-2064,1.26548129981606,-1552,-0.951563458001226,-15888,9.74126302881668,13,2.4390243902439,-40,-0.792682926829268,10,-0.609756097560976,-4,0.0173913043478261,-51,-0.221739130434783,149,-0.726829268292683,
5124918,7773.4375,-2128,1.30472103004292,-1456,-0.892703862660944,-15840,9.71183323114654,-16,2.37804878048781,-39,0.975609756097561,4,-0.24390243902439,-1,0.00434782608695652,-51,-0.221739130434783,149,-0.726829268292683,
5125558,7792.96875,-1952,1.19681177191907,-1536,-0.941753525444513,-15824,9.70202329858982,-27,2.07317073170732,-34,1.64634146341463,3,-0.182926829268293,-5,0.0217391304347826,-50,-0.217391304347826,148,-0.721951219512195,
5126198,7812.5,-1904,1.16738197424893,-1600,-0.980993255671367,-15760,9.66278356836297,9,1.52439024390244,-25,-0.548780487804878,6,-0.365853658536585,-3,0.0130434782608696,-48,-0.208695652173913,149,-0.726829268292683,
5126838,7832.03125,-1744,1.06928264868179,-1488,-0.912323727774372,-15680,9.6137339055794,43,0.792682926829268,-13,-2.6219512195122,7,-0.426829268292683,-4,0.0173913043478261,-46,-0.2,147,-0.717073170731707,
5127478,7851.5625,-1952,1.19681177191907,-1552,-0.951563458001226,-15776,9.67259350091968,118,-0.182926829268293,3,-7.19512195121951,12,-0.731707317073171,-3,0.0130434782608696,-51,-0.221739130434783,148,-0.721951219512195,
5128118,7871.09375,-2176,1.33415082771306,-1616,-0.990803188228081,-15664,9.60392397302268,119,-0.731707317073171,12,-7.25609756097561,4,-0.24390243902439,-3,0.0130434782608696,-46,-0.2,149,-0.726829268292683,
5128758,7890.625,-2400,1.47148988350705,-1600,-0.980993255671367,-15824,9.70202329858982,76,-0.548780487804878,9,-4.63414634146342,-1,0.0609756097560976,-3,0.0130434782608696,-47,-0.204347826086957,148,-0.721951219512195,
5129398,7910.15625,-2496,1.53034947884733,-1680,-1.03004291845494,-16176,9.91784181483752,12,-0.365853658536585,6,-0.731707317073171,-12,0.731707317073171,-2,0.00869565217391304,-47,-0.204347826086957,148,-0.721951219512195,
5130038,7929.6875,-2416,1.48129981606376,-1648,-1.01042305334151,-16272,9.9767014101778,-54,0.121951219512195,-2,3.29268292682927,-14,0.853658536585366,-2,0.00869565217391304,-49,-0.21304347826087,148,-0.721951219512195,
5130678,7949.21875,-2400,1.47148988350705,-1696,-1.03985285101165,-16288,9.98651134273452,-66,0.426829268292683,-7,4.02439024390244,-12,0.731707317073171,-6,0.0260869565217391,-50,-0.217391304347826,149,-0.726829268292683,
5131318,7968.75,-2368,1.45187001839362,-1696,-1.03985285101165,-16528,10.1336603310852,-45,0.548780487804878,-9,2.74390243902439,-5,0.304878048780488,-4,0.0173913043478261,-42,-0.182608695652174,149,-0.726829268292683,
5131958,7988.28125,-2320,1.42244022072348,-1760,-1.0790925812385,-16592,10.1729000613121,-8,0.731707317073171,-12,0.487804878048781,11,-0.670731707317073,-2,0.00869565217391304,-48,-0.208695652173913,148,-0.721951219512195,
5132598,8007.8125,-2432,1.49110974862048,-1872,-1.1477621091355,-16576,10.1630901287554,34,1.03658536585366,-17,-2.07317073170732,22,-1.34146341463415,-3,0.0130434782608696,-50,-0.217391304347826,150,-0.731707317073171,
5133238,8027.34375,-2528,1.54996934396076,-1872,-1.1477621091355,-16560,10.1532801961987,9,1.58536585365854,-26,-0.548780487804878,20,-1.21951219512195,-3,0.0130434782608696,-49,-0.21304347826087,149,-0.726829268292683,
5133878,8046.875,-2384,1.46167995095034,-1920,-1.17719190680564,-16464,10.0944206008584,-32,2.5609756097561,-42,1.95121951219512,16,-0.975609756097561,-1,0.00434782608695652,-50,-0.217391304347826,149,-0.726829268292683,
5134518,8066.40625,-2240,1.37339055793991,-1920,-1.17719190680564,-16464,10.0944206008584,-36,3.04878048780488,-50,2.19512195121951,15,-0.914634146341463,-4,0.0173913043478261,-41,-0.178260869565217,148,-0.721951219512195,
5135158,8085.9375,-2160,1.32434089515635,-1856,-1.13795217657879,-16288,9.98651134273452,-18,3.65853658536585,-60,1.09756097560976,10,-0.609756097560976,-4,0.0173913043478261,-46,-0.2,150,-0.731707317073171,
5135798,8105.46875,-2096,1.28510116492949,-1808,-1.10852237890864,-16240,9.95708154506438,-8,3.78048780487805,-62,0.487804878048781,16,-0.975609756097561,-2,0.00869565217391304,-51,-0.221739130434783,150,-0.731707317073171,
5136438,8125,-2160,1.32434089515635,-1872,-1.1477621091355,-16080,9.85898221949724,5,3.53658536585366,-58,-0.304878048780488,18,-1.09756097560976,-4,0.0173913043478261,-44,-0.191304347826087,148,-0.721951219512195,
5137078,8144.53125,-2288,1.40282035561006,-1712,-1.04966278356836,-15952,9.78050275904353,7,3.65853658536585,-60,-0.426829268292683,19,-1.15853658536585,-3,0.0130434782608696,-48,-0.208695652173913,147,-0.717073170731707,
5137718,8164.0625,-2080,1.27529123237278,-1744,-1.06928264868179,-15888,9.74126302881668,-25,3.53658536585366,-58,1.52439024390244,21,-1.28048780487805,-4,0.0173913043478261,-46,-0.2,147,-0.717073170731707,
5138358,8183.59375,-2016,1.23605150214592,-1744,-1.06928264868179,-15744,9.65297363580625,-23,3.53658536585366,-58,1.40243902439024,21,-1.28048780487805,-3,0.0130434782608696,-45,-0.195652173913043,146,-0.712195121951219,
5138998,8203.125,-2080,1.27529123237278,-1712,-1.04966278356836,-15712,9.63335377069283,-11,2.92682926829268,-48,0.670731707317073,15,-0.914634146341463,-5,0.0217391304347826,-45,-0.195652173913043,147,-0.717073170731707,
5139638,8222.65625,-2080,1.27529123237278,-1728,-1.05947271612508,-15824,9.70202329858982,-15,2.4390243902439,-40,0.914634146341463,7,-0.426829268292683,-5,0.0217391304347826,-43,-0.18695652173913,148,-0.721951219512195,
5140278,8242.1875,-2112,1.2949110974862,-1632,-1.00061312078479,-15888,9.74126302881668,-20,2.01219512195122,-33,1.21951219512195,2,-0.121951219512195,-5,0.0217391304347826,-44,-0.191304347826087,148,-0.721951219512195,
5140918,8261.71875,-2128,1.30472103004292,-1712,-1.04966278356836,-16016,9.81974248927039,-10,1.46341463414634,-24,0.609756097560976,3,-0.182926829268293,-4,0.0173913043478261,-47,-0.204347826086957,147,-0.717073170731707,
5141558,8281.25,-2128,1.30472103004292,-1840,-1.12814224402207,-16256,9.96689147762109,3,1.28048780487805,-21,-0.182926829268293,8,-0.487804878048781,-3,0.0130434782608696,-47,-0.204347826086957,146,-0.712195121951219,
5142198,8300.78125,-2240,1.37339055793991,-1872,-1.1477621091355,-16304,9.99632127529123,-17,1.82926829268293,-30,1.03658536585366,14,-0.853658536585366,-2,0.00869565217391304,-51,-0.221739130434783,148,-0.721951219512195,
5142838,8320.3125,-2128,1.30472103004292,-1824,-1.11833231146536,-16368,10.0355610055181,-45,2.25609756097561,-37,2.74390243902439,7,-0.426829268292683,-5,0.0217391304347826,-42,-0.182608695652174,147,-0.717073170731707,
5143478,8339.84375,-2128,1.30472103004292,-1808,-1.10852237890864,-16544,10.1434702636419,-58,2.98780487804878,-49,3.53658536585366,2,-0.121951219512195,-4,0.0173913043478261,-46,-0.2,148,-0.721951219512195,
5144118,8359.375,688,-0.421827099938688,5184,3.17841814837523,-18576,11.3893316983446,-18,0.426829268292683,-7,1.09756097560976,11,-0.670731707317073,-2,0.00869565217391304,-47,-0.204347826086957,147,-0.717073170731707,
5144758,8378.90625,-3872,2.37400367872471,3184,1.95217657878602,-15696,9.62354383813611,2331,-21.5853658536585,354,-142.134146341463,-518,31.5853658536585,1,-0.00434782608695652,-41,-0.178260869565217,144,-0.702439024390244,
5145398,8398.4375,-8352,5.12078479460454,-2352,-1.44206008583691,-16080,9.85898221949724,1842,-7.80487804878049,128,-112.317073170732,228,-13.9024390243902,6,-0.0260869565217391,-47,-0.204347826086957,143,-0.697560975609756,
5146038,8417.96875,-6112,3.74739423666462,-1040,-0.637645616186389,-15968,9.79031269160024,436,8.53658536585366,-140,-26.5853658536585,81,-4.9390243902439,2,-0.00869565217391304,-44,-0.191304347826087,139,-0.678048780487805,
5146678,8437.5,-6736,4.12998160637646,-1344,-0.824034334763949,-16304,9.99632127529123,-173,5.48780487804878,-90,10.5487804878049,127,-7.74390243902439,5,-0.0217391304347826,-44,-0.191304347826087,141,-0.68780487804878,
5147318,8457.03125,-5952,3.64929491109749,-752,-0.461066830165543,-17408,10.6732066217045,-906,4.63414634146342,-76,55.2439024390244,115,-7.01219512195122,2,-0.00869565217391304,-45,-0.195652173913043,141,-0.68780487804878,
5147958,8476.5625,-3120,1.91293684855917,-2384,-1.46167995095034,-17680,10.8399754751686,-1498,6.70731707317073,-110,91.3414634146341,115,-7.01219512195122,-1,0.00434782608695652,-48,-0.208695652173913,144,-0.702439024390244,
5148598,8496.09375,-1280,0.784794604537094,-4512,-2.76640098099326,-17376,10.653586756591,-1333,-6.64634146341464,109,81.280487804878,131,-7.98780487804878,-1,0.00434782608695652,-48,-0.208695652173913,146,-0.712195121951219,
5149238,8515.625,-464,0.284488044144696,-2432,-1.49110974862048,-17648,10.8203556100552,-873,7.07317073170732,-116,53.2317073170732,-32,1.95121951219512,-6,0.0260869565217391,-43,-0.18695652173913,148,-0.721951219512195,
5149878,8535.15625,-1024,0.627835683629675,-2288,-1.40282035561006,-17280,10.5947271612508,-252,6.03658536585366,-99,15.3658536585366,25,-1.52439024390244,-5,0.0217391304347826,-46,-0.2,149,-0.726829268292683,
5150518,8554.6875,-1472,0.902513795217658,-2176,-1.33415082771306,-16944,10.3887185775598,70,6.95121951219512,-114,-4.26829268292683,46,-2.80487804878049,-4,0.0173913043478261,-47,-0.204347826086957,149,-0.726829268292683,
5151158,8574.21875,-2224,1.3635806253832,-2160,-1.32434089515635,-16720,10.2513795217658,176,7.31707317073171,-120,-10.7317073170732,27,-1.64634146341463,-4,0.0173913043478261,-42,-0.182608695652174,148,-0.721951219512195,
5151798,8593.75,-2288,1.40282035561006,-2144,-1.31453096259963,-16400,10.0551808706315,85,8.23170731707317,-135,-5.18292682926829,11,-0.670731707317073,-2,0.00869565217391304,-48,-0.208695652173913,149,-0.726829268292683,
5152438,8613.28125,-2192,1.34396076026977,-2016,-1.23605150214592,-16224,9.94727161250766,-12,9.75609756097561,-160,0.731707317073171,6,-0.365853658536585,-2,0.00869565217391304,-48,-0.208695652173913,147,-0.717073170731707,
5153078,8632.8125,-2016,1.23605150214592,-1984,-1.2164316370325,-16032,9.8295524218271,-44,9.9390243902439,-163,2.68292682926829,-3,0.182926829268293,-4,0.0173913043478261,-47,-0.204347826086957,146,-0.712195121951219,
5153718,8652.34375,-1856,1.13795217657879,-1920,-1.17719190680564,-15936,9.77069282648682,-43,9.14634146341463,-150,2.6219512195122,-8,0.487804878048781,-2,0.00869565217391304,-46,-0.2,150,-0.731707317073171,
5154358,8671.875,-1856,1.13795217657879,-1856,-1.13795217657879,-15744,9.65297363580625,12,8.59756097560976,-141,-0.731707317073171,-12,0.731707317073171,-5,0.0217391304347826,-47,-0.204347826086957,149,-0.726829268292683,
5154998,8691.40625,-2112,1.2949110974862,-1888,-1.15757204169221,-15680,9.6137339055794,41,8.17073170731707,-134,-2.5,-14,0.853658536585366,-5,0.0217391304347826,-44,-0.191304347826087,148,-0.721951219512195,
5155638,8710.9375,-2128,1.30472103004292,-1696,-1.03985285101165,-15776,9.67259350091968,9,7.86585365853659,-129,-0.548780487804878,-21,1.28048780487805,-2,0.00869565217391304,-49,-0.21304347826087,148,-0.721951219512195,
5156278,8730.46875,-2080,1.27529123237278,-1696,-1.03985285101165,-15776,9.67259350091968,-29,7.92682926829268,-130,1.76829268292683,-29,1.76829268292683,-3,0.0130434782608696,-51,-0.221739130434783,149,-0.726829268292683,
5156918,8750,-2064,1.26548129981606,-1744,-1.06928264868179,-15760,9.66278356836297,-40,7.86585365853659,-129,2.4390243902439,-33,2.01219512195122,-4,0.0173913043478261,-46,-0.2,148,-0.721951219512195,
5157558,8769.53125,6016,-3.68853464132434,9392,5.75843041079093,-22320,13.6848559166156,-31,7.31707317073171,-120,1.89024390243902,-39,2.37804878048781,-1,0.00434782608695652,-49,-0.21304347826087,149,-0.726829268292683,
5158198,8789.0625,-3168,1.94236664622931,656,0.402207234825261,-15136,9.28019619865113,1455,-85.9146341463415,1409,-88.719512195122,-926,56.4634146341463,0,0,-48,-0.208695652173913,148,-0.721951219512195,
5158838,8808.59375,-5888,3.61005518087063,-736,-0.451256897608829,-15920,9.7608828939301,658,-1.40243902439024,23,-40.1219512195122,108,-6.58536585365854,1,-0.00434782608695652,-45,-0.195652173913043,146,-0.712195121951219,
5159478,8828.125,-3936,2.41324340895156,-1664,-1.02023298589822,-15248,9.34886572654813,-209,12.6219512195122,-207,12.7439024390244,131,-7.98780487804878,0,0,-48,-0.208695652173913,145,-0.707317073170732,
5160118,8847.65625,-3904,2.39362354383814,-784,-0.48068669527897,-16064,9.84917228694053,-352,10.9756097560976,-180,21.4634146341463,102,-6.21951219512195,1,-0.00434782608695652,-50,-0.217391304347826,148,-0.721951219512195,
5160758,8867.1875,-2336,1.4322501532802,-992,-0.608215818516248,-16960,10.3985285101165,-552,11.219512195122,-184,33.6585365853659,89,-5.42682926829268,0,0,-48,-0.208695652173913,148,-0.721951219512195,
5161398,8886.71875,-2400,1.47148988350705,-1184,-0.725935009196812,-17552,10.7614960147149,-472,8.84146341463415,-145,28.7804878048781,75,-4.57317073170732,-4,0.0173913043478261,-47,-0.204347826086957,147,-0.717073170731707,
5162038,8906.25,-1472,0.902513795217658,-5408,-3.31575720416922,-17504,10.7320662170448,-269,-10.3658536585366,170,16.4024390243902,193,-11.7682926829268,-2,0.00869565217391304,-47,-0.204347826086957,149,-0.726829268292683,
5162678,8925.78125,-1472,0.902513795217658,-2528,-1.54996934396076,-17520,10.7418761496015,-179,2.25609756097561,-37,10.9146341463415,36,-2.19512195121951,-5,0.0217391304347826,-45,-0.195652173913043,147,-0.717073170731707,
5163318,8945.3125,-2256,1.38320049049663,-2032,-1.24586143470264,-17360,10.6437768240343,42,4.32926829268293,-71,-2.5609756097561,19,-1.15853658536585,-4,0.0173913043478261,-49,-0.21304347826087,149,-0.726829268292683,
5163958,8964.84375,-1776,1.08890251379522,-2256,-1.38320049049663,-17104,10.4868179031269,-29,4.14634146341463,-68,1.76829268292683,20,-1.21951219512195,-2,0.00869565217391304,-49,-0.21304347826087,149,-0.726829268292683,
5164598,8984.375,-1856,1.13795217657879,-2032,-1.24586143470264,-16976,10.4083384426732,-49,6.46341463414634,-106,2.98780487804878,-20,1.21951219512195,-3,0.0130434782608696,-51,-0.221739130434783,149,-0.726829268292683,
5165238,9003.90625,-1888,1.15757204169221,-1984,-1.2164316370325,-16784,10.2906192519926,-2,7.4390243902439,-122,0.121951219512195,-24,1.46341463414634,-2,0.00869565217391304,-46,-0.2,149,-0.726829268292683,
5165878,9023.4375,-1968,1.20662170447578,-1968,-1.20662170447578,-16608,10.1827099938688,15,9.02439024390244,-148,-0.914634146341463,-28,1.70731707317073,-4,0.0173913043478261,-45,-0.195652173913043,149,-0.726829268292683,
5166518,9042.96875,-2144,1.31453096259963,-1840,-1.12814224402207,-16464,10.0944206008584,-28,9.69512195121951,-159,1.70731707317073,-39,2.37804878048781,-1,0.00434782608695652,-52,-0.226086956521739,150,-0.731707317073171,
5167158,9062.5,-2048,1.25567136725935,-1920,-1.17719190680564,-16400,10.0551808706315,-32,10,-164,1.95121951219512,-40,2.4390243902439,-2,0.00869565217391304,-48,-0.208695652173913,148,-0.721951219512195,
5167798,9082.03125,-1920,1.17719190680564,-1744,-1.06928264868179,-16048,9.83936235438381,-18,9.32926829268293,-153,1.09756097560976,-44,2.68292682926829,-3,0.0130434782608696,-48,-0.208695652173913,149,-0.726829268292683,
5168438,9101.5625,-1968,1.20662170447578,-1568,-0.96137339055794,-15856,9.72164316370325,-22,8.90243902439025,-146,1.34146341463415,-48,2.92682926829268,-3,0.0130434782608696,-48,-0.208695652173913,149,-0.726829268292683,
5169078,9121.09375,-2032,1.24586143470264,-1552,-0.951563458001226,-15824,9.70202329858982,-38,8.90243902439025,-146,2.31707317073171,-59,3.59756097560976,-5,0.0217391304347826,-50,-0.217391304347826,148,-0.721951219512195,
5169718,9140.625,-2160,1.32434089515635,-1552,-0.951563458001226,-15824,9.70202329858982,-54,8.23170731707317,-135,3.29268292682927,-63,3.84146341463415,-5,0.0217391304347826,-47,-0.204347826086957,151,-0.736585365853659,
5170358,9160.15625,-2240,1.37339055793991,-1536,-0.941753525444513,-15856,9.72164316370325,-69,7.86585365853659,-129,4.20731707317073,-66,4.02439024390244,-4,0.0173913043478261,-47,-0.204347826086957,149,-0.726829268292683,
5170998,9179.6875,-4368,2.67811158798283,15552,9.53525444512569,-3648,2.23666462293072,1321,-102.743902439024,1685,-80.5487804878049,-1475,89.9390243902439,-2,0.00869565217391304,-47,-0.204347826086957,148,-0.721951219512195,
5171638,9199.21875,-1120,0.686695278969957,6064,3.71796443899448,-12192,7.47516860821582,1264,6.58536585365854,-108,-77.0731707317073,-43,2.6219512195122,-2,0.00869565217391304,-48,-0.208695652173913,148,-0.721951219512195,
5172278,9218.75,-7520,4.61066830165543,608,0.37277743715512,-14896,9.13304721030043,-129,11.8292682926829,-194,7.86585365853659,17,-1.03658536585366,0,0,-48,-0.208695652173913,145,-0.707317073170732,
5172918,9238.28125,-4368,2.67811158798283,-960,-0.58859595340282,-15312,9.38810545677498,-402,13.780487804878,-226,24.5121951219512,136,-8.29268292682927,1,-0.00434782608695652,-50,-0.217391304347826,145,-0.707317073170732,
5173558,9257.8125,-5312,3.25689760882894,-1232,-0.755364806866953,-15744,9.65297363580625,-927,15.0609756097561,-247,56.5243902439024,0,0,1,-0.00434782608695652,-51,-0.221739130434783,148,-0.721951219512195,
5174198,9277.34375,-2832,1.73635806253832,-112,-0.0686695278969957,-16272,9.9767014101778,-668,6.70731707317073,-110,40.7317073170732,37,-2.25609756097561,-3,0.0130434782608696,-46,-0.2,149,-0.726829268292683,
5174838,9296.875,-1328,0.814224402207235,1328,0.814224402207235,-15200,9.31943592887799,-219,-13.109756097561,215,13.3536585365854,76,-4.63414634146342,-3,0.0130434782608696,-50,-0.217391304347826,149,-0.726829268292683,
5175478,9316.40625,-1888,1.15757204169221,-2128,-1.30472103004292,-16816,10.3102391171061,-60,-6.46341463414634,106,3.65853658536585,142,-8.65853658536586,-5,0.0217391304347826,-46,-0.2,150,-0.731707317073171,
5176118,9335.9375,-1232,0.755364806866953,-4880,-2.99202942979767,-17376,10.653586756591,122,2.5609756097561,-42,-7.4390243902439,34,-2.07317073170732,-5,0.0217391304347826,-47,-0.204347826086957,151,-0.736585365853659,
5176758,9355.46875,-1984,1.2164316370325,-1856,-1.13795217657879,-17392,10.6633966891478,123,0.792682926829268,-13,-7.5,71,-4.32926829268293,-5,0.0217391304347826,-49,-0.21304347826087,148,-0.721951219512195,
5177398,9375,-2352,1.44206008583691,-2064,-1.26548129981606,-17360,10.6437768240343,-21,3.84146341463415,-63,1.28048780487805,37,-2.25609756097561,-2,0.00869565217391304,-51,-0.221739130434783,150,-0.731707317073171,
5178038,9394.53125,-1840,1.12814224402207,-2128,-1.30472103004292,-17344,10.6339668914776,-31,6.34146341463415,-104,1.89024390243902,5,-0.304878048780488,-2,0.00869565217391304,-49,-0.21304347826087,150,-0.731707317073171,
5178678,9414.0625,-1920,1.17719190680564,-1968,-1.20662170447578,-16976,10.4083384426732,-40,8.17073170731707,-134,2.4390243902439,-11,0.670731707317073,-2,0.00869565217391304,-46,-0.2,149,-0.726829268292683,
5179318,9433.59375,-1744,1.06928264868179,-1920,-1.17719190680564,-16608,10.1827099938688,1,9.14634146341463,-150,-0.0609756097560976,-29,1.76829268292683,-2,0.00869565217391304,-49,-0.21304347826087,150,-0.731707317073171,
5179958,9453.125,-1920,1.17719190680564,-1872,-1.1477621091355,-16336,10.0159411404047,-15,9.32926829268293,-153,0.914634146341463,-38,2.31707317073171,-5,0.0217391304347826,-47,-0.204347826086957,149,-0.726829268292683,
5180598,9472.65625,-2032,1.24586143470264,-1680,-1.03004291845494,-16144,9.89822194972409,-40,8.90243902439025,-146,2.4390243902439,-45,2.74390243902439,-4,0.0173913043478261,-50,-0.217391304347826,149,-0.726829268292683,
5181238,9492.1875,-1952,1.19681177191907,-1616,-0.990803188228081,-15984,9.80012262415696,-13,7.92682926829268,-130,0.792682926829268,-42,2.5609756097561,-2,0.00869565217391304,-51,-0.221739130434783,149,-0.726829268292683,
5181878,9511.71875,-1888,1.15757204169221,-1568,-0.96137339055794,-15936,9.77069282648682,13,7.80487804878049,-128,-0.792682926829268,-32,1.95121951219512,-3,0.0130434782608696,-46,-0.2,147,-0.717073170731707,
5182518,9531.25,-1984,1.2164316370325,-1600,-0.980993255671367,-15888,9.74126302881668,29,8.04878048780488,-132,-1.76829268292683,-25,1.52439024390244,-5,0.0217391304347826,-46,-0.2,149,-0.726829268292683,
5183158,9550.78125,-2160,1.32434089515635,-1456,-0.892703862660944,-15856,9.72164316370325,-4,7.37804878048781,-121,0.24390243902439,-26,1.58536585365854,-3,0.0130434782608696,-45,-0.195652173913043,149,-0.726829268292683,
5183798,9570.3125,-2080,1.27529123237278,-1488,-0.912323727774372,-15904,9.75107296137339,-14,6.89024390243902,-113,0.853658536585366,-29,1.76829268292683,-3,0.0130434782608696,-51,-0.221739130434783,150,-0.731707317073171,
5184438,9589.84375,-2000,1.22624156958921,-1536,-0.941753525444513,-15904,9.75107296137339,-6,6.64634146341464,-109,0.365853658536585,-32,1.95121951219512,-2,0.00869565217391304,-51,-0.221739130434783,151,-0.736585365853659,
5185078,9609.375,-2064,1.26548129981606,-1600,-0.980993255671367,-15904,9.75107296137339,-13,6.89024390243902,-113,0.792682926829268,-35,2.13414634146341,-2,0.00869565217391304,-48,-0.208695652173913,149,-0.726829268292683,
5185718,9628.90625,4688,-2.87431023911711,7760,4.75781729000613,-2160,1.32434089515635,801,-94.6951219512195,1553,-48.8414634146341,-668,40.7317073170732,-1,0.00434782608695652,-48,-0.208695652173913,148,-0.721951219512195,
5186358,9648.4375,-3488,2.13856529736358,2448,1.50091968117719,-11120,6.817903126916,689,-0.853658536585366,14,-42.0121951219512,135,-8.23170731707317,-2,0.00869565217391304,-49,-0.21304347826087,148,-0.721951219512195,
5186998,9667.96875,-5392,3.30594727161251,-608,-0.37277743715512,-14928,9.15266707541386,-166,8.65853658536586,-142,10.1219512195122,23,-1.40243902439024,0,0,-50,-0.217391304347826,147,-0.717073170731707,
5187638,9687.5,-3472,2.12875536480687,-1840,-1.12814224402207,-15008,9.20171673819742,-176,6.21951219512195,-102,10.7317073170732,56,-3.41463414634146,1,-0.00434782608695652,-50,-0.217391304347826,147,-0.717073170731707,
5188278,9707.03125,-3872,2.37400367872471,-976,-0.598405885959534,-15856,9.72164316370325,-402,8.04878048780488,-132,24.5121951219512,44,-2.68292682926829,1,-0.00434782608695652,-51,-0.221739130434783,148,-0.721951219512195,
5188918,9726.5625,-3152,1.93255671367259,-720,-0.441446965052115,-16800,10.3004291845494,-475,7.07317073170732,-116,28.9634146341463,68,-4.14634146341463,-3,0.0130434782608696,-46,-0.2,147,-0.717073170731707,
5189558,9746.09375,-4672,2.86450030656039,4880,2.99202942979767,-13760,8.43654199877376,-429,-22.4390243902439,368,26.1585365853659,167,-10.1829268292683,-3,0.0130434782608696,-47,-0.204347826086957,150,-0.731707317073171,
5190198,9765.625,-2960,1.81483752299203,-2048,-1.25567136725935,-16208,9.93746167995095,-454,-3.78048780487805,62,27.6829268292683,96,-5.85365853658537,-2,0.00869565217391304,-51,-0.221739130434783,148,-0.721951219512195,
5190838,9785.15625,-864,0.529736358062538,-4256,-2.60944206008584,-16896,10.3592887798896,-138,5.54878048780488,-91,8.41463414634146,8,-0.487804878048781,-2,0.00869565217391304,-51,-0.221739130434783,151,-0.736585365853659,
5191478,9804.6875,-1648,1.01042305334151,-1296,-0.794604537093807,-16976,10.4083384426732,23,2.37804878048781,-39,-1.40243902439024,50,-3.04878048780488,-5,0.0217391304347826,-48,-0.208695652173913,150,-0.731707317073171,
5192118,9824.21875,-1872,1.1477621091355,-1968,-1.20662170447578,-16912,10.3690987124464,-10,4.08536585365854,-67,0.609756097560976,28,-1.70731707317073,-6,0.0260869565217391,-48,-0.208695652173913,149,-0.726829268292683,
5192758,9843.75,-1808,1.10852237890864,-1808,-1.10852237890864,-16800,10.3004291845494,12,4.9390243902439,-81,-0.731707317073171,21,-1.28048780487805,-3,0.0130434782608696,-51,-0.221739130434783,151,-0.736585365853659,
5193398,9863.28125,-2080,1.27529123237278,-1712,-1.04966278356836,-16640,10.2023298589822,-23,6.09756097560976,-100,1.40243902439024,22,-1.34146341463415,-5,0.0217391304347826,-50,-0.217391304347826,150,-0.731707317073171,
5194038,9882.8125,-1952,1.19681177191907,-1792,-1.09871244635193,-16288,9.98651134273452,-26,6.70731707317073,-110,1.58536585365854,9,-0.548780487804878,-5,0.0217391304347826,-43,-0.18695652173913,150,-0.731707317073171,
5194678,9902.34375,-1952,1.19681177191907,-1584,-0.971183323114654,-16032,9.8295524218271,-40,6.52439024390244,-107,2.4390243902439,1,-0.0609756097560976,-2,0.00869565217391304,-49,-0.21304347826087,150,-0.731707317073171,
5195318,9921.875,-1856,1.13795217657879,-1568,-0.96137339055794,-15920,9.7608828939301,-14,5.91463414634146,-97,0.853658536585366,-4,0.24390243902439,-5,0.0217391304347826,-49,-0.21304347826087,148,-0.721951219512195,
5195958,9941.40625,-1776,1.08890251379522,-1600,-0.980993255671367,-15856,9.72164316370325,35,5.73170731707317,-94,-2.13414634146341,-5,0.304878048780488,-4,0.0173913043478261,-48,-0.208695652173913,151,-0.736585365853659,
5196598,9960.9375,-1920,1.17719190680564,-1520,-0.931943592887799,-15696,9.62354383813611,15,5.48780487804878,-90,-0.914634146341463,-2,0.121951219512195,-5,0.0217391304347826,-48,-0.208695652173913,149,-0.726829268292683,
5197238,9980.46875,-2016,1.23605150214592,-1408,-0.863274064990803,-15584,9.55487431023912,-43,4.75609756097561,-78,2.6219512195122,-3,0.182926829268293,-3,0.0130434782608696,-52,-0.226086956521739,151,-0.736585365853659,
5197878,10000,-1760,1.0790925812385,-1376,-0.843654199877376,-15648,9.59411404046597,-31,3.59756097560976,-59,1.89024390243902,0,0,-5,0.0217391304347826,-47,-0.204347826086957,150,-0.731707317073171,
5198518,10019.53125,-1760,1.0790925812385,-1504,-0.922133660331085,-15680,9.6137339055794,16,2.68292682926829,-44,-0.975609756097561,2,-0.121951219512195,-5,0.0217391304347826,-49,-0.21304347826087,149,-0.726829268292683,
5199158,10039.0625,-896,0.549356223175966,13024,7.98528510116493,-11328,6.94543225015328,1018,-31.4634146341463,516,-62.0731707317073,-337,20.5487804878049,-1,0.00434782608695652,-52,-0.226086956521739,150,-0.731707317073171,
5199798,10058.59375,-5792,3.55119558553035,1312,0.804414469650521,-13904,8.52483139178418,472,-1.70731707317073,28,-28.7804878048781,216,-13.1707317073171,1,-0.00434782608695652,-49,-0.21304347826087,145,-0.707317073170732,
5200438,10078.125,-5024,3.08031882280809,16,0.00980993255671367,-15536,9.52544451256898,-339,2.86585365853659,-47,20.6707317073171,156,-9.51219512195122,1,-0.00434782608695652,-47,-0.204347826086957,146,-0.712195121951219,
5201078,10097.65625,-4496,2.75659104843654,-1632,-1.00061312078479,-15696,9.62354383813611,-651,5.0609756097561,-83,39.6951219512195,163,-9.9390243902439,0,0,-49,-0.21304347826087,148,-0.721951219512195,
5201718,10117.1875,-3344,2.05027590435316,-992,-0.608215818516248,-16656,10.2121397915389,-915,8.65853658536586,-142,55.7926829268293,115,-7.01219512195122,-2,0.00869565217391304,-48,-0.208695652173913,148,-0.721951219512195,
5202358,10136.71875,-544,0.333537706928265,-96,-0.058859595340282,-17088,10.4770079705702,-393,-23.0487804878049,378,23.9634146341463,40,-2.4390243902439,-5,0.0217391304347826,-48,-0.208695652173913,150,-0.731707317073171,
5202998,10156.25,-1424,0.873083997547517,-4928,-3.02145922746781,-17056,10.4573881054568,-12,-4.39024390243902,72,0.731707317073171,142,-8.65853658536586,-3,0.0130434782608696,-51,-0.221739130434783,150,-0.731707317073171,
5203638,10175.78125,-960,0.58859595340282,-2960,-1.81483752299203,-17856,10.9478847332925,85,1.76829268292683,-29,-5.18292682926829,40,-2.4390243902439,-4,0.0173913043478261,-49,-0.21304347826087,150,-0.731707317073171,
5204278,10195.3125,-1824,1.11833231146536,-1760,-1.0790925812385,-17520,10.7418761496015,107,-0.548780487804878,9,-6.52439024390244,59,-3.59756097560976,-6,0.0260869565217391,-45,-0.195652173913043,149,-0.726829268292683,
5204918,10214.84375,-2032,1.24586143470264,-2208,-1.35377069282649,-17376,10.653586756591,-39,3.47560975609756,-57,2.37804878048781,15,-0.914634146341463,-5,0.0217391304347826,-47,-0.204347826086957,151,-0.736585365853659,
5205558,10234.375,-1776,1.08890251379522,-1872,-1.1477621091355,-17232,10.5652973635806,-63,5,-82,3.84146341463415,0,0,-3,0.0130434782608696,-49,-0.21304347826087,150,-0.731707317073171,
5206198,10253.90625,-1600,0.980993255671367,-1888,-1.15757204169221,-17088,10.4770079705702,-56,6.40243902439024,-105,3.41463414634146,0,0,-4,0.0173913043478261,-47,-0.204347826086957,150,-0.731707317073171,
5206838,10273.4375,-1472,0.902513795217658,-1920,-1.17719190680564,-16864,10.3396689147762,13,7.19512195121951,-118,-0.792682926829268,-6,0.365853658536585,-3,0.0130434782608696,-48,-0.208695652173913,149,-0.726829268292683,
5207478,10292.96875,-1776,1.08890251379522,-1840,-1.12814224402207,-16608,10.1827099938688,42,7.98780487804878,-131,-2.5609756097561,-20,1.21951219512195,-6,0.0260869565217391,-48,-0.208695652173913,149,-0.726829268292683,
5208118,10312.5,-1808,1.10852237890864,-1792,-1.09871244635193,-16448,10.0846106683017,-7,8.41463414634146,-138,0.426829268292683,-27,1.64634146341463,-4,0.0173913043478261,-50,-0.217391304347826,152,-0.741463414634146,
5208758,10332.03125,-1744,1.06928264868179,-1856,-1.13795217657879,-16128,9.88841201716738,-53,8.59756097560976,-141,3.23170731707317,-48,2.92682926829268,-5,0.0217391304347826,-49,-0.21304347826087,150,-0.731707317073171,
5209398,10351.5625,-1632,1.00061312078479,-1664,-1.02023298589822,-15968,9.79031269160024,-64,8.71951219512195,-143,3.90243902439024,-62,3.78048780487805,-6,0.0260869565217391,-45,-0.195652173913043,149,-0.726829268292683,
5210038,10371.09375,-1552,0.951563458001226,-1568,-0.96137339055794,-15936,9.77069282648682,-24,8.04878048780488,-132,1.46341463414634,-58,3.53658536585366,-4,0.0173913043478261,-52,-0.226086956521739,151,-0.736585365853659,
5210678,10390.625,-1776,1.08890251379522,-1504,-0.922133660331085,-15872,9.73145309625996,10,7.6219512195122,-125,-0.609756097560976,-56,3.41463414634146,-4,0.0173913043478261,-51,-0.221739130434783,151,-0.736585365853659,
5211318,10410.15625,-1760,1.0790925812385,-1552,-0.951563458001226,-15856,9.72164316370325,15,6.95121951219512,-114,-0.914634146341463,-57,3.47560975609756,-4,0.0173913043478261,-47,-0.204347826086957,151,-0.736585365853659,
5211958,10429.6875,5552,-3.40404659717964,14080,8.63274064990803,-14192,8.70141017780503,1591,-146.646341463415,2405,-97.0121951219512,-1645,100.30487804878,-2,0.00869565217391304,-49,-0.21304347826087,150,-0.731707317073171,
5212598,10449.21875,-4016,2.46229307173513,1808,1.10852237890864,-13856,8.49540159411404,1316,-13.1707317073171,216,-80.2439024390244,190,-11.5853658536585,-1,0.00434782608695652,-49,-0.21304347826087,148,-0.721951219512195,
5213238,10468.75,-5072,3.10974862047823,-416,-0.255058246474555,-15264,9.35867565910484,239,5.0609756097561,-83,-14.5731707317073,13,-0.792682926829268,1,-0.00434782608695652,-47,-0.204347826086957,147,-0.717073170731707,
5213878,10488.28125,-6176,3.78663396689148,-784,-0.48068669527897,-15680,9.6137339055794,-302,10.5487804878049,-173,18.4146341463415,191,-11.6463414634146,1,-0.00434782608695652,-47,-0.204347826086957,145,-0.707317073170732,
5214518,10507.8125,-5856,3.5904353157572,64,0.0392397302268547,-16864,10.3396689147762,-1254,20.6707317073171,-339,76.4634146341463,117,-7.13414634146342,1,-0.00434782608695652,-50,-0.217391304347826,149,-0.726829268292683,
5215158,10527.34375,-960,0.58859595340282,3168,1.94236664622931,-17024,10.4377682403433,-1282,3.10975609756098,-51,78.1707317073171,53,-3.23170731707317,-1,0.00434782608695652,-42,-0.182608695652174,148,-0.721951219512195,
5215798,10546.875,-528,0.323727774371551,-5344,-3.27651747394237,-16624,10.1925199264255,-393,-11.6463414634146,191,23.9634146341463,244,-14.8780487804878,-4,0.0173913043478261,-48,-0.208695652173913,150,-0.731707317073171,
5216438,10566.40625,-384,0.235438381361128,-4352,-2.66830165542612,-18080,11.0852237890864,-92,4.39024390243902,-72,5.60975609756098,7,-0.426829268292683,-6,0.0260869565217391,-49,-0.21304347826087,151,-0.736585365853659,
