Shimmer,Shimmer,Shimmer,Shimmer,Shimmer,Shimmer,Shimmer,Shimmer,Shimmer,Shimmer,Shimmer,Shimmer,Shimmer,Shimmer,Shimmer,Shimmer,Shimmer,Shimmer,Shimmer,Shimmer,
Timestamp,Timestamp,Wide Range Accelerometer X,Wide Range Accelerometer X,Wide Range Accelerometer Y,Wide Range Accelerometer Y,Wide Range Accelerometer Z,Wide Range Accelerometer Z,Gyroscope X,Gyroscope X,Gyroscope Y,Gyroscope Y,Gyroscope Z,Gyroscope Z,Magnetometer X,Magnetometer X,Magnetometer Y,Magnetometer Y,Magnetometer Z,Magnetometer Z,
RAW,CAL,RAW,CAL,RAW,CAL,RAW,CAL,RAW,CAL,RAW,CAL,RAW,CAL,RAW,CAL,RAW,CAL,RAW,CAL,
no units,mSecs,no units,m/(sec^2),no units,m/(sec^2),no units,m/(sec^2),no units,deg/sec,no units,deg/sec,no units,deg/sec,no units,local,no units,local,no units,local,
14028214,0,4416,-2.70754138565297,-15344,-9.40772532188841,-3376,2.06989576946658,-6,3.29268292682927,-54,0.365853658536585,-1,0.0609756097560976,-68,0.295652173913043,38,0.165217391304348,131,-0.639024390243902,
14028854,19.53125,4384,-2.68792152053955,-15264,-9.35867565910484,-3328,2.04046597179644,-7,3.47560975609756,-57,0.426829268292683,0,0,-65,0.282608695652174,39,0.169565217391304,131,-0.639024390243902,
14029494,39.0625,4448,-2.7271612507664,-15200,-9.31943592887799,-3296,2.02084610668302,-1,3.41463414634146,-56,0.0609756097560976,4,-0.24390243902439,-63,0.273913043478261,34,0.147826086956522,131,-0.639024390243902,
14030134,58.59375,4448,-2.7271612507664,-15168,-9.29981606376456,-3296,2.02084610668302,-4,3.71951219512195,-61,0.24390243902439,16,-0.975609756097561,-63,0.273913043478261,35,0.152173913043478,130,-0.634146341463415,
14030774,78.125,4480,-2.74678111587983,-15120,-9.27038626609442,-3280,2.0110361741263,-7,3.90243902439024,-64,0.426829268292683,20,-1.21951219512195,-65,0.282608695652174,41,0.178260869565217,130,-0.634146341463415,
14031414,97.65625,4544,-2.78602084610668,-15120,-9.27038626609442,-3264,2.00122624156959,-8,3.59756097560976,-59,0.487804878048781,27,-1.64634146341463,-66,0.28695652173913,38,0.165217391304348,131,-0.639024390243902,
14032054,117.1875,4608,-2.82526057633354,-15152,-9.29000613120785,-3264,2.00122624156959,-10,3.59756097560976,-59,0.609756097560976,28,-1.70731707317073,-63,0.273913043478261,35,0.152173913043478,131,-0.639024390243902,
14032694,136.71875,4704,-2.88412017167382,-15152,-9.29000613120785,-3152,1.93255671367259,-8,3.53658536585366,-58,0.487804878048781,21,-1.28048780487805,-65,0.282608695652174,41,0.178260869565217,131,-0.639024390243902,
14033334,156.25,4816,-2.95278969957082,-15232,-9.33905579399141,-3200,1.96198651134273,-5,3.23170731707317,-53,0.304878048780488,13,-0.792682926829268,-63,0.273913043478261,40,0.173913043478261,130,-0.634146341463415,
14033974,175.78125,4880,-2.99202942979767,-15264,-9.35867565910484,-3136,1.92274678111588,-6,2.98780487804878,-49,0.365853658536585,6,-0.365853658536585,-64,0.278260869565217,38,0.165217391304348,131,-0.639024390243902,
14034614,195.3125,4816,-2.95278969957082,-15200,-9.31943592887799,-3104,1.90312691600245,-5,2.98780487804878,-49,0.304878048780488,-6,0.365853658536585,-63,0.273913043478261,37,0.160869565217391,132,-0.64390243902439,
14035254,214.84375,4784,-2.93316983445739,-15184,-9.30962599632127,-3168,1.94236664622931,-9,2.92682926829268,-48,0.548780487804878,-13,0.792682926829268,-67,0.291304347826087,36,0.156521739130435,132,-0.64390243902439,
14035894,234.375,4720,-2.89393010423053,-15184,-9.30962599632127,-3280,2.0110361741263,-12,3.04878048780488,-50,0.731707317073171,-18,1.09756097560976,-63,0.273913043478261,38,0.165217391304348,130,-0.634146341463415,
14036534,253.90625,4736,-2.90374003678725,-15280,-9.36848559166156,-3312,2.03065603923973,-16,3.23170731707317,-53,0.975609756097561,-20,1.21951219512195,-65,0.282608695652174,38,0.165217391304348,130,-0.634146341463415,
14037174,273.4375,4704,-2.88412017167382,-15200,-9.31943592887799,-3312,2.03065603923973,-20,3.17073170731707,-52,1.21951219512195,-27,1.64634146341463,-65,0.282608695652174,35,0.152173913043478,132,-0.64390243902439,
14037814,292.96875,4672,-2.86450030656039,-15216,-9.3292458614347,-3344,2.05027590435316,-16,2.98780487804878,-49,0.975609756097561,-28,1.70731707317073,-64,0.278260869565217,36,0.156521739130435,132,-0.64390243902439,
14038454,312.5,4560,-2.7958307786634,-15232,-9.33905579399141,-3440,2.10913549969344,-17,3.17073170731707,-52,1.03658536585366,-30,1.82926829268293,-66,0.28695652173913,37,0.160869565217391,130,-0.634146341463415,
14039094,332.03125,4608,-2.82526057633354,-15216,-9.3292458614347,-3360,2.06008583690987,-13,3.17073170731707,-52,0.792682926829268,-29,1.76829268292683,-63,0.273913043478261,34,0.147826086956522,132,-0.64390243902439,
14039734,351.5625,4480,-2.74678111587983,-15104,-9.26057633353771,-3312,2.03065603923973,-11,3.10975609756098,-51,0.670731707317073,-29,1.76829268292683,-66,0.28695652173913,40,0.173913043478261,131,-0.639024390243902,
14040374,371.09375,4496,-2.75659104843654,-15216,-9.3292458614347,-3392,2.0797057020233,-15,2.98780487804878,-49,0.914634146341463,-17,1.03658536585366,-66,0.28695652173913,38,0.165217391304348,132,-0.64390243902439,
14041014,390.625,4448,-2.7271612507664,-15200,-9.31943592887799,-3344,2.05027590435316,-3,2.92682926829268,-48,0.182926829268293,-3,0.182926829268293,-65,0.282608695652174,34,0.147826086956522,132,-0.64390243902439,
14041654,410.15625,4512,-2.76640098099326,-15216,-9.3292458614347,-3344,2.05027590435316,-1,2.68292682926829,-44,0.0609756097560976,6,-0.365853658536585,-63,0.273913043478261,35,0.152173913043478,131,-0.639024390243902,
14042294,429.6875,4592,-2.81545064377682,-15232,-9.33905579399141,-3296,2.02084610668302,7,2.37804878048781,-39,-0.426829268292683,11,-0.670731707317073,-67,0.291304347826087,40,0.173913043478261,130,-0.634146341463415,
14042934,449.21875,4512,-2.76640098099326,-15232,-9.33905579399141,-3280,2.0110361741263,5,2.31707317073171,-38,-0.304878048780488,4,-0.24390243902439,-64,0.278260869565217,37,0.160869565217391,131,-0.639024390243902,
14043574,468.75,4608,-2.82526057633354,-15232,-9.33905579399141,-3280,2.0110361741263,6,2.31707317073171,-38,-0.365853658536585,3,-0.182926829268293,-67,0.291304347826087,34,0.147826086956522,131,-0.639024390243902,
14044214,488.28125,4560,-2.7958307786634,-15232,-9.33905579399141,-3216,1.97179644389945,2,2.4390243902439,-40,-0.121951219512195,0,0,-66,0.28695652173913,37,0.160869565217391,131,-0.639024390243902,
14044854,507.8125,4512,-2.76640098099326,-15168,-9.29981606376456,-3248,1.99141630901288,6,2.07317073170732,-34,-0.365853658536585,2,-0.121951219512195,-66,0.28695652173913,42,0.182608695652174,130,-0.634146341463415,
14045494,527.34375,4544,-2.78602084610668,-15200,-9.31943592887799,-3312,2.03065603923973,-2,2.19512195121951,-36,0.121951219512195,7,-0.426829268292683,-65,0.282608695652174,42,0.182608695652174,130,-0.634146341463415,
14046134,546.875,4576,-2.80564071122011,-15200,-9.31943592887799,-3184,1.95217657878602,-9,2.07317073170732,-34,0.548780487804878,6,-0.365853658536585,-64,0.278260869565217,35,0.152173913043478,131,-0.639024390243902,
14046774,566.40625,4688,-2.87431023911711,-15184,-9.30962599632127,-3248,1.99141630901288,-12,1.95121951219512,-32,0.731707317073171,2,-0.121951219512195,-65,0.282608695652174,37,0.160869565217391,131,-0.639024390243902,
14047414,585.9375,4720,-2.89393010423053,-15168,-9.29981606376456,-3232,1.98160637645616,-1,1.64634146341463,-27,0.0609756097560976,-2,0.121951219512195,-64,0.278260869565217,34,0.147826086956522,131,-0.639024390243902,
14048054,605.46875,4736,-2.90374003678725,-15168,-9.29981606376456,-3200,1.96198651134273,8,1.28048780487805,-21,-0.487804878048781,-3,0.182926829268293,-63,0.273913043478261,35,0.152173913043478,130,-0.634146341463415,
14048694,625,4672,-2.86450030656039,-15168,-9.29981606376456,-3152,1.93255671367259,13,1.21951219512195,-20,-0.792682926829268,-1,0.0609756097560976,-64,0.278260869565217,40,0.173913043478261,131,-0.639024390243902,
14049334,644.53125,4624,-2.83507050889025,-15184,-9.30962599632127,-3168,1.94236664622931,12,1.28048780487805,-21,-0.731707317073171,0,0,-65,0.282608695652174,38,0.165217391304348,132,-0.64390243902439,
14049974,664.0625,4592,-2.81545064377682,-15184,-9.30962599632127,-3264,2.00122624156959,7,1.21951219512195,-20,-0.426829268292683,1,-0.0609756097560976,-64,0.278260869565217,35,0.152173913043478,131,-0.639024390243902,
14050614,683.59375,4656,-2.85469037400368,-15232,-9.33905579399141,-3296,2.02084610668302,3,1.52439024390244,-25,-0.182926829268293,-2,0.121951219512195,-65,0.282608695652174,40,0.173913043478261,131,-0.639024390243902,
14051254,703.125,4736,-2.90374003678725,-15280,-9.36848559166156,-3312,2.03065603923973,9,1.82926829268293,-30,-0.548780487804878,-10,0.609756097560976,-64,0.278260869565217,40,0.173913043478261,130,-0.634146341463415,
14051894,722.65625,4688,-2.87431023911711,-15296,-9.37829552421827,-3344,2.05027590435316,3,2.19512195121951,-36,-0.182926829268293,-15,0.914634146341463,-63,0.273913043478261,38,0.165217391304348,129,-0.629268292682927,
14052534,742.1875,4608,-2.82526057633354,-15232,-9.33905579399141,-3360,2.06008583690987,0,2.25609756097561,-37,0,-22,1.34146341463415,-64,0.278260869565217,37,0.160869565217391,131,-0.639024390243902,
14053174,761.71875,4656,-2.85469037400368,-15216,-9.3292458614347,-3360,2.06008583690987,4,2.5609756097561,-42,-0.24390243902439,-20,1.21951219512195,-65,0.282608695652174,37,0.160869565217391,131,-0.639024390243902,
14053814,781.25,4640,-2.84488044144697,-15280,-9.36848559166156,-3344,2.05027590435316,-1,2.86585365853659,-47,0.0609756097560976,-20,1.21951219512195,-63,0.273913043478261,38,0.165217391304348,131,-0.639024390243902,
14054454,800.78125,4624,-2.83507050889025,-15280,-9.36848559166156,-3312,2.03065603923973,-3,3.10975609756098,-51,0.182926829268293,-22,1.34146341463415,-64,0.278260869565217,38,0.165217391304348,130,-0.634146341463415,
14055094,820.3125,4624,-2.83507050889025,-15328,-9.3979153893317,-3264,2.00122624156959,-3,3.23170731707317,-53,0.182926829268293,-21,1.28048780487805,-66,0.28695652173913,39,0.169565217391304,129,-0.629268292682927,
14055734,839.84375,4608,-2.82526057633354,-15328,-9.3979153893317,-3312,2.03065603923973,-3,3.23170731707317,-53,0.182926829268293,-23,1.40243902439024,-65,0.282608695652174,36,0.156521739130435,131,-0.639024390243902,
14056374,859.375,4640,-2.84488044144697,-15328,-9.3979153893317,-3216,1.97179644389945,3,3.35365853658537,-55,-0.182926829268293,-26,1.58536585365854,-63,0.273913043478261,40,0.173913043478261,130,-0.634146341463415,
14057014,878.90625,4528,-2.77621091354997,-15312,-9.38810545677498,-3200,1.96198651134273,1,3.41463414634146,-56,-0.0609756097560976,-28,1.70731707317073,-63,0.273913043478261,33,0.143478260869565,130,-0.634146341463415,
14057654,898.4375,4496,-2.75659104843654,-15328,-9.3979153893317,-3232,1.98160637645616,-6,3.59756097560976,-59,0.365853658536585,-25,1.52439024390244,-65,0.282608695652174,40,0.173913043478261,131,-0.639024390243902,
14058294,917.96875,4528,-2.77621091354997,-15248,-9.34886572654813,-3168,1.94236664622931,-10,3.59756097560976,-59,0.609756097560976,-23,1.40243902439024,-65,0.282608695652174,39,0.169565217391304,132,-0.64390243902439,
14058934,937.5,4464,-2.73697118332311,-15248,-9.34886572654813,-3104,1.90312691600245,-10,3.71951219512195,-61,0.609756097560976,-20,1.21951219512195,-66,0.28695652173913,34,0.147826086956522,130,-0.634146341463415,
14059574,957.03125,4480,-2.74678111587983,-15264,-9.35867565910484,-3152,1.93255671367259,-8,3.84146341463415,-63,0.487804878048781,-16,0.975609756097561,-65,0.282608695652174,42,0.182608695652174,130,-0.634146341463415,
14060214,976.5625,4432,-2.71735131820969,-15248,-9.34886572654813,-3120,1.91293684855917,-8,3.59756097560976,-59,0.487804878048781,-13,0.792682926829268,-64,0.278260869565217,38,0.165217391304348,129,-0.629268292682927,
14060854,996.09375,4496,-2.75659104843654,-15328,-9.3979153893317,-3072,1.88350705088903,-14,3.59756097560976,-59,0.853658536585366,-11,0.670731707317073,-63,0.273913043478261,35,0.152173913043478,131,-0.639024390243902,
14061494,1015.625,4480,-2.74678111587983,-15312,-9.38810545677498,-3136,1.92274678111588,-16,3.53658536585366,-58,0.975609756097561,-7,0.426829268292683,-64,0.278260869565217,36,0.156521739130435,132,-0.64390243902439,
14062134,1035.15625,4528,-2.77621091354997,-15296,-9.37829552421827,-3072,1.88350705088903,-8,3.29268292682927,-54,0.487804878048781,-4,0.24390243902439,-66,0.28695652173913,40,0.173913043478261,130,-0.634146341463415,
14062774,1054.6875,4512,-2.76640098099326,-15312,-9.38810545677498,-3136,1.92274678111588,-10,3.04878048780488,-50,0.609756097560976,2,-0.121951219512195,-66,0.28695652173913,38,0.165217391304348,131,-0.639024390243902,
14063414,1074.21875,4496,-2.75659104843654,-15280,-9.36848559166156,-3136,1.92274678111588,-15,3.10975609756098,-51,0.914634146341463,3,-0.182926829268293,-65,0.282608695652174,35,0.152173913043478,131,-0.639024390243902,
14064054,1093.75,4464,-2.73697118332311,-15216,-9.3292458614347,-3264,2.00122624156959,-24,3.10975609756098,-51,1.46341463414634,10,-0.609756097560976,-66,0.28695652173913,37,0.160869565217391,130,-0.634146341463415,
14064694,1113.28125,4592,-2.81545064377682,-15264,-9.35867565910484,-3280,2.0110361741263,-29,3.23170731707317,-53,1.76829268292683,12,-0.731707317073171,-64,0.278260869565217,35,0.152173913043478,131,-0.639024390243902,
14065334,1132.8125,4592,-2.81545064377682,-15264,-9.35867565910484,-3248,1.99141630901288,-23,2.98780487804878,-49,1.40243902439024,16,-0.975609756097561,-65,0.282608695652174,36,0.156521739130435,131,-0.639024390243902,
14065974,1152.34375,4624,-2.83507050889025,-15280,-9.36848559166156,-3200,1.96198651134273,-13,2.80487804878049,-46,0.792682926829268,17,-1.03658536585366,-65,0.282608695652174,41,0.178260869565217,130,-0.634146341463415,
14066614,1171.875,4640,-2.84488044144697,-15296,-9.37829552421827,-3232,1.98160637645616,-13,2.86585365853659,-47,0.792682926829268,17,-1.03658536585366,-66,0.28695652173913,42,0.182608695652174,131,-0.639024390243902,
14067254,1191.40625,4688,-2.87431023911711,-15264,-9.35867565910484,-3216,1.97179644389945,-22,2.6219512195122,-43,1.34146341463415,16,-0.975609756097561,-64,0.278260869565217,34,0.147826086956522,131,-0.639024390243902,
14067894,1210.9375,4656,-2.85469037400368,-15264,-9.35867565910484,-3312,2.03065603923973,-22,2.5,-41,1.34146341463415,15,-0.914634146341463,-64,0.278260869565217,36,0.156521739130435,131,-0.639024390243902,
14068534,1230.46875,4704,-2.88412017167382,-15216,-9.3292458614347,-3248,1.99141630901288,-13,2.5609756097561,-42,0.792682926829268,15,-0.914634146341463,-64,0.278260869565217,39,0.169565217391304,129,-0.629268292682927,
14069174,1250,4672,-2.86450030656039,-15216,-9.3292458614347,-3232,1.98160637645616,-5,2.31707317073171,-38,0.304878048780488,7,-0.426829268292683,-66,0.28695652173913,36,0.156521739130435,129,-0.629268292682927,
14069814,1269.53125,4720,-2.89393010423053,-15120,-9.27038626609442,-3264,2.00122624156959,-3,2.25609756097561,-37,0.182926829268293,9,-0.548780487804878,-64,0.278260869565217,36,0.156521739130435,132,-0.64390243902439,
14070454,1289.0625,4736,-2.90374003678725,-15200,-9.31943592887799,-3072,1.88350705088903,-8,2.19512195121951,-36,0.487804878048781,10,-0.609756097560976,-64,0.278260869565217,35,0.152173913043478,132,-0.64390243902439,
14071094,1308.59375,4720,-2.89393010423053,-15200,-9.31943592887799,-3248,1.99141630901288,-3,2.25609756097561,-37,0.182926829268293,8,-0.487804878048781,-63,0.273913043478261,38,0.165217391304348,130,-0.634146341463415,
14071734,1328.125,4752,-2.91354996934396,-15200,-9.31943592887799,-3216,1.97179644389945,5,2.07317073170732,-34,-0.304878048780488,8,-0.487804878048781,-64,0.278260869565217,38,0.165217391304348,130,-0.634146341463415,
14072374,1347.65625,4768,-2.92335990190067,-15216,-9.3292458614347,-3216,1.97179644389945,3,2.13414634146341,-35,-0.182926829268293,1,-0.0609756097560976,-65,0.282608695652174,37,0.160869565217391,131,-0.639024390243902,
14073014,1367.1875,4720,-2.89393010423053,-15200,-9.31943592887799,-3328,2.04046597179644,2,2.37804878048781,-39,-0.121951219512195,-11,0.670731707317073,-65,0.282608695652174,37,0.160869565217391,131,-0.639024390243902,
14073654,1386.71875,4768,-2.92335990190067,-15184,-9.30962599632127,-3296,2.02084610668302,0,2.5,-41,0,-12,0.731707317073171,-63,0.273913043478261,36,0.156521739130435,130,-0.634146341463415,
14074294,1406.25,4688,-2.87431023911711,-15232,-9.33905579399141,-3184,1.95217657878602,8,2.5609756097561,-42,-0.487804878048781,-7,0.426829268292683,-65,0.282608695652174,35,0.152173913043478,130,-0.634146341463415,
14074934,1425.78125,4624,-2.83507050889025,-15264,-9.35867565910484,-3280,2.0110361741263,5,2.5609756097561,-42,-0.304878048780488,-7,0.426829268292683,-65,0.282608695652174,36,0.156521739130435,130,-0.634146341463415,
14075574,1445.3125,4656,-2.85469037400368,-15248,-9.34886572654813,-3328,2.04046597179644,-1,3.04878048780488,-50,0.0609756097560976,-11,0.670731707317073,-65,0.282608695652174,39,0.169565217391304,130,-0.634146341463415,
14076214,1464.84375,4672,-2.86450030656039,-15248,-9.34886572654813,-3344,2.05027590435316,-5,2.74390243902439,-45,0.304878048780488,-14,0.853658536585366,-63,0.273913043478261,35,0.152173913043478,131,-0.639024390243902,
14076854,1484.375,4640,-2.84488044144697,-15232,-9.33905579399141,-3296,2.02084610668302,3,2.80487804878049,-46,-0.182926829268293,-22,1.34146341463415,-64,0.278260869565217,35,0.152173913043478,130,-0.634146341463415,
14077494,1503.90625,4624,-2.83507050889025,-15184,-9.30962599632127,-3216,1.97179644389945,9,2.80487804878049,-46,-0.548780487804878,-24,1.46341463414634,-66,0.28695652173913,40,0.173913043478261,131,-0.639024390243902,
14078134,1523.4375,4528,-2.77621091354997,-15264,-9.35867565910484,-3264,2.00122624156959,9,2.80487804878049,-46,-0.548780487804878,-19,1.15853658536585,-65,0.282608695652174,39,0.169565217391304,131,-0.639024390243902,
14078774,1542.96875,4544,-2.78602084610668,-15216,-9.3292458614347,-3200,1.96198651134273,10,2.5609756097561,-42,-0.609756097560976,-12,0.731707317073171,-64,0.278260869565217,34,0.147826086956522,132,-0.64390243902439,
14079414,1562.5,4592,-2.81545064377682,-15296,-9.37829552421827,-3184,1.95217657878602,9,2.5609756097561,-42,-0.548780487804878,-13,0.792682926829268,-64,0.278260869565217,35,0.152173913043478,131,-0.639024390243902,
14080054,1582.03125,4608,-2.82526057633354,-15296,-9.37829552421827,-3168,1.94236664622931,9,2.80487804878049,-46,-0.548780487804878,-7,0.426829268292683,-64,0.278260869565217,38,0.165217391304348,130,-0.634146341463415,
14080694,1601.5625,4624,-2.83507050889025,-15280,-9.36848559166156,-3184,1.95217657878602,6,2.86585365853659,-47,-0.365853658536585,-15,0.914634146341463,-64,0.278260869565217,39,0.169565217391304,129,-0.629268292682927,
14081334,1621.09375,4624,-2.83507050889025,-15296,-9.37829552421827,-3232,1.98160637645616,0,3.17073170731707,-52,0,-20,1.21951219512195,-65,0.282608695652174,38,0.165217391304348,131,-0.639024390243902,
14081974,1640.625,4576,-2.80564071122011,-15280,-9.36848559166156,-3216,1.97179644389945,-1,3.23170731707317,-53,0.0609756097560976,-23,1.40243902439024,-66,0.28695652173913,37,0.160869565217391,130,-0.634146341463415,
14082614,1660.15625,4528,-2.77621091354997,-15328,-9.3979153893317,-3232,1.98160637645616,-4,3.23170731707317,-53,0.24390243902439,-19,1.15853658536585,-63,0.273913043478261,37,0.160869565217391,131,-0.639024390243902,
14083254,1679.6875,4560,-2.7958307786634,-15264,-9.35867565910484,-3136,1.92274678111588,-5,3.35365853658537,-55,0.304878048780488,-16,0.975609756097561,-64,0.278260869565217,35,0.152173913043478,129,-0.629268292682927,
14083894,1699.21875,4560,-2.7958307786634,-15296,-9.37829552421827,-3184,1.95217657878602,-4,3.23170731707317,-53,0.24390243902439,-14,0.853658536585366,-66,0.28695652173913,34,0.147826086956522,132,-0.64390243902439,
14084534,1718.75,4528,-2.77621091354997,-15280,-9.36848559166156,-3200,1.96198651134273,-8,3.17073170731707,-52,0.487804878048781,-12,0.731707317073171,-65,0.282608695652174,38,0.165217391304348,131,-0.639024390243902,
14085174,1738.28125,4528,-2.77621091354997,-15296,-9.37829552421827,-3152,1.93255671367259,-9,3.10975609756098,-51,0.548780487804878,-11,0.670731707317073,-66,0.28695652173913,36,0.156521739130435,130,-0.634146341463415,
14085814,1757.8125,4560,-2.7958307786634,-15360,-9.41753525444513,-3216,1.97179644389945,-5,3.04878048780488,-50,0.304878048780488,-13,0.792682926829268,-63,0.273913043478261,34,0.147826086956522,130,-0.634146341463415,
14086454,1777.34375,4512,-2.76640098099326,-15360,-9.41753525444513,-3200,1.96198651134273,-6,2.98780487804878,-49,0.365853658536585,-9,0.548780487804878,-65,0.282608695652174,40,0.173913043478261,130,-0.634146341463415,
14087094,1796.875,4528,-2.77621091354997,-15296,-9.37829552421827,-3184,1.95217657878602,-9,3.10975609756098,-51,0.548780487804878,-7,0.426829268292683,-65,0.282608695652174,39,0.169565217391304,130,-0.634146341463415,
14087734,1816.40625,4480,-2.74678111587983,-15296,-9.37829552421827,-3232,1.98160637645616,-16,2.98780487804878,-49,0.975609756097561,-7,0.426829268292683,-64,0.278260869565217,34,0.147826086956522,131,-0.639024390243902,
14088374,1835.9375,4464,-2.73697118332311,-15312,-9.38810545677498,-3168,1.94236664622931,-16,2.98780487804878,-49,0.975609756097561,-3,0.182926829268293,-64,0.278260869565217,34,0.147826086956522,131,-0.639024390243902,
14089014,1855.46875,4496,-2.75659104843654,-15328,-9.3979153893317,-3200,1.96198651134273,-14,3.04878048780488,-50,0.853658536585366,-1,0.0609756097560976,-65,0.282608695652174,38,0.165217391304348,130,-0.634146341463415,
14089654,1875,4480,-2.74678111587983,-15296,-9.37829552421827,-3232,1.98160637645616,-12,2.98780487804878,-49,0.731707317073171,6,-0.365853658536585,-68,0.295652173913043,39,0.169565217391304,129,-0.629268292682927,
14090294,1894.53125,4544,-2.78602084610668,-15264,-9.35867565910484,-3104,1.90312691600245,-15,2.86585365853659,-47,0.914634146341463,9,-0.548780487804878,-63,0.273913043478261,35,0.152173913043478,133,-0.648780487804878,
14090934,1914.0625,4544,-2.78602084610668,-15312,-9.38810545677498,-3200,1.96198651134273,-13,3.10975609756098,-51,0.792682926829268,13,-0.792682926829268,-64,0.278260869565217,36,0.156521739130435,131,-0.639024390243902,
14091574,1933.59375,4528,-2.77621091354997,-15296,-9.37829552421827,-3232,1.98160637645616,-16,2.80487804878049,-46,0.975609756097561,14,-0.853658536585366,-64,0.278260869565217,39,0.169565217391304,131,-0.639024390243902,
14092214,1953.125,4608,-2.82526057633354,-15312,-9.38810545677498,-3216,1.97179644389945,-15,2.92682926829268,-48,0.914634146341463,14,-0.853658536585366,-64,0.278260869565217,37,0.160869565217391,130,-0.634146341463415,
14092854,1972.65625,4688,-2.87431023911711,-15264,-9.35867565910484,-3296,2.02084610668302,-11,2.98780487804878,-49,0.670731707317073,16,-0.975609756097561,-66,0.28695652173913,37,0.160869565217391,129,-0.629268292682927,
14093494,1992.1875,4672,-2.86450030656039,-15248,-9.34886572654813,-3392,2.0797057020233,-7,2.92682926829268,-48,0.426829268292683,18,-1.09756097560976,-65,0.282608695652174,35,0.152173913043478,131,-0.639024390243902,
14094134,2011.71875,4672,-2.86450030656039,-15232,-9.33905579399141,-3328,2.04046597179644,-7,2.86585365853659,-47,0.426829268292683,15,-0.914634146341463,-63,0.273913043478261,35,0.152173913043478,131,-0.639024390243902,
14094774,2031.25,4736,-2.90374003678725,-15200,-9.31943592887799,-3264,2.00122624156959,-8,3.04878048780488,-50,0.487804878048781,16,-0.975609756097561,-63,0.273913043478261,35,0.152173913043478,130,-0.634146341463415,
14095414,2050.78125,4704,-2.88412017167382,-15280,-9.36848559166156,-3248,1.99141630901288,-7,3.23170731707317,-53,0.426829268292683,15,-0.914634146341463,-65,0.282608695652174,41,0.178260869565217,130,-0.634146341463415,
14096054,2070.3125,4720,-2.89393010423053,-15232,-9.33905579399141,-3280,2.0110361741263,0,3.10975609756098,-51,0,15,-0.914634146341463,-64,0.278260869565217,36,0.156521739130435,130,-0.634146341463415,
14096694,2089.84375,4704,-2.88412017167382,-15248,-9.34886572654813,-3280,2.0110361741263,4,3.10975609756098,-51,-0.24390243902439,9,-0.548780487804878,-64,0.278260869565217,36,0.156521739130435,131,-0.639024390243902,
14097334,2109.375,4816,-2.95278969957082,-15248,-9.34886572654813,-3328,2.04046597179644,3,3.35365853658537,-55,-0.182926829268293,1,-0.0609756097560976,-65,0.282608695652174,39,0.169565217391304,131,-0.639024390243902,
14097974,2128.90625,4784,-2.93316983445739,-15264,-9.35867565910484,-3248,1.99141630901288,1,3.47560975609756,-57,-0.0609756097560976,0,0,-66,0.28695652173913,38,0.165217391304348,130,-0.634146341463415,
14098614,2148.4375,4736,-2.90374003678725,-15264,-9.35867565910484,-3296,2.02084610668302,6,3.41463414634146,-56,-0.365853658536585,-6,0.365853658536585,-63,0.273913043478261,35,0.152173913043478,131,-0.639024390243902,
14099254,2167.96875,4720,-2.89393010423053,-15184,-9.30962599632127,-3312,2.03065603923973,8,3.53658536585366,-58,-0.487804878048781,-14,0.853658536585366,-64,0.278260869565217,41,0.178260869565217,131,-0.639024390243902,
14099894,2187.5,4592,-2.81545064377682,-15136,-9.28019619865113,-3280,2.0110361741263,7,3.47560975609756,-57,-0.426829268292683,-19,1.15853658536585,-65,0.282608695652174,38,0.165217391304348,129,-0.629268292682927,
14100534,2207.03125,4560,-2.7958307786634,-15248,-9.34886572654813,-3232,1.98160637645616,3,3.35365853658537,-55,-0.182926829268293,-13,0.792682926829268,-64,0.278260869565217,38,0.165217391304348,130,-0.634146341463415,
14101174,2226.5625,4544,-2.78602084610668,-15184,-9.30962599632127,-3216,1.97179644389945,5,3.35365853658537,-55,-0.304878048780488,-8,0.487804878048781,-63,0.273913043478261,37,0.160869565217391,131,-0.639024390243902,
14101814,2246.09375,4576,-2.80564071122011,-15216,-9.3292458614347,-3232,1.98160637645616,16,3.29268292682927,-54,-0.975609756097561,-1,0.0609756097560976,-65,0.282608695652174,39,0.169565217391304,131,-0.639024390243902,
14102454,2265.625,4512,-2.76640098099326,-15248,-9.34886572654813,-3232,1.98160637645616,21,2.98780487804878,-49,-1.28048780487805,-2,0.121951219512195,-63,0.273913043478261,37,0.160869565217391,131,-0.639024390243902,
14103094,2285.15625,4544,-2.78602084610668,-15232,-9.33905579399141,-3184,1.95217657878602,17,2.98780487804878,-49,-1.03658536585366,-7,0.426829268292683,-64,0.278260869565217,36,0.156521739130435,130,-0.634146341463415,
14103734,2304.6875,4624,-2.83507050889025,-15232,-9.33905579399141,-3216,1.97179644389945,10,3.23170731707317,-53,-0.609756097560976,-11,0.670731707317073,-64,0.278260869565217,36,0.156521739130435,129,-0.629268292682927,
14104374,2324.21875,4576,-2.80564071122011,-15264,-9.35867565910484,-3232,1.98160637645616,12,3.17073170731707,-52,-0.731707317073171,-11,0.670731707317073,-65,0.282608695652174,39,0.169565217391304,131,-0.639024390243902,
14105014,2343.75,4480,-2.74678111587983,-15216,-9.3292458614347,-3280,2.0110361741263,13,3.29268292682927,-54,-0.792682926829268,-13,0.792682926829268,-65,0.282608695652174,34,0.147826086956522,130,-0.634146341463415,
14105654,2363.28125,4448,-2.7271612507664,-15184,-9.30962599632127,-3232,1.98160637645616,10,3.04878048780488,-50,-0.609756097560976,-7,0.426829268292683,-63,0.273913043478261,36,0.156521739130435,130,-0.634146341463415,
14106294,2382.8125,4496,-2.75659104843654,-15200,-9.31943592887799,-3168,1.94236664622931,4,3.17073170731707,-52,-0.24390243902439,-5,0.304878048780488,-64,0.278260869565217,40,0.173913043478261,131,-0.639024390243902,
14106934,2402.34375,4512,-2.76640098099326,-15152,-9.29000613120785,-3216,1.97179644389945,8,2.92682926829268,-48,-0.487804878048781,-7,0.426829268292683,-64,0.278260869565217,42,0.182608695652174,131,-0.639024390243902,
14107574,2421.875,4528,-2.77621091354997,-15232,-9.33905579399141,-3216,1.97179644389945,12,2.5609756097561,-42,-0.731707317073171,-2,0.121951219512195,-64,0.278260869565217,35,0.152173913043478,131,-0.639024390243902,
14108214,2441.40625,4528,-2.77621091354997,-15216,-9.3292458614347,-3152,1.93255671367259,18,2.68292682926829,-44,-1.09756097560976,-2,0.121951219512195,-65,0.282608695652174,34,0.147826086956522,132,-0.64390243902439,
14108854,2460.9375,4480,-2.74678111587983,-15248,-9.34886572654813,-3280,2.0110361741263,23,2.37804878048781,-39,-1.40243902439024,4,-0.24390243902439,-67,0.291304347826087,40,0.173913043478261,130,-0.634146341463415,
14109494,2480.46875,4544,-2.78602084610668,-15280,-9.36848559166156,-3216,1.97179644389945,18,2.37804878048781,-39,-1.09756097560976,4,-0.24390243902439,-63,0.273913043478261,38,0.165217391304348,130,-0.634146341463415,
14110134,2500,4640,-2.84488044144697,-15232,-9.33905579399141,-3200,1.96198651134273,15,2.4390243902439,-40,-0.914634146341463,2,-0.121951219512195,-65,0.282608695652174,39,0.169565217391304,130,-0.634146341463415,
14110774,2519.53125,4704,-2.88412017167382,-15232,-9.33905579399141,-3200,1.96198651134273,10,2.31707317073171,-38,-0.609756097560976,-2,0.121951219512195,-65,0.282608695652174,37,0.160869565217391,129,-0.629268292682927,
14111414,2539.0625,4672,-2.86450030656039,-15232,-9.33905579399141,-3216,1.97179644389945,18,2.5609756097561,-42,-1.09756097560976,-8,0.487804878048781,-64,0.278260869565217,36,0.156521739130435,129,-0.629268292682927,
14112054,2558.59375,4624,-2.83507050889025,-15264,-9.35867565910484,-3200,1.96198651134273,19,2.37804878048781,-39,-1.15853658536585,-13,0.792682926829268,-64,0.278260869565217,42,0.182608695652174,128,-0.624390243902439,
14112694,2578.125,4608,-2.82526057633354,-15248,-9.34886572654813,-3184,1.95217657878602,19,2.31707317073171,-38,-1.15853658536585,-19,1.15853658536585,-65,0.282608695652174,36,0.156521739130435,131,-0.639024390243902,
14113334,2597.65625,4608,-2.82526057633354,-15248,-9.34886572654813,-3232,1.98160637645616,15,2.31707317073171,-38,-0.914634146341463,-19,1.15853658536585,-64,0.278260869565217,36,0.156521739130435,130,-0.634146341463415,
14113974,2617.1875,4656,-2.85469037400368,-15216,-9.3292458614347,-3264,2.00122624156959,15,2.25609756097561,-37,-0.914634146341463,-17,1.03658536585366,-63,0.273913043478261,35,0.152173913043478,131,-0.639024390243902,
14114614,2636.71875,4640,-2.84488044144697,-15200,-9.31943592887799,-3296,2.02084610668302,28,2.01219512195122,-33,-1.70731707317073,-14,0.853658536585366,-64,0.278260869565217,40,0.173913043478261,128,-0.624390243902439,
14115254,2656.25,4656,-2.85469037400368,-15296,-9.37829552421827,-3312,2.03065603923973,36,2.19512195121951,-36,-2.19512195121951,-13,0.792682926829268,-65,0.282608695652174,40,0.173913043478261,131,-0.639024390243902,
14115894,2675.78125,4672,-2.86450030656039,-15344,-9.40772532188841,-3344,2.05027590435316,38,2.19512195121951,-36,-2.31707317073171,-13,0.792682926829268,-64,0.278260869565217,40,0.173913043478261,131,-0.639024390243902,
14116534,2695.3125,4544,-2.78602084610668,-15376,-9.42734518700184,-3264,2.00122624156959,30,2.5,-41,-1.82926829268293,-16,0.975609756097561,-63,0.273913043478261,35,0.152173913043478,130,-0.634146341463415,
14117174,2714.84375,4496,-2.75659104843654,-15312,-9.38810545677498,-3280,2.0110361741263,18,2.86585365853659,-47,-1.09756097560976,-23,1.40243902439024,-64,0.278260869565217,41,0.178260869565217,131,-0.639024390243902,
14117814,2734.375,4448,-2.7271612507664,-15264,-9.35867565910484,-3296,2.02084610668302,9,3.29268292682927,-54,-0.548780487804878,-29,1.76829268292683,-64,0.278260869565217,39,0.169565217391304,129,-0.629268292682927,
14118454,2753.90625,4464,-2.73697118332311,-15312,-9.38810545677498,-3312,2.03065603923973,2,3.41463414634146,-56,-0.121951219512195,-29,1.76829268292683,-63,0.273913043478261,39,0.169565217391304,130,-0.634146341463415,
14119094,2773.4375,4384,-2.68792152053955,-15312,-9.38810545677498,-3264,2.00122624156959,3,3.59756097560976,-59,-0.182926829268293,-26,1.58536585365854,-63,0.273913043478261,35,0.152173913043478,131,-0.639024390243902,
14119734,2792.96875,4368,-2.67811158798283,-15232,-9.33905579399141,-3200,1.96198651134273,2,3.53658536585366,-58,-0.121951219512195,-19,1.15853658536585,-65,0.282608695652174,35,0.152173913043478,130,-0.634146341463415,
14120374,2812.5,4432,-2.71735131820969,-15248,-9.34886572654813,-3136,1.92274678111588,-3,3.59756097560976,-59,0.182926829268293,-17,1.03658536585366,-64,0.278260869565217,38,0.165217391304348,130,-0.634146341463415,
14121014,2832.03125,4496,-2.75659104843654,-15216,-9.3292458614347,-3120,1.91293684855917,4,3.04878048780488,-50,-0.24390243902439,-8,0.487804878048781,-64,0.278260869565217,37,0.160869565217391,130,-0.634146341463415,
14121654,2851.5625,4400,-2.69773145309626,-15232,-9.33905579399141,-3232,1.98160637645616,8,3.10975609756098,-51,-0.487804878048781,-3,0.182926829268293,-66,0.28695652173913,40,0.173913043478261,129,-0.629268292682927,
14122294,2871.09375,4400,-2.69773145309626,-15264,-9.35867565910484,-3168,1.94236664622931,11,2.6219512195122,-43,-0.670731707317073,4,-0.24390243902439,-65,0.282608695652174,35,0.152173913043478,130,-0.634146341463415,
14122934,2890.625,4384,-2.68792152053955,-15280,-9.36848559166156,-3120,1.91293684855917,7,2.5,-41,-0.426829268292683,5,-0.304878048780488,-63,0.273913043478261,34,0.147826086956522,129,-0.629268292682927,
14123574,2910.15625,4512,-2.76640098099326,-15264,-9.35867565910484,-3088,1.89331698344574,4,2.31707317073171,-38,-0.24390243902439,8,-0.487804878048781,-63,0.273913043478261,35,0.152173913043478,130,-0.634146341463415,
14124214,2929.6875,4544,-2.78602084610668,-15200,-9.31943592887799,-2976,1.82464745554874,1,2.25609756097561,-37,-0.0609756097560976,11,-0.670731707317073,-65,0.282608695652174,39,0.169565217391304,131,-0.639024390243902,
14124854,2949.21875,4512,-2.76640098099326,-15216,-9.3292458614347,-3056,1.87369711833231,2,2.01219512195122,-33,-0.121951219512195,12,-0.731707317073171,-65,0.282608695652174,38,0.165217391304348,131,-0.639024390243902,
14125494,2968.75,4592,-2.81545064377682,-15216,-9.3292458614347,-3072,1.88350705088903,-1,1.89024390243902,-31,0.0609756097560976,13,-0.792682926829268,-63,0.273913043478261,35,0.152173913043478,131,-0.639024390243902,
14126134,2988.28125,4592,-2.81545064377682,-15264,-9.35867565910484,-3104,1.90312691600245,-3,1.89024390243902,-31,0.182926829268293,9,-0.548780487804878,-62,0.269565217391304,35,0.152173913043478,130,-0.634146341463415,
14126774,3007.8125,4608,-2.82526057633354,-15312,-9.38810545677498,-3120,1.91293684855917,-8,1.82926829268293,-30,0.487804878048781,8,-0.487804878048781,-64,0.278260869565217,37,0.160869565217391,129,-0.629268292682927,
14127414,3027.34375,4576,-2.80564071122011,-15296,-9.37829552421827,-3200,1.96198651134273,-11,1.82926829268293,-30,0.670731707317073,6,-0.365853658536585,-63,0.273913043478261,39,0.169565217391304,129,-0.629268292682927,
14128054,3046.875,4592,-2.81545064377682,-15280,-9.36848559166156,-3248,1.99141630901288,-14,2.07317073170732,-34,0.853658536585366,-2,0.121951219512195,-63,0.273913043478261,35,0.152173913043478,130,-0.634146341463415,
14128694,3066.40625,4544,-2.78602084610668,-15216,-9.3292458614347,-3312,2.03065603923973,-13,2.13414634146341,-35,0.792682926829268,-8,0.487804878048781,-64,0.278260869565217,38,0.165217391304348,131,-0.639024390243902,
14129334,3085.9375,4560,-2.7958307786634,-15248,-9.34886572654813,-3312,2.03065603923973,-19,2.37804878048781,-39,1.15853658536585,-10,0.609756097560976,-63,0.273913043478261,38,0.165217391304348,129,-0.629268292682927,
14129974,3105.46875,4624,-2.83507050889025,-15280,-9.36848559166156,-3264,2.00122624156959,-20,2.5609756097561,-42,1.21951219512195,-7,0.426829268292683,-62,0.269565217391304,36,0.156521739130435,130,-0.634146341463415,
14130614,3125,4560,-2.7958307786634,-15264,-9.35867565910484,-3280,2.0110361741263,-15,2.6219512195122,-43,0.914634146341463,-2,0.121951219512195,-66,0.28695652173913,35,0.152173913043478,131,-0.639024390243902,
14131254,3144.53125,4592,-2.81545064377682,-15264,-9.35867565910484,-3312,2.03065603923973,-12,2.5609756097561,-42,0.731707317073171,1,-0.0609756097560976,-65,0.282608695652174,40,0.173913043478261,129,-0.629268292682927,
14131894,3164.0625,4624,-2.83507050889025,-15312,-9.38810545677498,-3408,2.08951563458001,-9,2.74390243902439,-45,0.548780487804878,-2,0.121951219512195,-63,0.273913043478261,34,0.147826086956522,130,-0.634146341463415,
14132534,3183.59375,4560,-2.7958307786634,-15280,-9.36848559166156,-3280,2.0110361741263,-12,2.98780487804878,-49,0.731707317073171,-6,0.365853658536585,-63,0.273913043478261,36,0.156521739130435,129,-0.629268292682927,
14133174,3203.125,4496,-2.75659104843654,-15280,-9.36848559166156,-3280,2.0110361741263,-12,3.23170731707317,-53,0.731707317073171,-9,0.548780487804878,-65,0.282608695652174,40,0.173913043478261,131,-0.639024390243902,
14133814,3222.65625,4512,-2.76640098099326,-15216,-9.3292458614347,-3296,2.02084610668302,-6,3.23170731707317,-53,0.365853658536585,-5,0.304878048780488,-63,0.273913043478261,35,0.152173913043478,130,-0.634146341463415,
14134454,3242.1875,4496,-2.75659104843654,-15232,-9.33905579399141,-3344,2.05027590435316,-1,3.23170731707317,-53,0.0609756097560976,-2,0.121951219512195,-64,0.278260869565217,35,0.152173913043478,131,-0.639024390243902,
14135094,3261.71875,4512,-2.76640098099326,-15280,-9.36848559166156,-3328,2.04046597179644,-6,3.29268292682927,-54,0.365853658536585,-2,0.121951219512195,-65,0.282608695652174,39,0.169565217391304,130,-0.634146341463415,
14135734,3281.25,4512,-2.76640098099326,-15248,-9.34886572654813,-3264,2.00122624156959,-16,3.41463414634146,-56,0.975609756097561,-6,0.365853658536585,-67,0.291304347826087,40,0.173913043478261,129,-0.629268292682927,
14136374,3300.78125,4576,-2.80564071122011,-15280,-9.36848559166156,-3184,1.95217657878602,-16,3.47560975609756,-57,0.975609756097561,-9,0.548780487804878,-64,0.278260869565217,35,0.152173913043478,131,-0.639024390243902,
14137014,3320.3125,4560,-2.7958307786634,-15312,-9.38810545677498,-3200,1.96198651134273,-15,3.47560975609756,-57,0.914634146341463,-10,0.609756097560976,-65,0.282608695652174,35,0.152173913043478,130,-0.634146341463415,
14137654,3339.84375,4544,-2.78602084610668,-15296,-9.37829552421827,-3136,1.92274678111588,-11,3.47560975609756,-57,0.670731707317073,-11,0.670731707317073,-62,0.269565217391304,40,0.173913043478261,129,-0.629268292682927,
14138294,3359.375,4560,-2.7958307786634,-15264,-9.35867565910484,-3184,1.95217657878602,-11,3.17073170731707,-52,0.670731707317073,-10,0.609756097560976,-63,0.273913043478261,37,0.160869565217391,130,-0.634146341463415,
14138934,3378.90625,4512,-2.76640098099326,-15232,-9.33905579399141,-3216,1.97179644389945,-11,3.17073170731707,-52,0.670731707317073,-4,0.24390243902439,-65,0.282608695652174,37,0.160869565217391,131,-0.639024390243902,
14139574,3398.4375,4544,-2.78602084610668,-15296,-9.37829552421827,-3216,1.97179644389945,-14,3.17073170731707,-52,0.853658536585366,-2,0.121951219512195,-65,0.282608695652174,37,0.160869565217391,129,-0.629268292682927,
14140214,3417.96875,4544,-2.78602084610668,-15216,-9.3292458614347,-3248,1.99141630901288,-14,3.17073170731707,-52,0.853658536585366,-4,0.24390243902439,-63,0.273913043478261,36,0.156521739130435,130,-0.634146341463415,
14140854,3437.5,4592,-2.81545064377682,-15264,-9.35867565910484,-3184,1.95217657878602,-12,2.92682926829268,-48,0.731707317073171,-7,0.426829268292683,-63,0.273913043478261,35,0.152173913043478,130,-0.634146341463415,
14141494,3457.03125,4576,-2.80564071122011,-15200,-9.31943592887799,-3184,1.95217657878602,-11,2.98780487804878,-49,0.670731707317073,-7,0.426829268292683,-64,0.278260869565217,39,0.169565217391304,131,-0.639024390243902,
14142134,3476.5625,4544,-2.78602084610668,-15248,-9.34886572654813,-3168,1.94236664622931,-12,2.68292682926829,-44,0.731707317073171,-5,0.304878048780488,-65,0.282608695652174,39,0.169565217391304,131,-0.639024390243902,
14142774,3496.09375,4544,-2.78602084610668,-15280,-9.36848559166156,-3104,1.90312691600245,-13,2.74390243902439,-45,0.792682926829268,-4,0.24390243902439,-63,0.273913043478261,40,0.173913043478261,129,-0.629268292682927,
14143414,3515.625,4592,-2.81545064377682,-15344,-9.40772532188841,-3168,1.94236664622931,-16,2.5609756097561,-42,0.975609756097561,-5,0.304878048780488,-64,0.278260869565217,36,0.156521739130435,131,-0.639024390243902,
14144054,3535.15625,4560,-2.7958307786634,-15296,-9.37829552421827,-3152,1.93255671367259,-17,2.68292682926829,-44,1.03658536585366,-7,0.426829268292683,-67,0.291304347826087,40,0.173913043478261,130,-0.634146341463415,
14144694,3554.6875,4528,-2.77621091354997,-15264,-9.35867565910484,-3184,1.95217657878602,-15,2.6219512195122,-43,0.914634146341463,-5,0.304878048780488,-64,0.278260869565217,37,0.160869565217391,130,-0.634146341463415,
14145334,3574.21875,4528,-2.77621091354997,-15232,-9.33905579399141,-3216,1.97179644389945,-9,2.5609756097561,-42,0.548780487804878,-9,0.548780487804878,-64,0.278260869565217,35,0.152173913043478,130,-0.634146341463415,
14145974,3593.75,4480,-2.74678111587983,-15168,-9.29981606376456,-3472,2.12875536480687,-5,2.4390243902439,-40,0.304878048780488,-8,0.487804878048781,-64,0.278260869565217,35,0.152173913043478,131,-0.639024390243902,
14146614,3613.28125,4496,-2.75659104843654,-15216,-9.3292458614347,-3616,2.21704475781729,5,2.31707317073171,-38,-0.304878048780488,-6,0.365853658536585,-64,0.278260869565217,38,0.165217391304348,129,-0.629268292682927,
14147254,3632.8125,4560,-2.7958307786634,-15264,-9.35867565910484,-3776,2.31514408338443,19,2.6219512195122,-43,-1.15853658536585,0,0,-63,0.273913043478261,39,0.169565217391304,130,-0.634146341463415,
14147894,3652.34375,4640,-2.84488044144697,-15344,-9.40772532188841,-4080,2.50153280196199,33,3.29268292682927,-54,-2.01219512195122,6,-0.365853658536585,-64,0.278260869565217,37,0.160869565217391,131,-0.639024390243902,
14148534,3671.875,4976,-3.05088902513795,-15216,-9.3292458614347,-4400,2.69773145309626,46,3.59756097560976,-59,-2.80487804878049,3,-0.182926829268293,-66,0.28695652173913,37,0.160869565217391,131,-0.639024390243902,
14149174,3691.40625,5920,-3.62967504598406,-15248,-9.34886572654813,-5376,3.29613733905579,158,2.19512195121951,-36,-9.63414634146342,-7,0.426829268292683,-65,0.282608695652174,38,0.165217391304348,128,-0.624390243902439,
14149814,3710.9375,7152,-4.38503985285101,-15280,-9.36848559166156,-6800,4.16922133660331,344,1.52439024390244,-25,-20.9756097560976,-32,1.95121951219512,-65,0.282608695652174,37,0.160869565217391,129,-0.629268292682927,
14150454,3730.46875,8704,-5.33660331085224,-15824,-9.70202329858982,-8448,5.17964438994482,712,4.87804878048781,-80,-43.4146341463415,-45,2.74390243902439,-64,0.278260869565217,40,0.173913043478261,130,-0.634146341463415,
14151094,3750,10144,-6.21949724095647,-16304,-9.99632127529123,-10704,6.56284488044145,1140,16.0975609756098,-264,-69.5121951219512,-108,6.58536585365854,-63,0.273913043478261,39,0.169565217391304,130,-0.634146341463415,
14151734,3769.53125,10800,-6.62170447578173,-16304,-9.99632127529123,-12000,7.35744941753525,1379,26.8292682926829,-440,-84.0853658536585,-212,12.9268292682927,-59,0.256521739130435,35,0.152173913043478,129,-0.629268292682927,
14152374,3789.0625,10992,-6.73942366646229,-16208,-9.93746167995095,-11664,7.15144083384427,1441,37.6219512195122,-617,-87.8658536585366,-349,21.280487804878,-58,0.252173913043478,36,0.156521739130435,130,-0.634146341463415,
14153014,3808.59375,11776,-7.22011036174126,-15984,-9.80012262415696,-11792,7.22992029429798,1342,47.2560975609756,-775,-81.8292682926829,-588,35.8536585365854,-59,0.256521739130435,37,0.160869565217391,131,-0.639024390243902,
14153654,3828.125,13184,-8.08338442673207,-16464,-10.0944206008584,-13200,8.09319435928878,1293,60.0609756097561,-985,-78.8414634146341,-777,47.3780487804878,-59,0.256521739130435,37,0.160869565217391,131,-0.639024390243902,
14154294,3847.65625,14656,-8.98589822194972,-16736,-10.2611894543225,-13776,8.44635193133047,1415,76.4024390243902,-1253,-86.2804878048781,-970,59.1463414634146,-56,0.243478260869565,34,0.147826086956522,133,-0.648780487804878,
14154934,3867.1875,15200,-9.31943592887799,-16320,-10.0061312078479,-12816,7.85775597792765,1717,89.9390243902439,-1475,-104.69512195122,-1139,69.4512195121951,-57,0.247826086956522,33,0.143478260869565,135,-0.658536585365854,
14155574,3886.71875,15040,-9.22133660331085,-16480,-10.1042305334151,-12896,7.90680564071122,2135,100.914634146341,-1655,-130.182926829268,-1201,73.2317073170732,-58,0.252173913043478,36,0.156521739130435,132,-0.64390243902439,
14156214,3906.25,13408,-8.22072348252606,-17024,-10.4377682403433,-13776,8.44635193133047,2345,113.414634146341,-1860,-142.987804878049,-1263,77.0121951219512,-54,0.234782608695652,33,0.143478260869565,136,-0.663414634146342,
14156854,3925.78125,11328,-6.94543225015328,-17008,-10.4279583077866,-13712,8.40711220110362,2181,126.036585365854,-2067,-132.987804878049,-1301,79.3292682926829,-54,0.234782608695652,30,0.130434782608696,137,-0.668292682926829,
14157494,3945.3125,10240,-6.27835683629675,-16896,-10.3592887798896,-13520,8.28939301042305,1963,133.658536585366,-2192,-119.69512195122,-1301,79.3292682926829,-54,0.234782608695652,30,0.130434782608696,139,-0.678048780487805,
14158134,3964.84375,9712,-5.9546290619252,-17360,-10.6437768240343,-13264,8.13243408951563,1840,139.817073170732,-2293,-112.19512195122,-1279,77.9878048780488,-50,0.217391304347826,26,0.11304347826087,142,-0.692682926829268,
14158774,3984.375,8752,-5.36603310852238,-17632,-10.8105456774985,-12432,7.62231759656652,1746,145,-2378,-106.463414634146,-1251,76.280487804878,-48,0.208695652173913,22,0.0956521739130435,144,-0.702439024390244,
14159414,4003.90625,7472,-4.58123850398528,-17104,-10.4868179031269,-11408,6.99448191293685,1649,147.378048780488,-2417,-100.548780487805,-1180,71.9512195121951,-48,0.208695652173913,23,0.1,145,-0.707317073170732,
14160054,4023.4375,6384,-3.91416309012876,-16352,-10.0257510729614,-10720,6.57265481299816,1473,143.780487804878,-2358,-89.8170731707317,-1078,65.7317073170732,-47,0.204347826086957,22,0.0956521739130435,148,-0.721951219512195,
14160694,4042.96875,5024,-3.08031882280809,-15520,-9.51563458001226,-10704,6.56284488044145,1335,138.780487804878,-2276,-81.4024390243902,-950,57.9268292682927,-43,0.18695652173913,14,0.0608695652173913,150,-0.731707317073171,
14161334,4062.5,4032,-2.47210300429185,-14368,-8.80931943592888,-11136,6.82771305947272,1214,132.256097560976,-2169,-74.0243902439024,-782,47.6829268292683,-42,0.182608695652174,10,0.0434782608695652,153,-0.746341463414634,
14161974,4082.03125,3248,-1.99141630901288,-13280,-8.14224402207235,-11328,6.94543225015328,1109,124.146341463415,-2036,-67.6219512195122,-542,33.0487804878049,-43,0.18695652173913,12,0.0521739130434783,154,-0.751219512195122,
14162614,4101.5625,1808,-1.10852237890864,-12304,-7.54383813611281,-11040,6.76885346413243,1010,115.426829268293,-1893,-61.5853658536585,-264,16.0975609756098,-40,0.173913043478261,7,0.0304347826086957,156,-0.760975609756098,
14163254,4121.09375,1600,-0.980993255671367,-11760,-7.21030042918455,-10928,6.70018393623544,907,107.317073170732,-1760,-55.3048780487805,0,0,-37,0.160869565217391,2,0.00869565217391304,157,-0.765853658536585,
14163894,4140.625,1760,-1.0790925812385,-11616,-7.12201103617413,-10608,6.50398528510116,933,99.8780487804878,-1638,-56.890243902439,251,-15.3048780487805,-34,0.147826086956522,4,0.0173913043478261,155,-0.75609756097561,
14164534,4160.15625,992,-0.608215818516248,-10896,-6.68056407112201,-9456,5.79767014101778,976,91.4634146341463,-1500,-59.5121951219512,464,-28.2926829268293,-36,0.156521739130435,1,0.00434782608695652,156,-0.760975609756098,
14165174,4179.6875,432,-0.264868179031269,-10448,-6.40588595953403,-9152,5.61128142244022,1029,82.3170731707317,-1350,-62.7439024390244,633,-38.5975609756098,-30,0.130434782608696,-5,-0.0217391304347826,155,-0.75609756097561,
14165814,4199.21875,0,0,-10240,-6.27835683629675,-9104,5.58185162477008,1037,75.3048780487805,-1235,-63.2317073170732,749,-45.6707317073171,-29,0.126086956521739,-7,-0.0304347826086957,158,-0.770731707317073,
14166454,4218.75,-176,0.10790925812385,-10016,-6.14101778050276,-9200,5.64071122011036,1002,70.4878048780488,-1156,-61.0975609756098,822,-50.1219512195122,-28,0.121739130434783,-11,-0.0478260869565217,154,-0.751219512195122,
14167094,4238.28125,-48,0.029429797670141,-9152,-5.61128142244022,-9312,5.70938074800736,933,65.4878048780488,-1074,-56.890243902439,836,-50.9756097560976,-21,0.091304347826087,-14,-0.0608695652173913,156,-0.760975609756098,
14167734,4257.8125,-96,0.058859595340282,-8512,-5.21888412017167,-9424,5.77805027590435,902,62.8048780487805,-1030,-55,814,-49.6341463414634,-19,0.0826086956521739,-20,-0.0869565217391304,155,-0.75609756097561,
14168374,4277.34375,-416,0.255058246474555,-7632,-4.67933782955242,-8960,5.49356223175966,784,61.2804878048781,-1005,-47.8048780487805,712,-43.4146341463415,-18,0.0782608695652174,-20,-0.0869565217391304,154,-0.751219512195122,
14169014,4296.875,-496,0.304107909258124,-6192,-3.79644389944819,-9232,5.66033108522379,609,58.719512195122,-963,-37.1341463414634,552,-33.6585365853659,-16,0.0695652173913043,-23,-0.1,155,-0.75609756097561,
14169654,4316.40625,-320,0.196198651134273,-5520,-3.38442673206622,-9616,5.89576946658492,468,56.5243902439024,-927,-28.5365853658537,385,-23.4756097560976,-16,0.0695652173913043,-22,-0.0956521739130435,154,-0.751219512195122,
14170294,4335.9375,-480,0.29429797670141,-5312,-3.25689760882894,-9632,5.90557939914163,403,55.6707317073171,-913,-24.5731707317073,219,-13.3536585365854,-15,0.0652173913043478,-22,-0.0956521739130435,154,-0.751219512195122,
14170934,4355.46875,-512,0.313917841814838,-4736,-2.90374003678725,-9824,6.02329858982219,337,53.2317073170732,-873,-20.5487804878049,68,-4.14634146341463,-14,0.0608695652173913,-26,-0.11304347826087,152,-0.741463414634146,
14171574,4375,-192,0.117719190680564,-4416,-2.70754138565297,-10224,6.26854690374004,366,50.3048780487805,-825,-22.3170731707317,-48,2.92682926829268,-13,0.0565217391304348,-26,-0.11304347826087,154,-0.751219512195122,
14172214,4394.53125,-720,0.441446965052115,-4064,-2.49172286940527,-10160,6.22930717351318,391,46.3414634146341,-760,-23.8414634146341,-109,6.64634146341464,-11,0.0478260869565217,-33,-0.143478260869565,155,-0.75609756097561,
14172854,4414.0625,-848,0.519926425505825,-3664,-2.24647455548743,-10512,6.44512568976088,353,40.7317073170732,-668,-21.5243902439024,-142,8.65853658536586,-10,0.0434782608695652,-31,-0.134782608695652,153,-0.746341463414634,
14173494,4433.59375,-1184,0.725935009196812,-3424,-2.09932556713673,-10880,6.6707541385653,336,34.8170731707317,-571,-20.4878048780488,-108,6.58536585365854,-11,0.0478260869565217,-29,-0.126086956521739,152,-0.741463414634146,
14174134,4453.125,-1312,0.804414469650521,-2896,-1.77559779276517,-11232,6.886572654813,264,28.9024390243902,-474,-16.0975609756098,-63,3.84146341463415,-7,0.0304347826086957,-35,-0.152173913043478,153,-0.746341463414634,
14174774,4472.65625,-1184,0.725935009196812,-2640,-1.61863887185776,-11488,7.04353157572042,188,22.6219512195122,-371,-11.4634146341463,-30,1.82926829268293,-7,0.0304347826086957,-36,-0.156521739130435,153,-0.746341463414634,
14175414,4492.1875,-752,0.461066830165543,-2352,-1.44206008583691,-11904,7.29858982219497,136,17.3780487804878,-285,-8.29268292682927,-28,1.70731707317073,-7,0.0304347826086957,-33,-0.143478260869565,151,-0.736585365853659,
14176054,4511.71875,-480,0.29429797670141,-2336,-1.4322501532802,-12352,7.57326793378295,160,12.5,-205,-9.75609756097561,-32,1.95121951219512,-6,0.0260869565217391,-34,-0.147826086956522,151,-0.736585365853659,
14176694,4531.25,-784,0.48068669527897,-2144,-1.31453096259963,-12944,7.93623543838136,202,9.45121951219512,-155,-12.3170731707317,-46,2.80487804878049,-9,0.0391304347826087,-30,-0.130434782608696,149,-0.726829268292683,
14177334,4550.78125,-1440,0.88289393010423,-2080,-1.27529123237278,-13440,8.24034334763948,172,6.70731707317073,-110,-10.4878048780488,-57,3.47560975609756,-7,0.0304347826086957,-36,-0.156521739130435,149,-0.726829268292683,
14177974,4570.3125,-1296,0.794604537093807,-1888,-1.15757204169221,-14112,8.65236051502146,45,4.57317073170732,-75,-2.74390243902439,-84,5.1219512195122,-9,0.0391304347826087,-30,-0.130434782608696,150,-0.731707317073171,
14178614,4589.84375,-896,0.549356223175966,-2112,-1.2949110974862,-14832,9.09380748007357,25,3.35365853658537,-55,-1.52439024390244,-93,5.67073170731707,-9,0.0391304347826087,-31,-0.134782608695652,150,-0.731707317073171,
14179254,4609.375,-1104,0.676885346413243,-2160,-1.32434089515635,-15328,9.3979153893317,119,3.35365853658537,-55,-7.25609756097561,-90,5.48780487804878,-7,0.0304347826086957,-30,-0.130434782608696,150,-0.731707317073171,
14179894,4628.90625,-1472,0.902513795217658,-2160,-1.32434089515635,-15504,9.50582464745555,167,2.92682926829268,-48,-10.1829268292683,-94,5.73170731707317,-7,0.0304347826086957,-31,-0.134782608695652,149,-0.726829268292683,
14180534,4648.4375,-2032,1.24586143470264,-2096,-1.28510116492949,-15632,9.58430410790926,132,2.19512195121951,-36,-8.04878048780488,-93,5.67073170731707,-6,0.0260869565217391,-32,-0.139130434782609,148,-0.721951219512195,
14181174,4667.96875,-2368,1.45187001839362,-2128,-1.30472103004292,-15984,9.80012262415696,0,0.853658536585366,-14,0,-87,5.30487804878049,-8,0.0347826086956522,-32,-0.139130434782609,151,-0.736585365853659,
14181814,4687.5,-2320,1.42244022072348,-2224,-1.3635806253832,-16400,10.0551808706315,-139,0.304878048780488,-5,8.47560975609756,-72,4.39024390243902,-8,0.0347826086956522,-33,-0.143478260869565,149,-0.726829268292683,
14182454,4707.03125,-2064,1.26548129981606,-2192,-1.34396076026977,-16704,10.2415695892091,-185,0.0609756097560976,-1,11.280487804878,-46,2.80487804878049,-6,0.0260869565217391,-34,-0.147826086956522,150,-0.731707317073171,
14183094,4726.5625,-2656,1.62844880441447,-2176,-1.33415082771306,-16736,10.2611894543225,-288,-0.792682926829268,13,17.5609756097561,-35,2.13414634146341,-7,0.0304347826086957,-31,-0.134782608695652,151,-0.736585365853659,
14183734,4746.09375,-2976,1.82464745554874,-2112,-1.2949110974862,-16720,10.2513795217658,-672,-0.24390243902439,4,40.9756097560976,-50,3.04878048780488,-7,0.0304347826086957,-35,-0.152173913043478,152,-0.741463414634146,
14184374,4765.625,-1968,1.20662170447578,-2096,-1.28510116492949,-16752,10.2709993868792,-1076,1.21951219512195,-20,65.609756097561,-66,4.02439024390244,-11,0.0478260869565217,-32,-0.139130434782609,150,-0.731707317073171,
14185014,4785.15625,-272,0.166768853464132,-2304,-1.41263028816677,-16864,10.3396689147762,-1167,2.80487804878049,-46,71.1585365853659,-45,2.74390243902439,-11,0.0478260869565217,-32,-0.139130434782609,155,-0.75609756097561,
14185654,4804.6875,1040,-0.637645616186389,-2288,-1.40282035561006,-16608,10.1827099938688,-963,4.08536585365854,-67,58.719512195122,-9,0.548780487804878,-14,0.0608695652173913,-35,-0.152173913043478,156,-0.760975609756098,
14186294,4824.21875,1648,-1.01042305334151,-2096,-1.28510116492949,-16496,10.1140404659718,-615,4.08536585365854,-67,37.5,17,-1.03658536585366,-17,0.0739130434782609,-33,-0.143478260869565,156,-0.760975609756098,
14186934,4843.75,1600,-0.980993255671367,-2048,-1.25567136725935,-16496,10.1140404659718,-285,3.41463414634146,-56,17.3780487804878,40,-2.4390243902439,-17,0.0739130434782609,-33,-0.143478260869565,158,-0.770731707317073,
14187574,4863.28125,1552,-0.951563458001226,-2016,-1.23605150214592,-16720,10.2513795217658,-7,3.35365853658537,-55,0.426829268292683,61,-3.71951219512195,-17,0.0739130434782609,-34,-0.147826086956522,158,-0.770731707317073,
14188214,4882.8125,1360,-0.833844267320662,-2096,-1.28510116492949,-16704,10.2415695892091,158,4.26829268292683,-70,-9.63414634146342,67,-4.08536585365854,-15,0.0652173913043478,-32,-0.139130434782609,158,-0.770731707317073,
14188854,4902.34375,1168,-0.716125076640098,-1824,-1.11833231146536,-16624,10.1925199264255,270,4.9390243902439,-81,-16.4634146341463,75,-4.57317073170732,-16,0.0695652173913043,-32,-0.139130434782609,157,-0.765853658536585,
14189494,4921.875,992,-0.608215818516248,-2192,-1.34396076026977,-16640,10.2023298589822,397,5.24390243902439,-86,-24.2073170731707,80,-4.87804878048781,-14,0.0608695652173913,-36,-0.156521739130435,158,-0.770731707317073,
14190134,4941.40625,576,-0.353157572041692,-2080,-1.27529123237278,-16672,10.2219497240956,487,7.01219512195122,-115,-29.6951219512195,71,-4.32926829268293,-14,0.0608695652173913,-37,-0.160869565217391,156,-0.760975609756098,
14190774,4960.9375,64,-0.0392397302268547,-2208,-1.35377069282649,-16448,10.0846106683017,455,7.4390243902439,-122,-27.7439024390244,54,-3.29268292682927,-13,0.0565217391304348,-33,-0.143478260869565,156,-0.760975609756098,
14191414,4980.46875,-160,0.0980993255671367,-2048,-1.25567136725935,-16304,9.99632127529123,326,7.92682926829268,-130,-19.8780487804878,29,-1.76829268292683,-12,0.0521739130434783,-34,-0.147826086956522,154,-0.751219512195122,
14192054,5000,-112,0.0686695278969957,-2000,-1.22624156958921,-16256,9.96689147762109,185,7.86585365853659,-129,-11.280487804878,9,-0.548780487804878,-11,0.0478260869565217,-30,-0.130434782608696,151,-0.736585365853659,
14192694,5019.53125,32,-0.0196198651134273,-1984,-1.2164316370325,-16192,9.92765174739424,85,8.10975609756098,-133,-5.18292682926829,-14,0.853658536585366,-10,0.0434782608695652,-36,-0.156521739130435,156,-0.760975609756098,
14193334,5039.0625,64,-0.0392397302268547,-1808,-1.10852237890864,-15968,9.79031269160024,33,8.41463414634146,-138,-2.01219512195122,-26,1.58536585365854,-10,0.0434782608695652,-34,-0.147826086956522,155,-0.75609756097561,
14193974,5058.59375,16,-0.00980993255671367,-1648,-1.01042305334151,-16000,9.80993255671367,36,8.41463414634146,-138,-2.19512195121951,-37,2.25609756097561,-11,0.0478260869565217,-35,-0.152173913043478,154,-0.751219512195122,
14194614,5078.125,0,0,-1616,-0.990803188228081,-16000,9.80993255671367,39,7.74390243902439,-127,-2.37804878048781,-48,2.92682926829268,-11,0.0478260869565217,-36,-0.156521739130435,155,-0.75609756097561,
14195254,5097.65625,-144,0.088289393010423,-1440,-0.88289393010423,-16016,9.81974248927039,47,7.5,-123,-2.86585365853659,-54,3.29268292682927,-11,0.0478260869565217,-34,-0.147826086956522,153,-0.746341463414634,
14195894,5117.1875,-176,0.10790925812385,-1584,-0.971183323114654,-15920,9.7608828939301,82,6.70731707317073,-110,-5,-57,3.47560975609756,-10,0.0434782608695652,-37,-0.160869565217391,154,-0.751219512195122,
14196534,5136.71875,-240,0.147148988350705,-1440,-0.88289393010423,-16000,9.80993255671367,147,6.28048780487805,-103,-8.96341463414634,-51,3.10975609756098,-11,0.0478260869565217,-34,-0.147826086956522,152,-0.741463414634146,
14197174,5156.25,-592,0.362967504598406,-1488,-0.912323727774372,-16048,9.83936235438381,216,5.79268292682927,-95,-13.1707317073171,-35,2.13414634146341,-12,0.0521739130434783,-33,-0.143478260869565,153,-0.746341463414634,
14197814,5175.78125,-976,0.598405885959534,-1392,-0.853464132434089,-16112,9.87860208461067,212,5.30487804878049,-87,-12.9268292682927,-27,1.64634146341463,-11,0.0478260869565217,-34,-0.147826086956522,154,-0.751219512195122,
14198454,5195.3125,-1136,0.696505211526671,-1424,-0.873083997547517,-16128,9.88841201716738,155,5,-82,-9.45121951219512,-22,1.34146341463415,-9,0.0391304347826087,-38,-0.165217391304348,154,-0.751219512195122,
14199094,5214.84375,-1184,0.725935009196812,-1376,-0.843654199877376,-16208,9.93746167995095,80,4.39024390243902,-72,-4.87804878048781,-14,0.853658536585366,-8,0.0347826086956522,-39,-0.169565217391304,155,-0.75609756097561,
14199734,5234.375,-1152,0.706315144083384,-1472,-0.902513795217658,-16288,9.98651134273452,41,4.45121951219512,-73,-2.5,2,-0.121951219512195,-9,0.0391304347826087,-36,-0.156521739130435,152,-0.741463414634146,
14200374,5253.90625,-1056,0.647455548743102,-1440,-0.88289393010423,-16256,9.96689147762109,36,4.02439024390244,-66,-2.19512195121951,22,-1.34146341463415,-8,0.0347826086956522,-34,-0.147826086956522,152,-0.741463414634146,
14201014,5273.4375,-800,0.490496627835684,-1456,-0.892703862660944,-16112,9.87860208461067,63,3.29268292682927,-54,-3.84146341463415,33,-2.01219512195122,-10,0.0434782608695652,-31,-0.134782608695652,150,-0.731707317073171,
14201654,5292.96875,-784,0.48068669527897,-1456,-0.892703862660944,-16000,9.80993255671367,98,2.86585365853659,-47,-5.97560975609756,38,-2.31707317073171,-8,0.0347826086956522,-30,-0.130434782608696,152,-0.741463414634146,
14202294,5312.5,-688,0.421827099938688,-1552,-0.951563458001226,-16272,9.9767014101778,143,2.5609756097561,-42,-8.71951219512195,41,-2.5,-10,0.0434782608695652,-33,-0.143478260869565,151,-0.736585365853659,
14202934,5332.03125,-688,0.421827099938688,-1664,-1.02023298589822,-16176,9.91784181483752,168,2.92682926829268,-48,-10.2439024390244,49,-2.98780487804878,-9,0.0391304347826087,-30,-0.130434782608696,152,-0.741463414634146,
14203574,5351.5625,-816,0.500306560392397,-1504,-0.922133660331085,-16192,9.92765174739424,161,2.92682926829268,-48,-9.81707317073171,46,-2.80487804878049,-9,0.0391304347826087,-31,-0.134782608695652,151,-0.736585365853659,
14204214,5371.09375,-880,0.539546290619252,-1520,-0.931943592887799,-16240,9.95708154506438,112,2.5609756097561,-42,-6.82926829268293,30,-1.82926829268293,-8,0.0347826086956522,-37,-0.160869565217391,152,-0.741463414634146,
14204854,5390.625,-816,0.500306560392397,-1552,-0.951563458001226,-16192,9.92765174739424,59,2.5609756097561,-42,-3.59756097560976,22,-1.34146341463415,-10,0.0434782608695652,-32,-0.139130434782609,150,-0.731707317073171,
14205494,5410.15625,-832,0.510116492949111,-1472,-0.902513795217658,-16224,9.94727161250766,36,2.5609756097561,-42,-2.19512195121951,12,-0.731707317073171,-6,0.0260869565217391,-39,-0.169565217391304,152,-0.741463414634146,
14206134,5429.6875,-672,0.412017167381974,-1616,-0.990803188228081,-16288,9.98651134273452,32,2.74390243902439,-45,-1.95121951219512,9,-0.548780487804878,-6,0.0260869565217391,-34,-0.147826086956522,151,-0.736585365853659,
14206774,5449.21875,-560,0.343347639484979,-1584,-0.971183323114654,-16160,9.90803188228081,56,2.98780487804878,-49,-3.41463414634146,6,-0.365853658536585,-8,0.0347826086956522,-32,-0.139130434782609,150,-0.731707317073171,
14207414,5468.75,-704,0.431637032495402,-1504,-0.922133660331085,-16192,9.92765174739424,78,3.17073170731707,-52,-4.75609756097561,-4,0.24390243902439,-6,0.0260869565217391,-39,-0.169565217391304,151,-0.736585365853659,
14208054,5488.28125,-864,0.529736358062538,-1536,-0.941753525444513,-16160,9.90803188228081,61,3.53658536585366,-58,-3.71951219512195,-15,0.914634146341463,-7,0.0304347826086957,-35,-0.152173913043478,152,-0.741463414634146,
14208694,5507.8125,-1024,0.627835683629675,-1488,-0.912323727774372,-16080,9.85898221949724,27,3.47560975609756,-57,-1.64634146341463,-27,1.64634146341463,-8,0.0347826086956522,-35,-0.152173913043478,152,-0.741463414634146,
14209334,5527.34375,-912,0.559166155732679,-1472,-0.902513795217658,-16144,9.89822194972409,40,3.04878048780488,-50,-2.4390243902439,-30,1.82926829268293,-6,0.0260869565217391,-39,-0.169565217391304,153,-0.746341463414634,
14209974,5546.875,-960,0.58859595340282,-1440,-0.88289393010423,-16144,9.89822194972409,80,2.4390243902439,-40,-4.87804878048781,-22,1.34146341463415,-6,0.0260869565217391,-33,-0.143478260869565,149,-0.726829268292683,
14210614,5566.40625,-1120,0.686695278969957,-1504,-0.922133660331085,-16192,9.92765174739424,120,2.01219512195122,-33,-7.31707317073171,-13,0.792682926829268,-8,0.0347826086956522,-33,-0.143478260869565,150,-0.731707317073171,
14211254,5585.9375,-1280,0.784794604537094,-1568,-0.96137339055794,-16160,9.90803188228081,143,1.52439024390244,-25,-8.71951219512195,6,-0.365853658536585,-6,0.0260869565217391,-34,-0.147826086956522,150,-0.731707317073171,
14211894,5605.46875,-1408,0.863274064990803,-1600,-0.980993255671367,-16240,9.95708154506438,125,1.40243902439024,-23,-7.6219512195122,13,-0.792682926829268,-8,0.0347826086956522,-32,-0.139130434782609,148,-0.721951219512195,
14212534,5625,-1424,0.873083997547517,-1552,-0.951563458001226,-16368,10.0355610055181,103,1.21951219512195,-20,-6.28048780487805,25,-1.52439024390244,-9,0.0391304347826087,-36,-0.156521739130435,150,-0.731707317073171,
14213174,5644.53125,-1376,0.843654199877376,-1648,-1.01042305334151,-16480,10.1042305334151,93,1.82926829268293,-30,-5.67073170731707,26,-1.58536585365854,-7,0.0304347826086957,-36,-0.156521739130435,150,-0.731707317073171,
14213814,5664.0625,-1408,0.863274064990803,-1680,-1.03004291845494,-16448,10.0846106683017,79,2.37804878048781,-39,-4.81707317073171,23,-1.40243902439024,-5,0.0217391304347826,-37,-0.160869565217391,148,-0.721951219512195,
14214454,5683.59375,-1440,0.88289393010423,-1680,-1.03004291845494,-16288,9.98651134273452,50,2.74390243902439,-45,-3.04878048780488,16,-0.975609756097561,-5,0.0217391304347826,-38,-0.165217391304348,151,-0.736585365853659,
14215094,5703.125,-1408,0.863274064990803,-1648,-1.01042305334151,-16320,10.0061312078479,20,3.04878048780488,-50,-1.21951219512195,9,-0.548780487804878,-6,0.0260869565217391,-35,-0.152173913043478,148,-0.721951219512195,
14215734,5722.65625,-1376,0.843654199877376,-1696,-1.03985285101165,-16304,9.99632127529123,10,2.98780487804878,-49,-0.609756097560976,9,-0.548780487804878,-5,0.0217391304347826,-34,-0.147826086956522,148,-0.721951219512195,
14216374,5742.1875,-1280,0.784794604537094,-1792,-1.09871244635193,-16112,9.87860208461067,13,3.23170731707317,-53,-0.792682926829268,7,-0.426829268292683,-7,0.0304347826086957,-36,-0.156521739130435,149,-0.726829268292683,
14217014,5761.71875,-1360,0.833844267320662,-1664,-1.02023298589822,-16080,9.85898221949724,-3,2.68292682926829,-44,0.182926829268293,5,-0.304878048780488,-7,0.0304347826086957,-31,-0.134782608695652,149,-0.726829268292683,
14217654,5781.25,-1232,0.755364806866953,-1600,-0.980993255671367,-16112,9.87860208461067,-1,2.4390243902439,-40,0.0609756097560976,4,-0.24390243902439,-6,0.0260869565217391,-35,-0.152173913043478,149,-0.726829268292683,
14218294,5800.78125,-1136,0.696505211526671,-1632,-1.00061312078479,-16288,9.98651134273452,44,1.89024390243902,-31,-2.68292682926829,6,-0.365853658536585,-6,0.0260869565217391,-33,-0.143478260869565,150,-0.731707317073171,
14218934,5820.3125,-1328,0.814224402207235,-1616,-0.990803188228081,-16304,9.99632127529123,86,2.5,-41,-5.24390243902439,9,-0.548780487804878,-5,0.0217391304347826,-39,-0.169565217391304,151,-0.736585365853659,
14219574,5839.84375,-1600,0.980993255671367,-1712,-1.04966278356836,-16368,10.0355610055181,86,2.6219512195122,-43,-5.24390243902439,13,-0.792682926829268,-5,0.0217391304347826,-34,-0.147826086956522,149,-0.726829268292683,
14220214,5859.375,-1584,0.971183323114654,-1744,-1.06928264868179,-16448,10.0846106683017,51,2.74390243902439,-45,-3.10975609756098,13,-0.792682926829268,-4,0.0173913043478261,-35,-0.152173913043478,148,-0.721951219512195,
14220854,5878.90625,-1616,0.990803188228081,-1728,-1.05947271612508,-16464,10.0944206008584,17,3.29268292682927,-54,-1.03658536585366,9,-0.548780487804878,-6,0.0260869565217391,-38,-0.165217391304348,151,-0.736585365853659,
14221494,5898.4375,-1568,0.96137339055794,-1696,-1.03985285101165,-16352,10.0257510729614,1,3.29268292682927,-54,-0.0609756097560976,7,-0.426829268292683,-6,0.0260869565217391,-38,-0.165217391304348,149,-0.726829268292683,
14222134,5917.96875,-1456,0.892703862660944,-1632,-1.00061312078479,-16448,10.0846106683017,9,3.35365853658537,-55,-0.548780487804878,12,-0.731707317073171,-4,0.0173913043478261,-36,-0.156521739130435,149,-0.726829268292683,
14222774,5937.5,-1552,0.951563458001226,-1552,-0.951563458001226,-16400,10.0551808706315,25,3.84146341463415,-63,-1.52439024390244,18,-1.09756097560976,-7,0.0304347826086957,-31,-0.134782608695652,148,-0.721951219512195,
14223414,5957.03125,-1584,0.971183323114654,-1456,-0.892703862660944,-16320,10.0061312078479,21,4.20731707317073,-69,-1.28048780487805,22,-1.34146341463415,-4,0.0173913043478261,-32,-0.139130434782609,148,-0.721951219512195,
14224054,5976.5625,-1568,0.96137339055794,-1424,-0.873083997547517,-16320,10.0061312078479,6,4.45121951219512,-73,-0.365853658536585,14,-0.853658536585366,-5,0.0217391304347826,-33,-0.143478260869565,149,-0.726829268292683,
14224694,5996.09375,-1552,0.951563458001226,-1440,-0.88289393010423,-16320,10.0061312078479,-7,4.57317073170732,-75,0.426829268292683,5,-0.304878048780488,-7,0.0304347826086957,-35,-0.152173913043478,149,-0.726829268292683,
14225334,6015.625,-1504,0.922133660331085,-1520,-0.931943592887799,-16208,9.93746167995095,-5,4.51219512195122,-74,0.304878048780488,3,-0.182926829268293,-4,0.0173913043478261,-39,-0.169565217391304,149,-0.726829268292683,
14225974,6035.15625,-1552,0.951563458001226,-1536,-0.941753525444513,-16144,9.89822194972409,6,4.87804878048781,-80,-0.365853658536585,5,-0.304878048780488,-6,0.0260869565217391,-36,-0.156521739130435,148,-0.721951219512195,
14226614,6054.6875,-1600,0.980993255671367,-1456,-0.892703862660944,-16112,9.87860208461067,1,4.69512195121951,-77,-0.0609756097560976,2,-0.121951219512195,-6,0.0260869565217391,-33,-0.143478260869565,149,-0.726829268292683,
14227254,6074.21875,-1648,1.01042305334151,-1504,-0.922133660331085,-16080,9.85898221949724,-28,4.51219512195122,-74,1.70731707317073,-8,0.487804878048781,-2,0.00869565217391304,-39,-0.169565217391304,150,-0.731707317073171,
14227894,6093.75,-1536,0.941753525444513,-1424,-0.873083997547517,-15968,9.79031269160024,-45,4.45121951219512,-73,2.74390243902439,-8,0.487804878048781,-7,0.0304347826086957,-38,-0.165217391304348,148,-0.721951219512195,
14228534,6113.28125,-1440,0.88289393010423,-1424,-0.873083997547517,-15888,9.74126302881668,-36,3.78048780487805,-62,2.19512195121951,-3,0.182926829268293,-2,0.00869565217391304,-35,-0.152173913043478,148,-0.721951219512195,
14229174,6132.8125,-1360,0.833844267320662,-1392,-0.853464132434089,-15808,9.69221336603311,-21,3.23170731707317,-53,1.28048780487805,5,-0.304878048780488,-6,0.0260869565217391,-31,-0.134782608695652,149,-0.726829268292683,
14229814,6152.34375,-1440,0.88289393010423,-1312,-0.804414469650521,-15776,9.67259350091968,-21,2.31707317073171,-38,1.28048780487805,12,-0.731707317073171,-5,0.0217391304347826,-39,-0.169565217391304,151,-0.736585365853659,
14230454,6171.875,-1360,0.833844267320662,-1360,-0.833844267320662,-15840,9.71183323114654,-29,1.64634146341463,-27,1.76829268292683,10,-0.609756097560976,-6,0.0260869565217391,-39,-0.169565217391304,150,-0.731707317073171,
14231094,6191.40625,-1248,0.765174739423666,-1440,-0.88289393010423,-15904,9.75107296137339,-27,0.914634146341463,-15,1.64634146341463,14,-0.853658536585366,-7,0.0304347826086957,-33,-0.143478260869565,149,-0.726829268292683,
14231734,6210.9375,-1152,0.706315144083384,-1424,-0.873083997547517,-15968,9.79031269160024,1,0.121951219512195,-2,-0.0609756097560976,15,-0.914634146341463,-3,0.0130434782608696,-39,-0.169565217391304,149,-0.726829268292683,
14232374,6230.46875,-1152,0.706315144083384,-1504,-0.922133660331085,-16016,9.81974248927039,20,-0.121951219512195,2,-1.21951219512195,13,-0.792682926829268,-5,0.0217391304347826,-35,-0.152173913043478,150,-0.731707317073171,
14233014,6250,-1152,0.706315144083384,-1472,-0.902513795217658,-16096,9.86879215205395,43,-0.121951219512195,2,-2.6219512195122,9,-0.548780487804878,-5,0.0217391304347826,-34,-0.147826086956522,149,-0.726829268292683,
14233654,6269.53125,-1120,0.686695278969957,-1536,-0.941753525444513,-16192,9.92765174739424,66,-0.365853658536585,6,-4.02439024390244,-1,0.0609756097560976,-3,0.0130434782608696,-36,-0.156521739130435,148,-0.721951219512195,
14234294,6289.0625,-1184,0.725935009196812,-1696,-1.03985285101165,-16256,9.96689147762109,104,-0.24390243902439,4,-6.34146341463415,-8,0.487804878048781,-3,0.0130434782608696,-35,-0.152173913043478,148,-0.721951219512195,
14234934,6308.59375,-1280,0.784794604537094,-1680,-1.03004291845494,-16240,9.95708154506438,135,0.182926829268293,-3,-8.23170731707317,-16,0.975609756097561,-7,0.0304347826086957,-35,-0.152173913043478,147,-0.717073170731707,
14235574,6328.125,-1584,0.971183323114654,-1712,-1.04966278356836,-16288,9.98651134273452,128,0.304878048780488,-5,-7.80487804878049,-26,1.58536585365854,-5,0.0217391304347826,-32,-0.139130434782609,148,-0.721951219512195,
14236214,6347.65625,-1824,1.11833231146536,-1632,-1.00061312078479,-16336,10.0159411404047,62,0.853658536585366,-14,-3.78048780487805,-38,2.31707317073171,-2,0.00869565217391304,-38,-0.165217391304348,150,-0.731707317073171,
14236854,6367.1875,-1744,1.06928264868179,-1648,-1.01042305334151,-16512,10.1238503985285,8,1.15853658536585,-19,-0.487804878048781,-46,2.80487804878049,-4,0.0173913043478261,-36,-0.156521739130435,148,-0.721951219512195,
14237494,6386.71875,-1616,0.990803188228081,-1760,-1.0790925812385,-16784,10.2906192519926,31,1.70731707317073,-28,-1.89024390243902,-35,2.13414634146341,-7,0.0304347826086957,-34,-0.147826086956522,147,-0.717073170731707,
14238134,6406.25,-1808,1.10852237890864,-1792,-1.09871244635193,-16672,10.2219497240956,53,2.25609756097561,-37,-3.23170731707317,-23,1.40243902439024,-2,0.00869565217391304,-36,-0.156521739130435,148,-0.721951219512195,
14238774,6425.78125,-1904,1.16738197424893,-1840,-1.12814224402207,-16736,10.2611894543225,39,2.68292682926829,-44,-2.37804878048781,-22,1.34146341463415,-4,0.0173913043478261,-37,-0.160869565217391,149,-0.726829268292683,
14239414,6445.3125,-1936,1.18700183936235,-1904,-1.16738197424893,-16704,10.2415695892091,11,3.47560975609756,-57,-0.670731707317073,-21,1.28048780487805,-3,0.0130434782608696,-32,-0.139130434782609,149,-0.726829268292683,
14240054,6464.84375,-1904,1.16738197424893,-1840,-1.12814224402207,-16768,10.2808093194359,5,4.20731707317073,-69,-0.304878048780488,-24,1.46341463414634,-6,0.0260869565217391,-33,-0.143478260869565,146,-0.712195121951219,
14240694,6484.375,-1872,1.1477621091355,-1792,-1.09871244635193,-16784,10.2906192519926,3,4.9390243902439,-81,-0.182926829268293,-19,1.15853658536585,-5,0.0217391304347826,-30,-0.130434782608696,146,-0.712195121951219,
14241334,6503.90625,-1856,1.13795217657879,-1984,-1.2164316370325,-16752,10.2709993868792,7,5.42682926829268,-89,-0.426829268292683,-14,0.853658536585366,-6,0.0260869565217391,-32,-0.139130434782609,148,-0.721951219512195,
14241974,6523.4375,-1792,1.09871244635193,-1856,-1.13795217657879,-16672,10.2219497240956,17,6.15853658536585,-101,-1.03658536585366,-10,0.609756097560976,-4,0.0173913043478261,-30,-0.130434782608696,145,-0.707317073170732,
14242614,6542.96875,-1760,1.0790925812385,-1840,-1.12814224402207,-16528,10.1336603310852,32,6.58536585365854,-108,-1.95121951219512,-5,0.304878048780488,-6,0.0260869565217391,-28,-0.121739130434783,146,-0.712195121951219,
14243254,6562.5,-1776,1.08890251379522,-1728,-1.05947271612508,-16256,9.96689147762109,25,6.82926829268293,-112,-1.52439024390244,-6,0.365853658536585,-6,0.0260869565217391,-36,-0.156521739130435,147,-0.717073170731707,
14243894,6582.03125,-1744,1.06928264868179,-1712,-1.04966278356836,-16224,9.94727161250766,9,6.89024390243902,-113,-0.548780487804878,-14,0.853658536585366,-5,0.0217391304347826,-34,-0.147826086956522,146,-0.712195121951219,
14244534,6601.5625,-1680,1.03004291845494,-1664,-1.02023298589822,-16224,9.94727161250766,14,6.89024390243902,-113,-0.853658536585366,-19,1.15853658536585,-4,0.0173913043478261,-35,-0.152173913043478,146,-0.712195121951219,
14245174,6621.09375,-1776,1.08890251379522,-1616,-0.990803188228081,-16112,9.87860208461067,23,6.64634146341464,-109,-1.40243902439024,-16,0.975609756097561,-4,0.0173913043478261,-38,-0.165217391304348,148,-0.721951219512195,
14245814,6640.625,-1856,1.13795217657879,-1552,-0.951563458001226,-16032,9.8295524218271,17,6.21951219512195,-102,-1.03658536585366,-15,0.914634146341463,-5,0.0217391304347826,-30,-0.130434782608696,147,-0.717073170731707,
14246454,6660.15625,-1840,1.12814224402207,-1472,-0.902513795217658,-16032,9.8295524218271,-4,5.97560975609756,-98,0.24390243902439,-13,0.792682926829268,-6,0.0260869565217391,-34,-0.147826086956522,147,-0.717073170731707,
14247094,6679.6875,-1760,1.0790925812385,-1488,-0.912323727774372,-16032,9.8295524218271,8,5.79268292682927,-95,-0.487804878048781,-8,0.487804878048781,-3,0.0130434782608696,-38,-0.165217391304348,148,-0.721951219512195,
14247734,6699.21875,-1808,1.10852237890864,-1408,-0.863274064990803,-16096,9.86879215205395,25,5.36585365853659,-88,-1.52439024390244,-6,0.365853658536585,-4,0.0173913043478261,-32,-0.139130434782609,145,-0.707317073170732,
14248374,6718.75,-1872,1.1477621091355,-1456,-0.892703862660944,-16048,9.83936235438381,35,4.9390243902439,-81,-2.13414634146341,-2,0.121951219512195,-2,0.00869565217391304,-39,-0.169565217391304,147,-0.717073170731707,
14249014,6738.28125,-1936,1.18700183936235,-1424,-0.873083997547517,-15984,9.80012262415696,20,4.9390243902439,-81,-1.21951219512195,4,-0.24390243902439,-2,0.00869565217391304,-40,-0.173913043478261,148,-0.721951219512195,
14249654,6757.8125,-1872,1.1477621091355,-1344,-0.824034334763949,-16064,9.84917228694053,8,4.45121951219512,-73,-0.487804878048781,6,-0.365853658536585,-4,0.0173913043478261,-33,-0.143478260869565,149,-0.726829268292683,
14250294,6777.34375,-1808,1.10852237890864,-1408,-0.863274064990803,-16096,9.86879215205395,3,4.26829268292683,-70,-0.182926829268293,1,-0.0609756097560976,-4,0.0173913043478261,-35,-0.152173913043478,148,-0.721951219512195,
14250934,6796.875,-1808,1.10852237890864,-1488,-0.912323727774372,-16112,9.87860208461067,8,4.08536585365854,-67,-0.487804878048781,0,0,-5,0.0217391304347826,-36,-0.156521739130435,146,-0.712195121951219,
14251574,6816.40625,-1888,1.15757204169221,-1392,-0.853464132434089,-16032,9.8295524218271,6,4.14634146341463,-68,-0.365853658536585,4,-0.24390243902439,-3,0.0130434782608696,-38,-0.165217391304348,148,-0.721951219512195,
14252214,6835.9375,-1760,1.0790925812385,-1424,-0.873083997547517,-16064,9.84917228694053,-1,3.90243902439024,-64,0.0609756097560976,1,-0.0609756097560976,-2,0.00869565217391304,-36,-0.156521739130435,147,-0.717073170731707,
14252854,6855.46875,-1680,1.03004291845494,-1408,-0.863274064990803,-16096,9.86879215205395,7,3.47560975609756,-57,-0.426829268292683,3,-0.182926829268293,-3,0.0130434782608696,-35,-0.152173913043478,145,-0.707317073170732,
14253494,6875,-1808,1.10852237890864,-1440,-0.88289393010423,-16112,9.87860208461067,15,3.35365853658537,-55,-0.914634146341463,5,-0.304878048780488,-1,0.00434782608695652,-37,-0.160869565217391,148,-0.721951219512195,
14254134,6894.53125,-1920,1.17719190680564,-1408,-0.863274064990803,-16160,9.90803188228081,11,3.23170731707317,-53,-0.670731707317073,4,-0.24390243902439,-3,0.0130434782608696,-39,-0.169565217391304,149,-0.726829268292683,
14254774,6914.0625,-1904,1.16738197424893,-1376,-0.843654199877376,-16128,9.88841201716738,-7,3.04878048780488,-50,0.426829268292683,6,-0.365853658536585,-2,0.00869565217391304,-36,-0.156521739130435,147,-0.717073170731707,
14255414,6933.59375,-1856,1.13795217657879,-1312,-0.804414469650521,-16112,9.87860208461067,-1,3.10975609756098,-51,0.0609756097560976,9,-0.548780487804878,-2,0.00869565217391304,-38,-0.165217391304348,147,-0.717073170731707,
14256054,6953.125,-1904,1.16738197424893,-1360,-0.833844267320662,-16096,9.86879215205395,15,2.86585365853659,-47,-0.914634146341463,9,-0.548780487804878,-3,0.0130434782608696,-39,-0.169565217391304,148,-0.721951219512195,
14256694,6972.65625,-1808,1.10852237890864,-1360,-0.833844267320662,-16048,9.83936235438381,8,2.74390243902439,-45,-0.487804878048781,10,-0.609756097560976,-2,0.00869565217391304,-39,-0.169565217391304,148,-0.721951219512195,
14257334,6992.1875,-1792,1.09871244635193,-1392,-0.853464132434089,-16240,9.95708154506438,12,2.31707317073171,-38,-0.731707317073171,5,-0.304878048780488,-2,0.00869565217391304,-39,-0.169565217391304,147,-0.717073170731707,
14257974,7011.71875,-1744,1.06928264868179,-1344,-0.824034334763949,-16240,9.95708154506438,18,2.19512195121951,-36,-1.09756097560976,7,-0.426829268292683,-1,0.00434782608695652,-39,-0.169565217391304,147,-0.717073170731707,
14258614,7031.25,-1872,1.1477621091355,-1408,-0.863274064990803,-16208,9.93746167995095,14,2.5609756097561,-42,-0.853658536585366,10,-0.609756097560976,-4,0.0173913043478261,-35,-0.152173913043478,147,-0.717073170731707,
14259254,7050.78125,-1728,1.05947271612508,-1376,-0.843654199877376,-16208,9.93746167995095,1,2.6219512195122,-43,-0.0609756097560976,3,-0.182926829268293,-2,0.00869565217391304,-36,-0.156521739130435,148,-0.721951219512195,
14259894,7070.3125,-1664,1.02023298589822,-1472,-0.902513795217658,-16304,9.99632127529123,5,2.74390243902439,-45,-0.304878048780488,-3,0.182926829268293,-2,0.00869565217391304,-40,-0.173913043478261,147,-0.717073170731707,
14260534,7089.84375,-1840,1.12814224402207,-1440,-0.88289393010423,-16256,9.96689147762109,17,2.98780487804878,-49,-1.03658536585366,-4,0.24390243902439,-2,0.00869565217391304,-39,-0.169565217391304,149,-0.726829268292683,
14261174,7109.375,-1952,1.19681177191907,-1456,-0.892703862660944,-16336,10.0159411404047,9,3.10975609756098,-51,-0.548780487804878,-6,0.365853658536585,-4,0.0173913043478261,-38,-0.165217391304348,146,-0.712195121951219,
14261814,7128.90625,-1936,1.18700183936235,-1408,-0.863274064990803,-16384,10.0453709380748,1,3.47560975609756,-57,-0.0609756097560976,-14,0.853658536585366,-2,0.00869565217391304,-35,-0.152173913043478,146,-0.712195121951219,
14262454,7148.4375,-1856,1.13795217657879,-1440,-0.88289393010423,-16320,10.0061312078479,15,3.23170731707317,-53,-0.914634146341463,-9,0.548780487804878,-1,0.00434782608695652,-40,-0.173913043478261,148,-0.721951219512195,
14263094,7167.96875,-1952,1.19681177191907,-1456,-0.892703862660944,-16240,9.95708154506438,22,3.41463414634146,-56,-1.34146341463415,-7,0.426829268292683,-1,0.00434782608695652,-38,-0.165217391304348,148,-0.721951219512195,
14263734,7187.5,-2000,1.22624156958921,-1424,-0.873083997547517,-16304,9.99632127529123,7,3.47560975609756,-57,-0.426829268292683,-11,0.670731707317073,-4,0.0173913043478261,-34,-0.147826086956522,145,-0.707317073170732,
14264374,7207.03125,-1952,1.19681177191907,-1328,-0.814224402207235,-16352,10.0257510729614,-15,3.65853658536585,-60,0.914634146341463,-14,0.853658536585366,-1,0.00434782608695652,-38,-0.165217391304348,147,-0.717073170731707,
14265014,7226.5625,-1952,1.19681177191907,-1360,-0.833844267320662,-16432,10.0748007357449,-6,3.84146341463415,-63,0.365853658536585,-11,0.670731707317073,-4,0.0173913043478261,-40,-0.173913043478261,147,-0.717073170731707,
14265654,7246.09375,-1840,1.12814224402207,-1456,-0.892703862660944,-16416,10.0649908031882,24,4.26829268292683,-70,-1.46341463414634,-7,0.426829268292683,-3,0.0130434782608696,-39,-0.169565217391304,148,-0.721951219512195,
14266294,7265.625,-1872,1.1477621091355,-1392,-0.853464132434089,-16272,9.9767014101778,36,4.39024390243902,-72,-2.19512195121951,-7,0.426829268292683,-2,0.00869565217391304,-40,-0.173913043478261,145,-0.707317073170732,
14266934,7285.15625,-1984,1.2164316370325,-1472,-0.902513795217658,-16240,9.95708154506438,31,4.26829268292683,-70,-1.89024390243902,-10,0.609756097560976,-1,0.00434782608695652,-35,-0.152173913043478,144,-0.702439024390244,
14267574,7304.6875,-1968,1.20662170447578,-1344,-0.824034334763949,-16208,9.93746167995095,-8,4.32926829268293,-71,0.487804878048781,-16,0.975609756097561,-2,0.00869565217391304,-33,-0.143478260869565,146,-0.712195121951219,
14268214,7324.21875,-1808,1.10852237890864,-1360,-0.833844267320662,-16304,9.99632127529123,-30,4.14634146341463,-68,1.82926829268293,-15,0.914634146341463,-5,0.0217391304347826,-33,-0.143478260869565,145,-0.707317073170732,
14268854,7343.75,-1712,1.04966278356836,-1328,-0.814224402207235,-16272,9.9767014101778,-21,4.26829268292683,-70,1.28048780487805,-13,0.792682926829268,-6,0.0260869565217391,-40,-0.173913043478261,147,-0.717073170731707,
14269494,7363.28125,-1744,1.06928264868179,-1280,-0.784794604537094,-16192,9.92765174739424,4,4.63414634146342,-76,-0.24390243902439,-19,1.15853658536585,-4,0.0173913043478261,-37,-0.160869565217391,146,-0.712195121951219,
14270134,7382.8125,-1856,1.13795217657879,-1392,-0.853464132434089,-16128,9.88841201716738,16,4.75609756097561,-78,-0.975609756097561,-26,1.58536585365854,-4,0.0173913043478261,-33,-0.143478260869565,144,-0.702439024390244,
14270774,7402.34375,-1856,1.13795217657879,-1312,-0.804414469650521,-16032,9.8295524218271,-3,4.9390243902439,-81,0.182926829268293,-32,1.95121951219512,-2,0.00869565217391304,-36,-0.156521739130435,145,-0.707317073170732,
14271414,7421.875,-1824,1.11833231146536,-1216,-0.745554874310239,-16032,9.8295524218271,-4,4.51219512195122,-74,0.24390243902439,-37,2.25609756097561,0,0,-39,-0.169565217391304,147,-0.717073170731707,
14272054,7441.40625,-1760,1.0790925812385,-1312,-0.804414469650521,-16064,9.84917228694053,17,3.96341463414634,-65,-1.03658536585366,-42,2.5609756097561,-3,0.0130434782608696,-32,-0.139130434782609,144,-0.702439024390244,
14272694,7460.9375,-2000,1.22624156958921,-1360,-0.833844267320662,-15952,9.78050275904353,41,3.71951219512195,-61,-2.5,-34,2.07317073170732,-4,0.0173913043478261,-34,-0.147826086956522,144,-0.702439024390244,
14273334,7480.46875,-2192,1.34396076026977,-1248,-0.765174739423666,-15856,9.72164316370325,26,3.71951219512195,-61,-1.58536585365854,-31,1.89024390243902,-6,0.0260869565217391,-36,-0.156521739130435,145,-0.707317073170732,
14273974,7500,-1952,1.19681177191907,-1232,-0.755364806866953,-15776,9.67259350091968,-22,3.41463414634146,-56,1.34146341463415,-31,1.89024390243902,-4,0.0173913043478261,-34,-0.147826086956522,145,-0.707317073170732,
14274614,7519.53125,-1504,0.922133660331085,-1328,-0.814224402207235,-15616,9.57449417535254,-8,2.80487804878049,-46,0.487804878048781,-32,1.95121951219512,-3,0.0130434782608696,-33,-0.143478260869565,143,-0.697560975609756,
14275254,7539.0625,-1600,0.980993255671367,-1328,-0.814224402207235,-15472,9.48620478234212,51,1.76829268292683,-29,-3.10975609756098,-41,2.5,-2,0.00869565217391304,-35,-0.152173913043478,144,-0.702439024390244,
14275894,7558.59375,-1520,0.931943592887799,-1312,-0.804414469650521,-15424,9.45677498467198,116,0.914634146341463,-15,-7.07317073170732,-50,3.04878048780488,-5,0.0217391304347826,-34,-0.147826086956522,145,-0.707317073170732,
14276534,7578.125,-1696,1.03985285101165,-1264,-0.77498467198038,-15504,9.50582464745555,170,0,0,-10.3658536585366,-62,3.78048780487805,-5,0.0217391304347826,-33,-0.143478260869565,145,-0.707317073170732,
14277174,7597.65625,-2032,1.24586143470264,-1232,-0.755364806866953,-15680,9.6137339055794,171,-0.853658536585366,14,-10.4268292682927,-71,4.32926829268293,-3,0.0130434782608696,-33,-0.143478260869565,144,-0.702439024390244,
14277814,7617.1875,-2400,1.47148988350705,-1248,-0.765174739423666,-15968,9.79031269160024,85,-1.52439024390244,25,-5.18292682926829,-74,4.51219512195122,-3,0.0130434782608696,-29,-0.126086956521739,145,-0.707317073170732,
14278454,7636.71875,-2544,1.55977927651747,-1328,-0.814224402207235,-16160,9.90803188228081,-28,-1.15853658536585,19,1.70731707317073,-65,3.96341463414634,0,0,-37,-0.160869565217391,144,-0.702439024390244,
14279094,7656.25,-2400,1.47148988350705,-1296,-0.794604537093807,-16512,10.1238503985285,-75,-1.03658536585366,17,4.57317073170732,-51,3.10975609756098,-2,0.00869565217391304,-33,-0.143478260869565,144,-0.702439024390244,
14279734,7675.78125,-2160,1.32434089515635,-1328,-0.814224402207235,-16752,10.2709993868792,-44,-0.609756097560976,10,2.68292682926829,-36,2.19512195121951,-4,0.0173913043478261,-33,-0.143478260869565,144,-0.702439024390244,
14280374,7695.3125,-2064,1.26548129981606,-1392,-0.853464132434089,-16816,10.3102391171061,4,-0.304878048780488,5,-0.24390243902439,-26,1.58536585365854,-3,0.0130434782608696,-29,-0.126086956521739,143,-0.697560975609756,
14281014,7714.84375,-2176,1.33415082771306,-1488,-0.912323727774372,-16800,10.3004291845494,51,0.24390243902439,-4,-3.10975609756098,-23,1.40243902439024,-3,0.0130434782608696,-35,-0.152173913043478,146,-0.712195121951219,
14281654,7734.375,-2416,1.48129981606376,-1504,-0.922133660331085,-16816,10.3102391171061,58,1.58536585365854,-26,-3.53658536585366,-26,1.58536585365854,-4,0.0173913043478261,-34,-0.147826086956522,144,-0.702439024390244,
14282294,7753.90625,-2432,1.49110974862048,-1632,-1.00061312078479,-16768,10.2808093194359,15,2.4390243902439,-40,-0.914634146341463,-27,1.64634146341463,-3,0.0130434782608696,-33,-0.143478260869565,143,-0.697560975609756,
14282934,7773.4375,-2304,1.41263028816677,-1680,-1.03004291845494,-16640,10.2023298589822,4,2.92682926829268,-48,-0.24390243902439,-26,1.58536585365854,-2,0.00869565217391304,-31,-0.134782608695652,143,-0.697560975609756,
14283574,7792.96875,-2352,1.44206008583691,-1680,-1.03004291845494,-16592,10.1729000613121,23,3.53658536585366,-58,-1.40243902439024,-26,1.58536585365854,-5,0.0217391304347826,-32,-0.139130434782609,145,-0.707317073170732,
14284214,7812.5,-2480,1.52053954629062,-1648,-1.01042305334151,-16496,10.1140404659718,11,3.71951219512195,-61,-0.670731707317073,-28,1.70731707317073,-2,0.00869565217391304,-36,-0.156521739130435,146,-0.712195121951219,
14284854,7832.03125,-2480,1.52053954629062,-1632,-1.00061312078479,-16368,10.0355610055181,-26,3.96341463414634,-65,1.58536585365854,-21,1.28048780487805,-3,0.0130434782608696,-33,-0.143478260869565,146,-0.712195121951219,
14285494,7851.5625,-2320,1.42244022072348,-1648,-1.01042305334151,-16272,9.9767014101778,-45,4.51219512195122,-74,2.74390243902439,-10,0.609756097560976,-3,0.0130434782608696,-30,-0.130434782608696,144,-0.702439024390244,
14286134,7871.09375,-2144,1.31453096259963,-1584,-0.971183323114654,-16240,9.95708154506438,-34,4.63414634146342,-76,2.07317073170732,-2,0.121951219512195,-4,0.0173913043478261,-28,-0.121739130434783,144,-0.702439024390244,
14286774,7890.625,-2096,1.28510116492949,-1536,-0.941753525444513,-16160,9.90803188228081,-13,4.39024390243902,-72,0.792682926829268,-1,0.0609756097560976,-3,0.0130434782608696,-29,-0.126086956521739,145,-0.707317073170732,
14287414,7910.15625,-2128,1.30472103004292,-1536,-0.941753525444513,-16064,9.84917228694053,9,4.32926829268293,-71,-0.548780487804878,-8,0.487804878048781,-2,0.00869565217391304,-32,-0.139130434782609,142,-0.692682926829268,
14288054,7929.6875,-2192,1.34396076026977,-1472,-0.902513795217658,-15984,9.80012262415696,24,3.90243902439024,-64,-1.46341463414634,-14,0.853658536585366,0,0,-34,-0.147826086956522,146,-0.712195121951219,
14288694,7949.21875,-2192,1.34396076026977,-1504,-0.922133660331085,-16096,9.86879215205395,30,4.14634146341463,-68,-1.82926829268293,-15,0.914634146341463,-3,0.0130434782608696,-29,-0.126086956521739,142,-0.692682926829268,
14289334,7968.75,-2224,1.3635806253832,-1472,-0.902513795217658,-16000,9.80993255671367,18,3.65853658536585,-60,-1.09756097560976,-8,0.487804878048781,-5,0.0217391304347826,-32,-0.139130434782609,145,-0.707317073170732,
14289974,7988.28125,-2240,1.37339055793991,-1536,-0.941753525444513,-16096,9.86879215205395,7,3.17073170731707,-52,-0.426829268292683,-9,0.548780487804878,-3,0.0130434782608696,-33,-0.143478260869565,144,-0.702439024390244,
14290614,8007.8125,-2112,1.2949110974862,-1472,-0.902513795217658,-16224,9.94727161250766,1,3.35365853658537,-55,-0.0609756097560976,-2,0.121951219512195,1,-0.00434782608695652,-38,-0.165217391304348,145,-0.707317073170732,
14291254,8027.34375,-2128,1.30472103004292,-1536,-0.941753525444513,-16144,9.89822194972409,11,3.10975609756098,-51,-0.670731707317073,5,-0.304878048780488,-2,0.00869565217391304,-35,-0.152173913043478,144,-0.702439024390244,
14291894,8046.875,-2208,1.35377069282649,-1536,-0.941753525444513,-16160,9.90803188228081,-3,3.17073170731707,-52,0.182926829268293,7,-0.426829268292683,-3,0.0130434782608696,-32,-0.139130434782609,143,-0.697560975609756,
14292534,8066.40625,-2128,1.30472103004292,-1472,-0.902513795217658,-16208,9.93746167995095,-39,3.29268292682927,-54,2.37804878048781,8,-0.487804878048781,-4,0.0173913043478261,-34,-0.147826086956522,144,-0.702439024390244,
14293174,8085.9375,-1952,1.19681177191907,-1536,-0.941753525444513,-16240,9.95708154506438,-23,3.17073170731707,-52,1.40243902439024,2,-0.121951219512195,-1,0.00434782608695652,-39,-0.169565217391304,145,-0.707317073170732,
14293814,8105.46875,-1984,1.2164316370325,-1440,-0.88289393010423,-16256,9.96689147762109,15,3.59756097560976,-59,-0.914634146341463,-2,0.121951219512195,-1,0.00434782608695652,-34,-0.147826086956522,146,-0.712195121951219,
14294454,8125,-2016,1.23605150214592,-1376,-0.843654199877376,-16192,9.92765174739424,38,3.84146341463415,-63,-2.31707317073171,-11,0.670731707317073,-2,0.00869565217391304,-36,-0.156521739130435,144,-0.702439024390244,
14295094,8144.53125,-2048,1.25567136725935,-1328,-0.814224402207235,-16240,9.95708154506438,88,3.47560975609756,-57,-5.36585365853659,-17,1.03658536585366,0,0,-39,-0.169565217391304,147,-0.717073170731707,
14295734,8164.0625,-2304,1.41263028816677,-1440,-0.88289393010423,-16224,9.94727161250766,144,3.29268292682927,-54,-8.78048780487805,-11,0.670731707317073,1,-0.00434782608695652,-37,-0.160869565217391,145,-0.707317073170732,
14296374,8183.59375,-2656,1.62844880441447,-1456,-0.892703862660944,-16192,9.92765174739424,159,3.35365853658537,-55,-9.69512195121951,0,0,-2,0.00869565217391304,-30,-0.130434782608696,143,-0.697560975609756,
14297014,8203.125,-2800,1.71673819742489,-1440,-0.88289393010423,-16160,9.90803188228081,102,3.17073170731707,-52,-6.21951219512195,7,-0.426829268292683,1,-0.00434782608695652,-35,-0.152173913043478,144,-0.702439024390244,
14297654,8222.65625,-2704,1.65787860208461,-1440,-0.88289393010423,-16304,9.99632127529123,14,3.04878048780488,-50,-0.853658536585366,11,-0.670731707317073,-1,0.00434782608695652,-37,-0.160869565217391,146,-0.712195121951219,
14298294,8242.1875,-2336,1.4322501532802,-1488,-0.912323727774372,-16176,9.91784181483752,-15,2.92682926829268,-48,0.914634146341463,19,-1.15853658536585,-1,0.00434782608695652,-39,-0.169565217391304,145,-0.707317073170732,
14298934,8261.71875,-2336,1.4322501532802,-1408,-0.863274064990803,-16160,9.90803188228081,22,3.04878048780488,-50,-1.34146341463415,27,-1.64634146341463,0,0,-35,-0.152173913043478,143,-0.697560975609756,
14299574,8281.25,-2400,1.47148988350705,-1424,-0.873083997547517,-16192,9.92765174739424,33,2.68292682926829,-44,-2.01219512195122,26,-1.58536585365854,2,-0.00869565217391304,-39,-0.169565217391304,144,-0.702439024390244,
14300214,8300.78125,-2448,1.50091968117719,-1408,-0.863274064990803,-16192,9.92765174739424,6,2.86585365853659,-47,-0.365853658536585,20,-1.21951219512195,-1,0.00434782608695652,-33,-0.143478260869565,145,-0.707317073170732,
14300854,8320.3125,-2288,1.40282035561006,-1440,-0.88289393010423,-16032,9.8295524218271,-15,3.04878048780488,-50,0.914634146341463,14,-0.853658536585366,-3,0.0130434782608696,-32,-0.139130434782609,142,-0.692682926829268,
14301494,8339.84375,-2048,1.25567136725935,-1456,-0.892703862660944,-15920,9.7608828939301,7,2.80487804878049,-46,-0.426829268292683,10,-0.609756097560976,1,-0.00434782608695652,-34,-0.147826086956522,143,-0.697560975609756,
14302134,8359.375,-2176,1.33415082771306,-1456,-0.892703862660944,-15904,9.75107296137339,44,2.68292682926829,-44,-2.68292682926829,11,-0.670731707317073,-3,0.0130434782608696,-33,-0.143478260869565,143,-0.697560975609756,
14302774,8378.90625,-2256,1.38320049049663,-1456,-0.892703862660944,-15968,9.79031269160024,64,2.5609756097561,-42,-3.90243902439024,4,-0.24390243902439,-2,0.00869565217391304,-33,-0.143478260869565,143,-0.697560975609756,
14303414,8398.4375,-2400,1.47148988350705,-1376,-0.843654199877376,-15872,9.73145309625996,50,2.37804878048781,-39,-3.04878048780488,-5,0.304878048780488,0,0,-35,-0.152173913043478,145,-0.707317073170732,
14304054,8417.96875,-2352,1.44206008583691,-1408,-0.863274064990803,-15984,9.80012262415696,41,2.07317073170732,-34,-2.5,-9,0.548780487804878,2,-0.00869565217391304,-40,-0.173913043478261,145,-0.707317073170732,
14304694,8437.5,-2352,1.44206008583691,-1440,-0.88289393010423,-16096,9.86879215205395,51,1.64634146341463,-27,-3.10975609756098,-4,0.24390243902439,-3,0.0130434782608696,-34,-0.147826086956522,144,-0.702439024390244,
14305334,8457.03125,-2512,1.54015941140405,-1424,-0.873083997547517,-16208,9.93746167995095,47,1.52439024390244,-25,-2.86585365853659,-3,0.182926829268293,2,-0.00869565217391304,-34,-0.147826086956522,143,-0.697560975609756,
14305974,8476.5625,-2544,1.55977927651747,-1456,-0.892703862660944,-16272,9.9767014101778,25,1.46341463414634,-24,-1.52439024390244,5,-0.304878048780488,0,0,-34,-0.147826086956522,143,-0.697560975609756,
14306614,8496.09375,-2576,1.5793991416309,-1488,-0.912323727774372,-16304,9.99632127529123,-2,1.58536585365854,-26,0.121951219512195,7,-0.426829268292683,1,-0.00434782608695652,-36,-0.156521739130435,144,-0.702439024390244,
14307254,8515.625,-2400,1.47148988350705,-1488,-0.912323727774372,-16368,10.0355610055181,-23,1.89024390243902,-31,1.40243902439024,5,-0.304878048780488,-1,0.00434782608695652,-35,-0.152173913043478,143,-0.697560975609756,
14307894,8535.15625,-2320,1.42244022072348,-1504,-0.922133660331085,-16480,10.1042305334151,-16,2.19512195121951,-36,0.975609756097561,5,-0.304878048780488,-2,0.00869565217391304,-32,-0.139130434782609,142,-0.692682926829268,
14308534,8554.6875,-2368,1.45187001839362,-1536,-0.941753525444513,-16368,10.0355610055181,8,2.74390243902439,-45,-0.487804878048781,1,-0.0609756097560976,-1,0.00434782608695652,-32,-0.139130434782609,143,-0.697560975609756,
14309174,8574.21875,-2416,1.48129981606376,-1488,-0.912323727774372,-16400,10.0551808706315,16,3.17073170731707,-52,-0.975609756097561,-5,0.304878048780488,2,-0.00869565217391304,-36,-0.156521739130435,145,-0.707317073170732,
14309814,8593.75,-2432,1.49110974862048,-1552,-0.951563458001226,-16288,9.98651134273452,8,3.41463414634146,-56,-0.487804878048781,-13,0.792682926829268,-2,0.00869565217391304,-32,-0.139130434782609,142,-0.692682926829268,
14310454,8613.28125,-2496,1.53034947884733,-1584,-0.971183323114654,-16256,9.96689147762109,-8,3.71951219512195,-61,0.487804878048781,-18,1.09756097560976,3,-0.0130434782608696,-39,-0.169565217391304,144,-0.702439024390244,
14311094,8632.8125,-2432,1.49110974862048,-1552,-0.951563458001226,-16320,10.0061312078479,-10,3.96341463414634,-65,0.609756097560976,-21,1.28048780487805,-3,0.0130434782608696,-28,-0.121739130434783,141,-0.68780487804878,
14311734,8652.34375,-2528,1.54996934396076,-1600,-0.980993255671367,-16272,9.9767014101778,5,4.14634146341463,-68,-0.304878048780488,-16,0.975609756097561,0,0,-35,-0.152173913043478,144,-0.702439024390244,
14312374,8671.875,-2608,1.59901900674433,-1536,-0.941753525444513,-16096,9.86879215205395,-8,4.51219512195122,-74,0.487804878048781,-17,1.03658536585366,0,0,-37,-0.160869565217391,145,-0.707317073170732,
14313014,8691.40625,-2560,1.56958920907419,-1472,-0.902513795217658,-16048,9.83936235438381,-36,4.39024390243902,-72,2.19512195121951,-21,1.28048780487805,-1,0.00434782608695652,-29,-0.126086956521739,141,-0.68780487804878,
14313654,8710.9375,-2400,1.47148988350705,-1504,-0.922133660331085,-15936,9.77069282648682,-45,4.14634146341463,-68,2.74390243902439,-16,0.975609756097561,1,-0.00434782608695652,-32,-0.139130434782609,141,-0.68780487804878,
14314294,8730.46875,-2352,1.44206008583691,-1616,-0.990803188228081,-15920,9.7608828939301,-27,3.47560975609756,-57,1.64634146341463,-10,0.609756097560976,-2,0.00869565217391304,-29,-0.126086956521739,141,-0.68780487804878,
14314934,8750,-2320,1.42244022072348,-1456,-0.892703862660944,-15936,9.77069282648682,-16,3.10975609756098,-51,0.975609756097561,-7,0.426829268292683,-3,0.0130434782608696,-28,-0.121739130434783,142,-0.692682926829268,
14315574,8769.53125,-2304,1.41263028816677,-1472,-0.902513795217658,-16048,9.83936235438381,3,2.68292682926829,-44,-0.182926829268293,-5,0.304878048780488,0,0,-29,-0.126086956521739,141,-0.68780487804878,
14316214,8789.0625,-2528,1.54996934396076,-1424,-0.873083997547517,-15984,9.80012262415696,5,2.5,-41,-0.304878048780488,-9,0.548780487804878,-3,0.0130434782608696,-32,-0.139130434782609,143,-0.697560975609756,
14316854,8808.59375,-2560,1.56958920907419,-1424,-0.873083997547517,-16016,9.81974248927039,-12,2.68292682926829,-44,0.731707317073171,-20,1.21951219512195,2,-0.00869565217391304,-37,-0.160869565217391,143,-0.697560975609756,
14317494,8828.125,-2368,1.45187001839362,-1456,-0.892703862660944,-15984,9.80012262415696,-42,2.80487804878049,-46,2.5609756097561,-30,1.82926829268293,-2,0.00869565217391304,-30,-0.130434782608696,142,-0.692682926829268,
14318134,8847.65625,-2400,1.47148988350705,-1472,-0.902513795217658,-16000,9.80993255671367,-34,2.86585365853659,-47,2.07317073170732,-26,1.58536585365854,-1,0.00434782608695652,-29,-0.126086956521739,142,-0.692682926829268,
14318774,8867.1875,-2432,1.49110974862048,-1392,-0.853464132434089,-16176,9.91784181483752,-2,2.25609756097561,-37,0.121951219512195,-25,1.52439024390244,0,0,-30,-0.130434782608696,144,-0.702439024390244,
14319414,8886.71875,-2656,1.62844880441447,-1424,-0.873083997547517,-16176,9.91784181483752,6,1.89024390243902,-31,-0.365853658536585,-18,1.09756097560976,-2,0.00869565217391304,-34,-0.147826086956522,142,-0.692682926829268,
14320054,8906.25,-2720,1.66768853464132,-1504,-0.922133660331085,-16112,9.87860208461067,-4,2.25609756097561,-37,0.24390243902439,-17,1.03658536585366,-3,0.0130434782608696,-29,-0.126086956521739,142,-0.692682926829268,
14320694,8925.78125,-2672,1.63825873697118,-1504,-0.922133660331085,-16160,9.90803188228081,-21,2.4390243902439,-40,1.28048780487805,-10,0.609756097560976,-2,0.00869565217391304,-31,-0.134782608695652,143,-0.697560975609756,
14321334,8945.3125,-2576,1.5793991416309,-1424,-0.873083997547517,-16144,9.89822194972409,-9,2.37804878048781,-39,0.548780487804878,-7,0.426829268292683,0,0,-36,-0.156521739130435,143,-0.697560975609756,
14321974,8964.84375,-2624,1.60882893930104,-1424,-0.873083997547517,-16192,9.92765174739424,10,2.13414634146341,-35,-0.609756097560976,0,0,-2,0.00869565217391304,-33,-0.143478260869565,143,-0.697560975609756,
14322614,8984.375,-2720,1.66768853464132,-1472,-0.902513795217658,-16144,9.89822194972409,10,2.01219512195122,-33,-0.609756097560976,2,-0.121951219512195,-1,0.00434782608695652,-30,-0.130434782608696,143,-0.697560975609756,
14323254,9003.90625,-2768,1.69711833231147,-1488,-0.912323727774372,-16160,9.90803188228081,-7,1.76829268292683,-29,0.426829268292683,8,-0.487804878048781,2,-0.00869565217391304,-34,-0.147826086956522,143,-0.697560975609756,
14323894,9023.4375,-2800,1.71673819742489,-1504,-0.922133660331085,-16240,9.95708154506438,-23,2.19512195121951,-36,1.40243902439024,13,-0.792682926829268,0,0,-37,-0.160869565217391,145,-0.707317073170732,
14324534,9042.96875,-2800,1.71673819742489,-1488,-0.912323727774372,-16496,10.1140404659718,-44,2.19512195121951,-36,2.68292682926829,12,-0.731707317073171,-1,0.00434782608695652,-31,-0.134782608695652,141,-0.68780487804878,
14325174,9062.5,-2720,1.66768853464132,-1520,-0.931943592887799,-16592,10.1729000613121,0,2.74390243902439,-45,0,16,-0.975609756097561,-3,0.0130434782608696,-32,-0.139130434782609,143,-0.697560975609756,
14325814,9082.03125,-2784,1.70692826486818,-1568,-0.96137339055794,-16624,10.1925199264255,68,3.23170731707317,-53,-4.14634146341463,25,-1.52439024390244,0,0,-33,-0.143478260869565,141,-0.68780487804878,
14326454,9101.5625,-2928,1.7952176578786,-1664,-1.02023298589822,-16560,10.1532801961987,106,3.71951219512195,-61,-6.46341463414634,41,-2.5,1,-0.00434782608695652,-36,-0.156521739130435,144,-0.702439024390244,
14327094,9121.09375,-3008,1.84426732066217,-1584,-0.971183323114654,-16304,9.99632127529123,76,3.96341463414634,-65,-4.63414634146342,49,-2.98780487804878,0,0,-33,-0.143478260869565,145,-0.707317073170732,
14327734,9140.625,-2880,1.76578786020846,-1568,-0.96137339055794,-16432,10.0748007357449,20,3.90243902439024,-64,-1.21951219512195,59,-3.59756097560976,-1,0.00434782608695652,-34,-0.147826086956522,143,-0.697560975609756,
14328374,9160.15625,-2576,1.5793991416309,-1504,-0.922133660331085,-16272,9.9767014101778,-27,3.65853658536585,-60,1.64634146341463,67,-4.08536585365854,0,0,-38,-0.165217391304348,144,-0.702439024390244,
14329014,9179.6875,-2192,1.34396076026977,-1568,-0.96137339055794,-16176,9.91784181483752,-25,3.71951219512195,-61,1.52439024390244,76,-4.63414634146342,0,0,-36,-0.156521739130435,145,-0.707317073170732,
14329654,9199.21875,-2128,1.30472103004292,-1424,-0.873083997547517,-16064,9.84917228694053,19,3.84146341463415,-63,-1.15853658536585,76,-4.63414634146342,-1,0.00434782608695652,-33,-0.143478260869565,141,-0.68780487804878,
14330294,9218.75,-2080,1.27529123237278,-1408,-0.863274064990803,-15968,9.79031269160024,30,3.96341463414634,-65,-1.82926829268293,65,-3.96341463414634,2,-0.00869565217391304,-39,-0.169565217391304,145,-0.707317073170732,
14330934,9238.28125,-2144,1.31453096259963,-1392,-0.853464132434089,-15904,9.75107296137339,-6,4.39024390243902,-72,0.365853658536585,42,-2.5609756097561,0,0,-33,-0.143478260869565,143,-0.697560975609756,
14331574,9257.8125,-2016,1.23605150214592,-1408,-0.863274064990803,-15872,9.73145309625996,-58,4.57317073170732,-75,3.53658536585366,18,-1.09756097560976,0,0,-31,-0.134782608695652,143,-0.697560975609756,
14332214,9277.34375,-1744,1.06928264868179,-1600,-0.980993255671367,-15696,9.62354383813611,-59,4.51219512195122,-74,3.59756097560976,-6,0.365853658536585,2,-0.00869565217391304,-36,-0.156521739130435,143,-0.697560975609756,
14332854,9296.875,-1792,1.09871244635193,-1424,-0.873083997547517,-15728,9.64316370324954,-3,4.02439024390244,-66,0.182926829268293,-20,1.21951219512195,0,0,-31,-0.134782608695652,140,-0.682926829268293,
14333494,9316.40625,-2064,1.26548129981606,-1360,-0.833844267320662,-15680,9.6137339055794,45,3.47560975609756,-57,-2.74390243902439,-37,2.25609756097561,-1,0.00434782608695652,-35,-0.152173913043478,145,-0.707317073170732,
14334134,9335.9375,-2416,1.48129981606376,-1200,-0.735744941753525,-15744,9.65297363580625,61,2.74390243902439,-45,-3.71951219512195,-44,2.68292682926829,2,-0.00869565217391304,-37,-0.160869565217391,143,-0.697560975609756,
14334774,9355.46875,-2624,1.60882893930104,-1216,-0.745554874310239,-15872,9.73145309625996,36,2.37804878048781,-39,-2.19512195121951,-45,2.74390243902439,2,-0.00869565217391304,-39,-0.169565217391304,144,-0.702439024390244,
14335414,9375,-2672,1.63825873697118,-1216,-0.745554874310239,-16048,9.83936235438381,-24,1.76829268292683,-29,1.46341463414634,-40,2.4390243902439,-2,0.00869565217391304,-33,-0.143478260869565,140,-0.682926829268293,
14336054,9394.53125,-2480,1.52053954629062,-1296,-0.794604537093807,-16032,9.8295524218271,-52,1.21951219512195,-20,3.17073170731707,-21,1.28048780487805,1,-0.00434782608695652,-34,-0.147826086956522,145,-0.707317073170732,
14336694,9414.0625,-2496,1.53034947884733,-1184,-0.725935009196812,-16256,9.96689147762109,-29,1.03658536585366,-17,1.76829268292683,-8,0.487804878048781,2,-0.00869565217391304,-39,-0.169565217391304,144,-0.702439024390244,
14337334,9433.59375,-2624,1.60882893930104,-1344,-0.824034334763949,-16272,9.9767014101778,11,0.670731707317073,-11,-0.670731707317073,-7,0.426829268292683,-2,0.00869565217391304,-29,-0.126086956521739,143,-0.697560975609756,
14337974,9453.125,-2656,1.62844880441447,-1440,-0.88289393010423,-16304,9.99632127529123,7,0.731707317073171,-12,-0.426829268292683,-10,0.609756097560976,-1,0.00434782608695652,-30,-0.130434782608696,142,-0.692682926829268,
14338614,9472.65625,-2672,1.63825873697118,-1424,-0.873083997547517,-16304,9.99632127529123,-10,1.70731707317073,-28,0.609756097560976,-11,0.670731707317073,1,-0.00434782608695652,-37,-0.160869565217391,143,-0.697560975609756,
14339254,9492.1875,-2640,1.61863887185776,-1360,-0.833844267320662,-16432,10.0748007357449,-38,2.01219512195122,-33,2.31707317073171,-17,1.03658536585366,2,-0.00869565217391304,-38,-0.165217391304348,142,-0.692682926829268,
14339894,9511.71875,-2592,1.58920907418761,-1456,-0.892703862660944,-16496,10.1140404659718,-41,2.31707317073171,-38,2.5,-19,1.15853658536585,2,-0.00869565217391304,-38,-0.165217391304348,145,-0.707317073170732,
14340534,9531.25,-2528,1.54996934396076,-1632,-1.00061312078479,-16400,10.0551808706315,-21,2.86585365853659,-47,1.28048780487805,-19,1.15853658536585,1,-0.00434782608695652,-35,-0.152173913043478,143,-0.697560975609756,
14341174,9550.78125,-2592,1.58920907418761,-1568,-0.96137339055794,-16304,9.99632127529123,-2,3.35365853658537,-55,0.121951219512195,-15,0.914634146341463,3,-0.0130434782608696,-36,-0.156521739130435,145,-0.707317073170732,
14341814,9570.3125,-2544,1.55977927651747,-1440,-0.88289393010423,-16352,10.0257510729614,-2,3.53658536585366,-58,0.121951219512195,-14,0.853658536585366,-2,0.00869565217391304,-33,-0.143478260869565,143,-0.697560975609756,
14342454,9589.84375,-2592,1.58920907418761,-1520,-0.931943592887799,-16288,9.98651134273452,-7,3.35365853658537,-55,0.426829268292683,-9,0.548780487804878,0,0,-39,-0.169565217391304,144,-0.702439024390244,
14343094,9609.375,-2528,1.54996934396076,-1552,-0.951563458001226,-16224,9.94727161250766,-13,3.78048780487805,-62,0.792682926829268,-18,1.09756097560976,1,-0.00434782608695652,-38,-0.165217391304348,143,-0.697560975609756,
14343734,9628.90625,-2496,1.53034947884733,-1456,-0.892703862660944,-16208,9.93746167995095,-10,3.84146341463415,-63,0.609756097560976,-21,1.28048780487805,1,-0.00434782608695652,-34,-0.147826086956522,142,-0.692682926829268,
14344374,9648.4375,-2480,1.52053954629062,-1424,-0.873083997547517,-16064,9.84917228694053,-5,4.08536585365854,-67,0.304878048780488,-23,1.40243902439024,-1,0.00434782608695652,-30,-0.130434782608696,141,-0.68780487804878,
14345014,9667.96875,-2480,1.52053954629062,-1520,-0.931943592887799,-16064,9.84917228694053,4,4.02439024390244,-66,-0.24390243902439,-25,1.52439024390244,-2,0.00869565217391304,-32,-0.139130434782609,143,-0.697560975609756,
14345654,9687.5,-2608,1.59901900674433,-1456,-0.892703862660944,-15984,9.80012262415696,9,4.02439024390244,-66,-0.548780487804878,-25,1.52439024390244,-1,0.00434782608695652,-35,-0.152173913043478,142,-0.692682926829268,
14346294,9707.03125,-2512,1.54015941140405,-1376,-0.843654199877376,-15904,9.75107296137339,-12,4.02439024390244,-66,0.731707317073171,-24,1.46341463414634,1,-0.00434782608695652,-39,-0.169565217391304,145,-0.707317073170732,
14346934,9726.5625,-2464,1.51072961373391,-1376,-0.843654199877376,-15984,9.80012262415696,-20,3.53658536585366,-58,1.21951219512195,-18,1.09756097560976,0,0,-37,-0.160869565217391,142,-0.692682926829268,
14347574,9746.09375,-2384,1.46167995095034,-1360,-0.833844267320662,-15984,9.80012262415696,-16,3.17073170731707,-52,0.975609756097561,-16,0.975609756097561,2,-0.00869565217391304,-35,-0.152173913043478,144,-0.702439024390244,
14348214,9765.625,-2480,1.52053954629062,-1392,-0.853464132434089,-15936,9.77069282648682,13,2.68292682926829,-44,-0.792682926829268,-10,0.609756097560976,2,-0.00869565217391304,-38,-0.165217391304348,145,-0.707317073170732,
14348854,9785.15625,-2544,1.55977927651747,-1408,-0.863274064990803,-15920,9.7608828939301,26,2.4390243902439,-40,-1.58536585365854,-7,0.426829268292683,-3,0.0130434782608696,-33,-0.143478260869565,142,-0.692682926829268,
14349494,9804.6875,-2640,1.61863887185776,-1408,-0.863274064990803,-16048,9.83936235438381,6,2.25609756097561,-37,-0.365853658536585,-8,0.487804878048781,-1,0.00434782608695652,-36,-0.156521739130435,143,-0.697560975609756,
14350134,9824.21875,-2592,1.58920907418761,-1504,-0.922133660331085,-16000,9.80993255671367,-29,2.13414634146341,-35,1.76829268292683,-16,0.975609756097561,1,-0.00434782608695652,-33,-0.143478260869565,141,-0.68780487804878,
14350774,9843.75,-2464,1.51072961373391,-1408,-0.863274064990803,-15920,9.7608828939301,-51,2.5,-41,3.10975609756098,-14,0.853658536585366,-1,0.00434782608695652,-32,-0.139130434782609,142,-0.692682926829268,
14351414,9863.28125,-2400,1.47148988350705,-1344,-0.824034334763949,-15856,9.72164316370325,-56,2.31707317073171,-38,3.41463414634146,-12,0.731707317073171,-3,0.0130434782608696,-32,-0.139130434782609,141,-0.68780487804878,
14352054,9882.8125,-2448,1.50091968117719,-1312,-0.804414469650521,-15952,9.78050275904353,-50,1.76829268292683,-29,3.04878048780488,-12,0.731707317073171,-3,0.0130434782608696,-28,-0.121739130434783,140,-0.682926829268293,
14352694,9902.34375,-2496,1.53034947884733,-1344,-0.824034334763949,-15984,9.80012262415696,-37,1.28048780487805,-21,2.25609756097561,-9,0.548780487804878,1,-0.00434782608695652,-39,-0.169565217391304,144,-0.702439024390244,
14353334,9921.875,-2560,1.56958920907419,-1216,-0.745554874310239,-16096,9.86879215205395,-50,0.609756097560976,-10,3.04878048780488,0,0,0,0,-35,-0.152173913043478,145,-0.707317073170732,
14353974,9941.40625,-2384,1.46167995095034,-1344,-0.824034334763949,-16176,9.91784181483752,-53,0.182926829268293,-3,3.23170731707317,11,-0.670731707317073,0,0,-36,-0.156521739130435,144,-0.702439024390244,
14354614,9960.9375,-2336,1.4322501532802,-1504,-0.922133660331085,-16368,10.0355610055181,17,-0.121951219512195,2,-1.03658536585366,25,-1.52439024390244,1,-0.00434782608695652,-39,-0.169565217391304,146,-0.712195121951219,
14355254,9980.46875,-2496,1.53034947884733,-1568,-0.96137339055794,-16464,10.0944206008584,46,0.304878048780488,-5,-2.80487804878049,18,-1.09756097560976,-2,0.00869565217391304,-32,-0.139130434782609,141,-0.68780487804878,
14355894,10000,-2656,1.62844880441447,-1600,-0.980993255671367,-16416,10.0649908031882,2,1.21951219512195,-20,-0.121951219512195,3,-0.182926829268293,-3,0.0130434782608696,-30,-0.130434782608696,143,-0.697560975609756,
14356534,10019.53125,-2448,1.50091968117719,-1616,-0.990803188228081,-16496,10.1140404659718,-34,1.95121951219512,-32,2.07317073170732,-13,0.792682926829268,1,-0.00434782608695652,-35,-0.152173913043478,144,-0.702439024390244,
14357174,10039.0625,-2416,1.48129981606376,-1664,-1.02023298589822,-16528,10.1336603310852,-28,2.98780487804878,-49,1.70731707317073,-10,0.609756097560976,-2,0.00869565217391304,-29,-0.126086956521739,142,-0.692682926829268,
14357814,10058.59375,-2464,1.51072961373391,-1616,-0.990803188228081,-16384,10.0453709380748,-7,3.29268292682927,-54,0.426829268292683,-12,0.731707317073171,-1,0.00434782608695652,-30,-0.130434782608696,141,-0.68780487804878,
14358454,10078.125,-2464,1.51072961373391,-1584,-0.971183323114654,-16464,10.0944206008584,4,3.59756097560976,-59,-0.24390243902439,-16,0.975609756097561,0,0,-34,-0.147826086956522,142,-0.692682926829268,
14359094,10097.65625,-2512,1.54015941140405,-1568,-0.96137339055794,-16432,10.0748007357449,12,3.59756097560976,-59,-0.731707317073171,-18,1.09756097560976,-255,1.10869565217391,-36,-0.156521739130435,143,-0.697560975609756,
14359734,10117.1875,-2592,1.58920907418761,-1600,-0.980993255671367,-16320,10.0061312078479,5,3.90243902439024,-64,-0.304878048780488,-11,0.670731707317073,0,0,-32,-0.139130434782609,145,-0.707317073170732,
14360374,10136.71875,-2656,1.62844880441447,-1536,-0.941753525444513,-16304,9.99632127529123,-32,4.20731707317073,-69,1.95121951219512,-12,0.731707317073171,-2,0.00869565217391304,-29,-0.126086956521739,143,-0.697560975609756,
14361014,10156.25,-2496,1.53034947884733,-1504,-0.922133660331085,-16272,9.9767014101778,-52,4.45121951219512,-73,3.17073170731707,-17,1.03658536585366,0,0,-33,-0.143478260869565,145,-0.707317073170732,
14361654,10175.78125,-2400,1.47148988350705,-1504,-0.922133660331085,-16208,9.93746167995095,-21,4.57317073170732,-75,1.28048780487805,-13,0.792682926829268,-2,0.00869565217391304,-31,-0.134782608695652,143,-0.697560975609756,
14362294,10195.3125,-2528,1.54996934396076,-1488,-0.912323727774372,-16208,9.93746167995095,14,4.45121951219512,-73,-0.853658536585366,-10,0.609756097560976,-2,0.00869565217391304,-33,-0.143478260869565,143,-0.697560975609756,
14362934,10214.84375,-2656,1.62844880441447,-1440,-0.88289393010423,-16032,9.8295524218271,7,4.45121951219512,-73,-0.426829268292683,-4,0.24390243902439,2,-0.00869565217391304,-37,-0.160869565217391,145,-0.707317073170732,
14363574,10234.375,-2528,1.54996934396076,-1488,-0.912323727774372,-16080,9.85898221949724,-20,4.20731707317073,-69,1.21951219512195,1,-0.0609756097560976,-1,0.00434782608695652,-30,-0.130434782608696,143,-0.697560975609756,
14364214,10253.90625,-2384,1.46167995095034,-1488,-0.912323727774372,-16128,9.88841201716738,-13,3.78048780487805,-62,0.792682926829268,5,-0.304878048780488,0,0,-35,-0.152173913043478,144,-0.702439024390244,
14364854,10273.4375,-2432,1.49110974862048,-1456,-0.892703862660944,-16048,9.83936235438381,1,3.71951219512195,-61,-0.0609756097560976,7,-0.426829268292683,2,-0.00869565217391304,-37,-0.160869565217391,144,-0.702439024390244,
14365494,10292.96875,-2496,1.53034947884733,-1488,-0.912323727774372,-15984,9.80012262415696,-10,3.41463414634146,-56,0.609756097560976,3,-0.182926829268293,-3,0.0130434782608696,-34,-0.147826086956522,146,-0.712195121951219,
14366134,10312.5,-2448,1.50091968117719,-1456,-0.892703862660944,-15936,9.77069282648682,-31,3.41463414634146,-56,1.89024390243902,4,-0.24390243902439,-2,0.00869565217391304,-39,-0.169565217391304,145,-0.707317073170732,
14366774,10332.03125,-2368,1.45187001839362,-1376,-0.843654199877376,-15984,9.80012262415696,-30,3.29268292682927,-54,1.82926829268293,9,-0.548780487804878,1,-0.00434782608695652,-39,-0.169565217391304,144,-0.702439024390244,
14367414,10351.5625,-2176,1.33415082771306,-1408,-0.863274064990803,-15920,9.7608828939301,-26,2.74390243902439,-45,1.58536585365854,9,-0.548780487804878,1,-0.00434782608695652,-39,-0.169565217391304,144,-0.702439024390244,
14368054,10371.09375,-2128,1.30472103004292,-1472,-0.902513795217658,-15920,9.7608828939301,3,2.19512195121951,-36,-0.182926829268293,11,-0.670731707317073,-3,0.0130434782608696,-32,-0.139130434782609,143,-0.697560975609756,
14368694,10390.625,-2320,1.42244022072348,-1456,-0.892703862660944,-15936,9.77069282648682,34,1.89024390243902,-31,-2.07317073170732,3,-0.182926829268293,0,0,-29,-0.126086956521739,143,-0.697560975609756,
14369334,10410.15625,-2400,1.47148988350705,-1520,-0.931943592887799,-16000,9.80993255671367,14,1.70731707317073,-28,-0.853658536585366,0,0,0,0,-39,-0.169565217391304,145,-0.707317073170732,
14369974,10429.6875,-2480,1.52053954629062,-1472,-0.902513795217658,-16192,9.92765174739424,-14,1.95121951219512,-32,0.853658536585366,-3,0.182926829268293,-2,0.00869565217391304,-29,-0.126086956521739,143,-0.697560975609756,
14370614,10449.21875,-2368,1.45187001839362,-1504,-0.922133660331085,-16240,9.95708154506438,-17,1.82926829268293,-30,1.03658536585366,1,-0.0609756097560976,-1,0.00434782608695652,-33,-0.143478260869565,142,-0.692682926829268,
14371254,10468.75,-2432,1.49110974862048,-1504,-0.922133660331085,-16256,9.96689147762109,0,2.13414634146341,-35,0,2,-0.121951219512195,1,-0.00434782608695652,-35,-0.152173913043478,143,-0.697560975609756,
14371894,10488.28125,-2432,1.49110974862048,-1488,-0.912323727774372,-16272,9.9767014101778,9,1.89024390243902,-31,-0.548780487804878,2,-0.121951219512195,0,0,-35,-0.152173913043478,145,-0.707317073170732,
14372534,10507.8125,-2528,1.54996934396076,-1488,-0.912323727774372,-16336,10.0159411404047,11,2.01219512195122,-33,-0.670731707317073,-2,0.121951219512195,-2,0.00869565217391304,-36,-0.156521739130435,144,-0.702439024390244,
