Shimmer,Shimmer,Shimmer,Shimmer,Shimmer,Shimmer,Shimmer,Shimmer,Shimmer,Shimmer,Shimmer,Shimmer,Shimmer,Shimmer,Shimmer,Shimmer,Shimmer,Shimmer,Shimmer,Shimmer,
Timestamp,Timestamp,Wide Range Accelerometer X,Wide Range Accelerometer X,Wide Range Accelerometer Y,Wide Range Accelerometer Y,Wide Range Accelerometer Z,Wide Range Accelerometer Z,Gyroscope X,Gyroscope X,Gyroscope Y,Gyroscope Y,Gyroscope Z,Gyroscope Z,Magnetometer X,Magnetometer X,Magnetometer Y,Magnetometer Y,Magnetometer Z,Magnetometer Z,
RAW,CAL,RAW,CAL,RAW,CAL,RAW,CAL,RAW,CAL,RAW,CAL,RAW,CAL,RAW,CAL,RAW,CAL,RAW,CAL,
no units,mSecs,no units,m/(sec^2),no units,m/(sec^2),no units,m/(sec^2),no units,deg/sec,no units,deg/sec,no units,deg/sec,no units,local,no units,local,no units,local,
12012854,0,4176,-2.56039239730227,-15296,-9.37829552421827,-3632,2.226854690374,14,3.17073170731707,-52,-0.853658536585366,1,-0.0609756097560976,-58,0.252173913043478,38,0.165217391304348,129,-0.629268292682927,
12013494,19.53125,4208,-2.5800122624157,-15392,-9.43715511955855,-3616,2.21704475781729,13,2.98780487804878,-49,-0.792682926829268,-4,0.24390243902439,-56,0.243478260869565,35,0.152173913043478,127,-0.619512195121951,
12014134,39.0625,4320,-2.64868179031269,-15360,-9.41753525444513,-3616,2.21704475781729,4,2.68292682926829,-44,-0.24390243902439,-8,0.487804878048781,-57,0.247826086956522,34,0.147826086956522,128,-0.624390243902439,
12014774,58.59375,4256,-2.60944206008584,-15280,-9.36848559166156,-3552,2.17780502759044,14,2.5609756097561,-42,-0.853658536585366,-14,0.853658536585366,-57,0.247826086956522,36,0.156521739130435,127,-0.619512195121951,
12015414,78.125,4144,-2.54077253218884,-15152,-9.29000613120785,-3552,2.17780502759044,25,2.4390243902439,-40,-1.52439024390244,-16,0.975609756097561,-58,0.252173913043478,38,0.165217391304348,128,-0.624390243902439,
12016054,97.65625,4208,-2.5800122624157,-15264,-9.35867565910484,-3472,2.12875536480687,27,2.07317073170732,-34,-1.64634146341463,-22,1.34146341463415,-56,0.243478260869565,35,0.152173913043478,128,-0.624390243902439,
12016694,117.1875,4176,-2.56039239730227,-15264,-9.35867565910484,-3488,2.13856529736358,21,1.95121951219512,-32,-1.28048780487805,-18,1.09756097560976,-56,0.243478260869565,37,0.160869565217391,128,-0.624390243902439,
12017334,136.71875,4144,-2.54077253218884,-15232,-9.33905579399141,-3760,2.30533415082771,27,2.6219512195122,-43,-1.64634146341463,-11,0.670731707317073,-57,0.247826086956522,37,0.160869565217391,127,-0.619512195121951,
12017974,156.25,4192,-2.57020232985898,-15264,-9.35867565910484,-3728,2.28571428571429,3,1.58536585365854,-26,-0.182926829268293,-16,0.975609756097561,-58,0.252173913043478,41,0.178260869565217,128,-0.624390243902439,
12018614,175.78125,4224,-2.58982219497241,-15248,-9.34886572654813,-3584,2.19742489270386,34,1.76829268292683,-29,-2.07317073170732,-19,1.15853658536585,-57,0.247826086956522,34,0.147826086956522,128,-0.624390243902439,
12019254,195.3125,4080,-2.50153280196199,-15184,-9.30962599632127,-3536,2.16799509503372,57,1.58536585365854,-26,-3.47560975609756,-22,1.34146341463415,-58,0.252173913043478,38,0.165217391304348,127,-0.619512195121951,
12019894,214.84375,4096,-2.5113427345187,-15280,-9.36848559166156,-3568,2.18761496014715,52,1.52439024390244,-25,-3.17073170731707,-27,1.64634146341463,-56,0.243478260869565,35,0.152173913043478,127,-0.619512195121951,
12020534,234.375,4080,-2.50153280196199,-15312,-9.38810545677498,-3488,2.13856529736358,36,1.89024390243902,-31,-2.19512195121951,-31,1.89024390243902,-56,0.243478260869565,35,0.152173913043478,127,-0.619512195121951,
12021174,253.90625,3968,-2.43286327406499,-15216,-9.3292458614347,-3696,2.26609442060086,21,2.5609756097561,-42,-1.28048780487805,-39,2.37804878048781,-57,0.247826086956522,39,0.169565217391304,128,-0.624390243902439,
12021814,273.4375,3968,-2.43286327406499,-15312,-9.38810545677498,-3696,2.26609442060086,-12,2.5,-41,0.731707317073171,-18,1.09756097560976,-57,0.247826086956522,39,0.169565217391304,128,-0.624390243902439,
12022454,292.96875,4208,-2.5800122624157,-15280,-9.36848559166156,-3680,2.25628448804414,-26,2.5,-41,1.58536585365854,-25,1.52439024390244,-57,0.247826086956522,35,0.152173913043478,129,-0.629268292682927,
12023094,312.5,4192,-2.57020232985898,-15248,-9.34886572654813,-3648,2.23666462293072,23,2.4390243902439,-40,-1.40243902439024,-23,1.40243902439024,-58,0.252173913043478,35,0.152173913043478,128,-0.624390243902439,
12023734,332.03125,4128,-2.53096259963213,-15280,-9.36848559166156,-3632,2.226854690374,31,2.01219512195122,-33,-1.89024390243902,-18,1.09756097560976,-59,0.256521739130435,40,0.173913043478261,126,-0.614634146341463,
12024374,351.5625,4112,-2.52115266707541,-15280,-9.36848559166156,-3600,2.20723482526058,34,1.95121951219512,-32,-2.07317073170732,-17,1.03658536585366,-58,0.252173913043478,39,0.169565217391304,127,-0.619512195121951,
12025014,371.09375,4128,-2.53096259963213,-15360,-9.41753525444513,-3616,2.21704475781729,36,2.01219512195122,-33,-2.19512195121951,-17,1.03658536585366,-57,0.247826086956522,37,0.160869565217391,127,-0.619512195121951,
12025654,390.625,4048,-2.48191293684856,-15360,-9.41753525444513,-3600,2.20723482526058,25,2.19512195121951,-36,-1.52439024390244,-8,0.487804878048781,-59,0.256521739130435,38,0.165217391304348,125,-0.609756097560976,
12026294,410.15625,4048,-2.48191293684856,-15376,-9.42734518700184,-3536,2.16799509503372,22,1.89024390243902,-31,-1.34146341463415,-8,0.487804878048781,-56,0.243478260869565,37,0.160869565217391,126,-0.614634146341463,
12026934,429.6875,4208,-2.5800122624157,-15344,-9.40772532188841,-3456,2.11894543225015,26,1.89024390243902,-31,-1.58536585365854,-9,0.548780487804878,-57,0.247826086956522,37,0.160869565217391,127,-0.619512195121951,
12027574,449.21875,4144,-2.54077253218884,-15312,-9.38810545677498,-3488,2.13856529736358,33,2.07317073170732,-34,-2.01219512195122,-15,0.914634146341463,-59,0.256521739130435,37,0.160869565217391,126,-0.614634146341463,
12028214,468.75,4112,-2.52115266707541,-15312,-9.38810545677498,-3504,2.14837522992029,23,2.01219512195122,-33,-1.40243902439024,-14,0.853658536585366,-56,0.243478260869565,35,0.152173913043478,128,-0.624390243902439,
12028854,488.28125,4128,-2.53096259963213,-15296,-9.37829552421827,-3472,2.12875536480687,15,1.76829268292683,-29,-0.914634146341463,-16,0.975609756097561,-58,0.252173913043478,35,0.152173913043478,127,-0.619512195121951,
12029494,507.8125,4112,-2.52115266707541,-15328,-9.3979153893317,-3504,2.14837522992029,27,1.76829268292683,-29,-1.64634146341463,-11,0.670731707317073,-57,0.247826086956522,41,0.178260869565217,128,-0.624390243902439,
12030134,527.34375,4064,-2.49172286940527,-15312,-9.38810545677498,-3584,2.19742489270386,35,1.52439024390244,-25,-2.13414634146341,-4,0.24390243902439,-58,0.252173913043478,40,0.173913043478261,127,-0.619512195121951,
12030774,546.875,4112,-2.52115266707541,-15344,-9.40772532188841,-3488,2.13856529736358,35,1.64634146341463,-27,-2.13414634146341,0,0,-60,0.260869565217391,37,0.160869565217391,125,-0.609756097560976,
12031414,566.40625,4048,-2.48191293684856,-15312,-9.38810545677498,-3552,2.17780502759044,25,1.15853658536585,-19,-1.52439024390244,0,0,-56,0.243478260869565,34,0.147826086956522,128,-0.624390243902439,
12032054,585.9375,4240,-2.59963212752912,-15392,-9.43715511955855,-3616,2.21704475781729,26,0.975609756097561,-16,-1.58536585365854,0,0,-58,0.252173913043478,37,0.160869565217391,126,-0.614634146341463,
12032694,605.46875,4160,-2.55058246474555,-15408,-9.44696505211527,-3616,2.21704475781729,44,1.70731707317073,-28,-2.68292682926829,1,-0.0609756097560976,-56,0.243478260869565,38,0.165217391304348,126,-0.614634146341463,
12033334,625,4064,-2.49172286940527,-15440,-9.46658491722869,-3728,2.28571428571429,41,1.46341463414634,-24,-2.5,3,-0.182926829268293,-57,0.247826086956522,36,0.156521739130435,126,-0.614634146341463,
12033974,644.53125,4224,-2.58982219497241,-15344,-9.40772532188841,-3648,2.23666462293072,11,1.58536585365854,-26,-0.670731707317073,-3,0.182926829268293,-57,0.247826086956522,38,0.165217391304348,128,-0.624390243902439,
12034614,664.0625,4224,-2.58982219497241,-15264,-9.35867565910484,-3696,2.26609442060086,17,1.82926829268293,-30,-1.03658536585366,-12,0.731707317073171,-56,0.243478260869565,39,0.169565217391304,126,-0.614634146341463,
12035254,683.59375,4128,-2.53096259963213,-15232,-9.33905579399141,-3584,2.19742489270386,17,2.5,-41,-1.03658536585366,-19,1.15853658536585,-58,0.252173913043478,41,0.178260869565217,125,-0.609756097560976,
12035894,703.125,4144,-2.54077253218884,-15216,-9.3292458614347,-3648,2.23666462293072,10,2.68292682926829,-44,-0.609756097560976,-24,1.46341463414634,-58,0.252173913043478,36,0.156521739130435,127,-0.619512195121951,
12036534,722.65625,4048,-2.48191293684856,-15200,-9.31943592887799,-3584,2.19742489270386,1,2.80487804878049,-46,-0.0609756097560976,-22,1.34146341463415,-57,0.247826086956522,37,0.160869565217391,127,-0.619512195121951,
12037174,742.1875,4112,-2.52115266707541,-15168,-9.29981606376456,-3456,2.11894543225015,3,2.92682926829268,-48,-0.182926829268293,-21,1.28048780487805,-55,0.239130434782609,34,0.147826086956522,126,-0.614634146341463,
12037814,761.71875,4112,-2.52115266707541,-15248,-9.34886572654813,-3456,2.11894543225015,7,3.17073170731707,-52,-0.426829268292683,-13,0.792682926829268,-56,0.243478260869565,35,0.152173913043478,127,-0.619512195121951,
12038454,781.25,4192,-2.57020232985898,-15216,-9.3292458614347,-3440,2.10913549969344,2,2.98780487804878,-49,-0.121951219512195,-13,0.792682926829268,-57,0.247826086956522,39,0.169565217391304,127,-0.619512195121951,
12039094,800.78125,4208,-2.5800122624157,-15280,-9.36848559166156,-3376,2.06989576946658,6,3.17073170731707,-52,-0.365853658536585,-16,0.975609756097561,-58,0.252173913043478,39,0.169565217391304,127,-0.619512195121951,
12039734,820.3125,4192,-2.57020232985898,-15344,-9.40772532188841,-3360,2.06008583690987,-1,3.41463414634146,-56,0.0609756097560976,-20,1.21951219512195,-58,0.252173913043478,40,0.173913043478261,127,-0.619512195121951,
12040374,839.84375,4144,-2.54077253218884,-15376,-9.42734518700184,-3312,2.03065603923973,-11,3.90243902439024,-64,0.670731707317073,-34,2.07317073170732,-57,0.247826086956522,36,0.156521739130435,127,-0.619512195121951,
12041014,859.375,4144,-2.54077253218884,-15552,-9.53525444512569,-3328,2.04046597179644,-30,4.32926829268293,-71,1.82926829268293,-42,2.5609756097561,-56,0.243478260869565,38,0.165217391304348,126,-0.614634146341463,
12041654,878.90625,4112,-2.52115266707541,-15536,-9.52544451256898,-3248,1.99141630901288,-50,4.45121951219512,-73,3.04878048780488,-45,2.74390243902439,-57,0.247826086956522,38,0.165217391304348,127,-0.619512195121951,
12042294,898.4375,4016,-2.46229307173513,-15456,-9.47639484978541,-3264,2.00122624156959,-67,4.75609756097561,-78,4.08536585365854,-41,2.5,-57,0.247826086956522,37,0.160869565217391,128,-0.624390243902439,
12042934,917.96875,4032,-2.47210300429185,-15360,-9.41753525444513,-3264,2.00122624156959,-83,4.75609756097561,-78,5.0609756097561,-46,2.80487804878049,-58,0.252173913043478,35,0.152173913043478,128,-0.624390243902439,
12043574,937.5,3984,-2.4426732066217,-15328,-9.3979153893317,-3280,2.0110361741263,-89,4.69512195121951,-77,5.42682926829268,-43,2.6219512195122,-57,0.247826086956522,37,0.160869565217391,126,-0.614634146341463,
12044214,957.03125,3968,-2.43286327406499,-15328,-9.3979153893317,-3296,2.02084610668302,-95,4.26829268292683,-70,5.79268292682927,-38,2.31707317073171,-56,0.243478260869565,34,0.147826086956522,126,-0.614634146341463,
12044854,976.5625,4000,-2.45248313917842,-15360,-9.41753525444513,-3376,2.06989576946658,-84,3.59756097560976,-59,5.1219512195122,-31,1.89024390243902,-59,0.256521739130435,38,0.165217391304348,127,-0.619512195121951,
12045494,996.09375,3936,-2.41324340895156,-15280,-9.36848559166156,-3440,2.10913549969344,-68,3.29268292682927,-54,4.14634146341463,-17,1.03658536585366,-58,0.252173913043478,39,0.169565217391304,127,-0.619512195121951,
12046134,1015.625,3936,-2.41324340895156,-15312,-9.38810545677498,-3536,2.16799509503372,-67,2.92682926829268,-48,4.08536585365854,-1,0.0609756097560976,-60,0.260869565217391,35,0.152173913043478,126,-0.614634146341463,
12046774,1035.15625,4048,-2.48191293684856,-15392,-9.43715511955855,-3488,2.13856529736358,-70,2.86585365853659,-47,4.26829268292683,11,-0.670731707317073,-57,0.247826086956522,36,0.156521739130435,127,-0.619512195121951,
12047414,1054.6875,3984,-2.4426732066217,-15376,-9.42734518700184,-3552,2.17780502759044,-76,2.80487804878049,-46,4.63414634146342,23,-1.40243902439024,-59,0.256521739130435,38,0.165217391304348,127,-0.619512195121951,
12048054,1074.21875,3968,-2.43286327406499,-15328,-9.3979153893317,-3568,2.18761496014715,-77,2.74390243902439,-45,4.69512195121951,34,-2.07317073170732,-58,0.252173913043478,37,0.160869565217391,126,-0.614634146341463,
12048694,1093.75,4064,-2.49172286940527,-15296,-9.37829552421827,-3568,2.18761496014715,-80,2.68292682926829,-44,4.87804878048781,44,-2.68292682926829,-56,0.243478260869565,35,0.152173913043478,128,-0.624390243902439,
12049334,1113.28125,4160,-2.55058246474555,-15328,-9.3979153893317,-3616,2.21704475781729,-69,2.37804878048781,-39,4.20731707317073,49,-2.98780487804878,-57,0.247826086956522,35,0.152173913043478,128,-0.624390243902439,
12049974,1132.8125,4096,-2.5113427345187,-15344,-9.40772532188841,-3584,2.19742489270386,-55,2.13414634146341,-35,3.35365853658537,57,-3.47560975609756,-57,0.247826086956522,37,0.160869565217391,127,-0.619512195121951,
12050614,1152.34375,4208,-2.5800122624157,-15360,-9.41753525444513,-3616,2.21704475781729,-48,1.76829268292683,-29,2.92682926829268,61,-3.71951219512195,-58,0.252173913043478,37,0.160869565217391,127,-0.619512195121951,
12051254,1171.875,4288,-2.62906192519926,-15280,-9.36848559166156,-3536,2.16799509503372,-40,1.52439024390244,-25,2.4390243902439,66,-4.02439024390244,-58,0.252173913043478,36,0.156521739130435,126,-0.614634146341463,
12051894,1191.40625,4272,-2.61925199264255,-15248,-9.34886572654813,-3568,2.18761496014715,-29,1.34146341463415,-22,1.76829268292683,64,-3.90243902439024,-59,0.256521739130435,34,0.147826086956522,127,-0.619512195121951,
12052534,1210.9375,4304,-2.63887185775598,-15280,-9.36848559166156,-3664,2.24647455548743,-24,1.28048780487805,-21,1.46341463414634,64,-3.90243902439024,-58,0.252173913043478,39,0.169565217391304,126,-0.614634146341463,
12053174,1230.46875,4336,-2.6584917228694,-15280,-9.36848559166156,-3616,2.21704475781729,-28,1.03658536585366,-17,1.70731707317073,58,-3.53658536585366,-60,0.260869565217391,37,0.160869565217391,127,-0.619512195121951,
12053814,1250,4448,-2.7271612507664,-15248,-9.34886572654813,-3600,2.20723482526058,-19,1.21951219512195,-20,1.15853658536585,52,-3.17073170731707,-57,0.247826086956522,38,0.165217391304348,128,-0.624390243902439,
12054454,1269.53125,4384,-2.68792152053955,-15264,-9.35867565910484,-3616,2.21704475781729,-8,1.15853658536585,-19,0.487804878048781,51,-3.10975609756098,-58,0.252173913043478,39,0.169565217391304,128,-0.624390243902439,
12055094,1289.0625,4400,-2.69773145309626,-15264,-9.35867565910484,-3600,2.20723482526058,-3,1.21951219512195,-20,0.182926829268293,42,-2.5609756097561,-56,0.243478260869565,34,0.147826086956522,127,-0.619512195121951,
12055734,1308.59375,4368,-2.67811158798283,-15328,-9.3979153893317,-3632,2.226854690374,0,1.34146341463415,-22,0,34,-2.07317073170732,-57,0.247826086956522,34,0.147826086956522,128,-0.624390243902439,
12056374,1328.125,4432,-2.71735131820969,-15296,-9.37829552421827,-3664,2.24647455548743,1,1.15853658536585,-19,-0.0609756097560976,20,-1.21951219512195,-57,0.247826086956522,38,0.165217391304348,126,-0.614634146341463,
12057014,1347.65625,4400,-2.69773145309626,-15360,-9.41753525444513,-3648,2.23666462293072,7,1.52439024390244,-25,-0.426829268292683,12,-0.731707317073171,-57,0.247826086956522,40,0.173913043478261,126,-0.614634146341463,
12057654,1367.1875,4400,-2.69773145309626,-15344,-9.40772532188841,-3616,2.21704475781729,24,1.82926829268293,-30,-1.46341463414634,0,0,-58,0.252173913043478,38,0.165217391304348,127,-0.619512195121951,
12058294,1386.71875,4384,-2.68792152053955,-15360,-9.41753525444513,-3584,2.19742489270386,31,1.95121951219512,-32,-1.89024390243902,-10,0.609756097560976,-56,0.243478260869565,35,0.152173913043478,128,-0.624390243902439,
12058934,1406.25,4336,-2.6584917228694,-15408,-9.44696505211527,-3584,2.19742489270386,28,2.13414634146341,-35,-1.70731707317073,-27,1.64634146341463,-56,0.243478260869565,38,0.165217391304348,127,-0.619512195121951,
12059574,1425.78125,4320,-2.64868179031269,-15392,-9.43715511955855,-3616,2.21704475781729,26,2.5,-41,-1.58536585365854,-37,2.25609756097561,-58,0.252173913043478,38,0.165217391304348,127,-0.619512195121951,
12060214,1445.3125,4224,-2.58982219497241,-15344,-9.40772532188841,-3648,2.23666462293072,28,2.74390243902439,-45,-1.70731707317073,-43,2.6219512195122,-58,0.252173913043478,35,0.152173913043478,128,-0.624390243902439,
12060854,1464.84375,4192,-2.57020232985898,-15280,-9.36848559166156,-3632,2.226854690374,39,2.68292682926829,-44,-2.37804878048781,-44,2.68292682926829,-59,0.256521739130435,35,0.152173913043478,127,-0.619512195121951,
12061494,1484.375,4160,-2.55058246474555,-15344,-9.40772532188841,-3664,2.24647455548743,38,2.92682926829268,-48,-2.31707317073171,-51,3.10975609756098,-59,0.256521739130435,40,0.173913043478261,126,-0.614634146341463,
12062134,1503.90625,4128,-2.53096259963213,-15312,-9.38810545677498,-3584,2.19742489270386,36,2.98780487804878,-49,-2.19512195121951,-52,3.17073170731707,-57,0.247826086956522,36,0.156521739130435,126,-0.614634146341463,
12062774,1523.4375,4000,-2.45248313917842,-15312,-9.38810545677498,-3584,2.19742489270386,31,3.23170731707317,-53,-1.89024390243902,-56,3.41463414634146,-57,0.247826086956522,40,0.173913043478261,127,-0.619512195121951,
12063414,1542.96875,4000,-2.45248313917842,-15328,-9.3979153893317,-3520,2.15818516247701,33,3.41463414634146,-56,-2.01219512195122,-54,3.29268292682927,-56,0.243478260869565,35,0.152173913043478,125,-0.609756097560976,
12064054,1562.5,3984,-2.4426732066217,-15280,-9.36848559166156,-3424,2.09932556713673,33,3.47560975609756,-57,-2.01219512195122,-51,3.10975609756098,-57,0.247826086956522,35,0.152173913043478,128,-0.624390243902439,
12064694,1582.03125,4016,-2.46229307173513,-15312,-9.38810545677498,-3440,2.10913549969344,31,3.41463414634146,-56,-1.89024390243902,-48,2.92682926829268,-58,0.252173913043478,38,0.165217391304348,127,-0.619512195121951,
12065334,1601.5625,4016,-2.46229307173513,-15312,-9.38810545677498,-3376,2.06989576946658,28,3.53658536585366,-58,-1.70731707317073,-44,2.68292682926829,-56,0.243478260869565,38,0.165217391304348,126,-0.614634146341463,
12065974,1621.09375,4000,-2.45248313917842,-15296,-9.37829552421827,-3360,2.06008583690987,32,3.65853658536585,-60,-1.95121951219512,-42,2.5609756097561,-57,0.247826086956522,35,0.152173913043478,128,-0.624390243902439,
12066614,1640.625,4000,-2.45248313917842,-15360,-9.41753525444513,-3280,2.0110361741263,27,3.35365853658537,-55,-1.64634146341463,-34,2.07317073170732,-56,0.243478260869565,35,0.152173913043478,128,-0.624390243902439,
12067254,1660.15625,4000,-2.45248313917842,-15312,-9.38810545677498,-3392,2.0797057020233,29,3.10975609756098,-51,-1.76829268292683,-26,1.58536585365854,-57,0.247826086956522,38,0.165217391304348,126,-0.614634146341463,
12067894,1679.6875,3984,-2.4426732066217,-15280,-9.36848559166156,-3408,2.08951563458001,31,3.04878048780488,-50,-1.89024390243902,-22,1.34146341463415,-59,0.256521739130435,39,0.169565217391304,126,-0.614634146341463,
12068534,1699.21875,4064,-2.49172286940527,-15408,-9.44696505211527,-3408,2.08951563458001,30,3.04878048780488,-50,-1.82926829268293,-17,1.03658536585366,-59,0.256521739130435,36,0.156521739130435,127,-0.619512195121951,
12069174,1718.75,4064,-2.49172286940527,-15360,-9.41753525444513,-3392,2.0797057020233,32,3.10975609756098,-51,-1.95121951219512,-16,0.975609756097561,-60,0.260869565217391,39,0.169565217391304,125,-0.609756097560976,
12069814,1738.28125,4032,-2.47210300429185,-15264,-9.35867565910484,-3328,2.04046597179644,22,3.17073170731707,-52,-1.34146341463415,-24,1.46341463414634,-58,0.252173913043478,36,0.156521739130435,126,-0.614634146341463,
12070454,1757.8125,4000,-2.45248313917842,-15392,-9.43715511955855,-3408,2.08951563458001,6,3.65853658536585,-60,-0.365853658536585,-28,1.70731707317073,-56,0.243478260869565,36,0.156521739130435,126,-0.614634146341463,
12071094,1777.34375,4016,-2.46229307173513,-15360,-9.41753525444513,-3312,2.03065603923973,-14,3.78048780487805,-62,0.853658536585366,-29,1.76829268292683,-58,0.252173913043478,38,0.165217391304348,126,-0.614634146341463,
12071734,1796.875,4064,-2.49172286940527,-15328,-9.3979153893317,-3232,1.98160637645616,-29,3.78048780487805,-62,1.76829268292683,-30,1.82926829268293,-58,0.252173913043478,39,0.169565217391304,126,-0.614634146341463,
12072374,1816.40625,4192,-2.57020232985898,-15344,-9.40772532188841,-3200,1.96198651134273,-25,3.35365853658537,-55,1.52439024390244,-24,1.46341463414634,-56,0.243478260869565,35,0.152173913043478,126,-0.614634146341463,
12073014,1835.9375,4016,-2.46229307173513,-15216,-9.3292458614347,-3232,1.98160637645616,-23,2.98780487804878,-49,1.40243902439024,-27,1.64634146341463,-57,0.247826086956522,37,0.160869565217391,128,-0.624390243902439,
12073654,1855.46875,4288,-2.62906192519926,-15360,-9.41753525444513,-3200,1.96198651134273,-19,0.731707317073171,-12,1.15853658536585,-24,1.46341463414634,-58,0.252173913043478,37,0.160869565217391,126,-0.614634146341463,
12074294,1875,4176,-2.56039239730227,-15328,-9.3979153893317,-3232,1.98160637645616,27,0.792682926829268,-13,-1.64634146341463,-8,0.487804878048781,-57,0.247826086956522,41,0.178260869565217,126,-0.614634146341463,
12074934,1894.53125,4096,-2.5113427345187,-15456,-9.47639484978541,-3376,2.06989576946658,38,-0.121951219512195,2,-2.31707317073171,0,0,-56,0.243478260869565,35,0.152173913043478,127,-0.619512195121951,
12075574,1914.0625,4128,-2.53096259963213,-15488,-9.49601471489883,-3504,2.14837522992029,30,0.0609756097560976,-1,-1.82926829268293,6,-0.365853658536585,-57,0.247826086956522,37,0.160869565217391,127,-0.619512195121951,
12076214,1933.59375,4096,-2.5113427345187,-15424,-9.45677498467198,-3536,2.16799509503372,18,0.548780487804878,-9,-1.09756097560976,4,-0.24390243902439,-56,0.243478260869565,38,0.165217391304348,126,-0.614634146341463,
12076854,1953.125,4032,-2.47210300429185,-15408,-9.44696505211527,-3600,2.20723482526058,-11,0.914634146341463,-15,0.670731707317073,-3,0.182926829268293,-58,0.252173913043478,36,0.156521739130435,126,-0.614634146341463,
12077494,1972.65625,4208,-2.5800122624157,-15360,-9.41753525444513,-3552,2.17780502759044,-29,1.21951219512195,-20,1.76829268292683,2,-0.121951219512195,-59,0.256521739130435,37,0.160869565217391,126,-0.614634146341463,
12078134,1992.1875,4208,-2.5800122624157,-15408,-9.44696505211527,-3536,2.16799509503372,-22,2.5,-41,1.34146341463415,-1,0.0609756097560976,-58,0.252173913043478,36,0.156521739130435,126,-0.614634146341463,
12078774,2011.71875,4176,-2.56039239730227,-15408,-9.44696505211527,-3504,2.14837522992029,-18,2.68292682926829,-44,1.09756097560976,1,-0.0609756097560976,-58,0.252173913043478,37,0.160869565217391,125,-0.609756097560976,
12079414,2031.25,4160,-2.55058246474555,-15408,-9.44696505211527,-3568,2.18761496014715,-29,2.98780487804878,-49,1.76829268292683,1,-0.0609756097560976,-56,0.243478260869565,35,0.152173913043478,125,-0.609756097560976,
12080054,2050.78125,4112,-2.52115266707541,-15360,-9.41753525444513,-3440,2.10913549969344,-32,3.17073170731707,-52,1.95121951219512,3,-0.182926829268293,-58,0.252173913043478,43,0.18695652173913,126,-0.614634146341463,
12080694,2070.3125,4112,-2.52115266707541,-15376,-9.42734518700184,-3408,2.08951563458001,-35,3.29268292682927,-54,2.13414634146341,-1,0.0609756097560976,-58,0.252173913043478,40,0.173913043478261,126,-0.614634146341463,
12081334,2089.84375,4144,-2.54077253218884,-15392,-9.43715511955855,-3360,2.06008583690987,-36,3.29268292682927,-54,2.19512195121951,0,0,-57,0.247826086956522,36,0.156521739130435,126,-0.614634146341463,
12081974,2109.375,4208,-2.5800122624157,-15456,-9.47639484978541,-3408,2.08951563458001,-26,2.92682926829268,-48,1.58536585365854,3,-0.182926829268293,-57,0.247826086956522,36,0.156521739130435,127,-0.619512195121951,
12082614,2128.90625,4144,-2.54077253218884,-15488,-9.49601471489883,-3328,2.04046597179644,-19,3.04878048780488,-50,1.15853658536585,5,-0.304878048780488,-60,0.260869565217391,40,0.173913043478261,125,-0.609756097560976,
12083254,2148.4375,4160,-2.55058246474555,-15488,-9.49601471489883,-3328,2.04046597179644,-20,3.23170731707317,-53,1.21951219512195,9,-0.548780487804878,-59,0.256521739130435,40,0.173913043478261,125,-0.609756097560976,
12083894,2167.96875,4112,-2.52115266707541,-15408,-9.44696505211527,-3296,2.02084610668302,-31,3.23170731707317,-53,1.89024390243902,7,-0.426829268292683,-58,0.252173913043478,36,0.156521739130435,126,-0.614634146341463,
12084534,2187.5,4144,-2.54077253218884,-15376,-9.42734518700184,-3296,2.02084610668302,-41,3.23170731707317,-53,2.5,2,-0.121951219512195,-58,0.252173913043478,37,0.160869565217391,127,-0.619512195121951,
12085174,2207.03125,4128,-2.53096259963213,-15344,-9.40772532188841,-3376,2.06989576946658,-48,3.47560975609756,-57,2.92682926829268,-4,0.24390243902439,-57,0.247826086956522,38,0.165217391304348,125,-0.609756097560976,
12085814,2226.5625,4144,-2.54077253218884,-15328,-9.3979153893317,-3376,2.06989576946658,-43,3.53658536585366,-58,2.6219512195122,-3,0.182926829268293,-59,0.256521739130435,42,0.182608695652174,124,-0.604878048780488,
12086454,2246.09375,4048,-2.48191293684856,-15344,-9.40772532188841,-3328,2.04046597179644,-39,3.59756097560976,-59,2.37804878048781,5,-0.304878048780488,-59,0.256521739130435,36,0.156521739130435,127,-0.619512195121951,
12087094,2265.625,4032,-2.47210300429185,-15312,-9.38810545677498,-3424,2.09932556713673,-35,3.41463414634146,-56,2.13414634146341,13,-0.792682926829268,-57,0.247826086956522,40,0.173913043478261,127,-0.619512195121951,
12087734,2285.15625,4080,-2.50153280196199,-15296,-9.37829552421827,-3344,2.05027590435316,-40,3.65853658536585,-60,2.4390243902439,25,-1.52439024390244,-56,0.243478260869565,35,0.152173913043478,127,-0.619512195121951,
12088374,2304.6875,4128,-2.53096259963213,-15328,-9.3979153893317,-3344,2.05027590435316,-43,3.41463414634146,-56,2.6219512195122,26,-1.58536585365854,-56,0.243478260869565,35,0.152173913043478,125,-0.609756097560976,
12089014,2324.21875,4160,-2.55058246474555,-15376,-9.42734518700184,-3360,2.06008583690987,-43,3.65853658536585,-60,2.6219512195122,29,-1.76829268292683,-59,0.256521739130435,39,0.169565217391304,127,-0.619512195121951,
12089654,2343.75,4192,-2.57020232985898,-15424,-9.45677498467198,-3376,2.06989576946658,-35,3.59756097560976,-59,2.13414634146341,28,-1.70731707317073,-59,0.256521739130435,39,0.169565217391304,125,-0.609756097560976,
12090294,2363.28125,4240,-2.59963212752912,-15456,-9.47639484978541,-3440,2.10913549969344,-31,3.71951219512195,-61,1.89024390243902,29,-1.76829268292683,-58,0.252173913043478,36,0.156521739130435,127,-0.619512195121951,
12090934,2382.8125,4240,-2.59963212752912,-15408,-9.44696505211527,-3504,2.14837522992029,-31,3.65853658536585,-60,1.89024390243902,25,-1.52439024390244,-57,0.247826086956522,36,0.156521739130435,128,-0.624390243902439,
12091574,2402.34375,4208,-2.5800122624157,-15376,-9.42734518700184,-3504,2.14837522992029,-31,4.08536585365854,-67,1.89024390243902,18,-1.09756097560976,-57,0.247826086956522,38,0.165217391304348,126,-0.614634146341463,
12092214,2421.875,4288,-2.62906192519926,-15408,-9.44696505211527,-3456,2.11894543225015,-31,4.20731707317073,-69,1.89024390243902,10,-0.609756097560976,-58,0.252173913043478,39,0.169565217391304,126,-0.614634146341463,
12092854,2441.40625,4240,-2.59963212752912,-15360,-9.41753525444513,-3408,2.08951563458001,-40,4.26829268292683,-70,2.4390243902439,7,-0.426829268292683,-58,0.252173913043478,40,0.173913043478261,127,-0.619512195121951,
12093494,2460.9375,4224,-2.58982219497241,-15392,-9.43715511955855,-3440,2.10913549969344,-34,4.39024390243902,-72,2.07317073170732,10,-0.609756097560976,-58,0.252173913043478,35,0.152173913043478,127,-0.619512195121951,
12094134,2480.46875,4208,-2.5800122624157,-15376,-9.42734518700184,-3408,2.08951563458001,-23,4.20731707317073,-69,1.40243902439024,13,-0.792682926829268,-59,0.256521739130435,41,0.178260869565217,126,-0.614634146341463,
12094774,2500,4208,-2.5800122624157,-15376,-9.42734518700184,-3552,2.17780502759044,-14,4.32926829268293,-71,0.853658536585366,15,-0.914634146341463,-56,0.243478260869565,36,0.156521739130435,126,-0.614634146341463,
12095414,2519.53125,4256,-2.60944206008584,-15280,-9.36848559166156,-3504,2.14837522992029,-18,4.14634146341463,-68,1.09756097560976,13,-0.792682926829268,-58,0.252173913043478,35,0.152173913043478,127,-0.619512195121951,
12096054,2539.0625,4288,-2.62906192519926,-15360,-9.41753525444513,-3472,2.12875536480687,-17,4.32926829268293,-71,1.03658536585366,12,-0.731707317073171,-59,0.256521739130435,40,0.173913043478261,127,-0.619512195121951,
12096694,2558.59375,4288,-2.62906192519926,-15376,-9.42734518700184,-3552,2.17780502759044,-10,4.14634146341463,-68,0.609756097560976,8,-0.487804878048781,-57,0.247826086956522,35,0.152173913043478,128,-0.624390243902439,
12097334,2578.125,4160,-2.55058246474555,-15312,-9.38810545677498,-3536,2.16799509503372,1,4.39024390243902,-72,-0.0609756097560976,7,-0.426829268292683,-57,0.247826086956522,35,0.152173913043478,128,-0.624390243902439,
12097974,2597.65625,4256,-2.60944206008584,-15280,-9.36848559166156,-3472,2.12875536480687,4,3.96341463414634,-65,-0.24390243902439,6,-0.365853658536585,-58,0.252173913043478,39,0.169565217391304,128,-0.624390243902439,
12098614,2617.1875,4240,-2.59963212752912,-15344,-9.40772532188841,-3440,2.10913549969344,3,3.90243902439024,-64,-0.182926829268293,3,-0.182926829268293,-58,0.252173913043478,38,0.165217391304348,127,-0.619512195121951,
12099254,2636.71875,4192,-2.57020232985898,-15264,-9.35867565910484,-3488,2.13856529736358,0,3.78048780487805,-62,0,2,-0.121951219512195,-58,0.252173913043478,40,0.173913043478261,128,-0.624390243902439,
12099894,2656.25,4176,-2.56039239730227,-15360,-9.41753525444513,-3504,2.14837522992029,9,3.65853658536585,-60,-0.548780487804878,-1,0.0609756097560976,-57,0.247826086956522,36,0.156521739130435,127,-0.619512195121951,
12100534,2675.78125,4176,-2.56039239730227,-15328,-9.3979153893317,-3488,2.13856529736358,18,3.90243902439024,-64,-1.09756097560976,-3,0.182926829268293,-56,0.243478260869565,38,0.165217391304348,126,-0.614634146341463,
12101174,2695.3125,4128,-2.53096259963213,-15344,-9.40772532188841,-3488,2.13856529736358,28,3.59756097560976,-59,-1.70731707317073,1,-0.0609756097560976,-58,0.252173913043478,36,0.156521739130435,128,-0.624390243902439,
12101814,2714.84375,4080,-2.50153280196199,-15344,-9.40772532188841,-3536,2.16799509503372,24,3.78048780487805,-62,-1.46341463414634,0,0,-59,0.256521739130435,37,0.160869565217391,128,-0.624390243902439,
12102454,2734.375,4160,-2.55058246474555,-15296,-9.37829552421827,-3504,2.14837522992029,15,3.65853658536585,-60,-0.914634146341463,-2,0.121951219512195,-57,0.247826086956522,38,0.165217391304348,127,-0.619512195121951,
12103094,2753.90625,4112,-2.52115266707541,-15312,-9.38810545677498,-3504,2.14837522992029,16,3.65853658536585,-60,-0.975609756097561,-1,0.0609756097560976,-56,0.243478260869565,36,0.156521739130435,127,-0.619512195121951,
12103734,2773.4375,4112,-2.52115266707541,-15328,-9.3979153893317,-3440,2.10913549969344,19,3.84146341463415,-63,-1.15853658536585,1,-0.0609756097560976,-58,0.252173913043478,36,0.156521739130435,128,-0.624390243902439,
12104374,2792.96875,4112,-2.52115266707541,-15312,-9.38810545677498,-3504,2.14837522992029,23,3.65853658536585,-60,-1.40243902439024,-1,0.0609756097560976,-58,0.252173913043478,41,0.178260869565217,127,-0.619512195121951,
12105014,2812.5,4064,-2.49172286940527,-15312,-9.38810545677498,-3424,2.09932556713673,20,3.53658536585366,-58,-1.21951219512195,-1,0.0609756097560976,-57,0.247826086956522,35,0.152173913043478,127,-0.619512195121951,
12105654,2832.03125,4128,-2.53096259963213,-15312,-9.38810545677498,-3408,2.08951563458001,21,3.53658536585366,-58,-1.28048780487805,-5,0.304878048780488,-56,0.243478260869565,35,0.152173913043478,127,-0.619512195121951,
12106294,2851.5625,4080,-2.50153280196199,-15264,-9.35867565910484,-3408,2.08951563458001,23,3.29268292682927,-54,-1.40243902439024,-6,0.365853658536585,-57,0.247826086956522,37,0.160869565217391,128,-0.624390243902439,
12106934,2871.09375,4112,-2.52115266707541,-15312,-9.38810545677498,-3456,2.11894543225015,22,3.04878048780488,-50,-1.34146341463415,-4,0.24390243902439,-58,0.252173913043478,42,0.182608695652174,126,-0.614634146341463,
12107574,2890.625,4112,-2.52115266707541,-15312,-9.38810545677498,-3504,2.14837522992029,22,3.04878048780488,-50,-1.34146341463415,-7,0.426829268292683,-58,0.252173913043478,34,0.147826086956522,128,-0.624390243902439,
12108214,2910.15625,4016,-2.46229307173513,-15296,-9.37829552421827,-3424,2.09932556713673,24,2.98780487804878,-49,-1.46341463414634,-6,0.365853658536585,-56,0.243478260869565,36,0.156521739130435,128,-0.624390243902439,
12108854,2929.6875,4048,-2.48191293684856,-15344,-9.40772532188841,-3440,2.10913549969344,18,2.80487804878049,-46,-1.09756097560976,-5,0.304878048780488,-57,0.247826086956522,38,0.165217391304348,126,-0.614634146341463,
12109494,2949.21875,4080,-2.50153280196199,-15312,-9.38810545677498,-3456,2.11894543225015,13,2.74390243902439,-45,-0.792682926829268,-13,0.792682926829268,-57,0.247826086956522,38,0.165217391304348,127,-0.619512195121951,
12110134,2968.75,4048,-2.48191293684856,-15344,-9.40772532188841,-3456,2.11894543225015,13,2.6219512195122,-43,-0.792682926829268,-12,0.731707317073171,-57,0.247826086956522,37,0.160869565217391,127,-0.619512195121951,
12110774,2988.28125,4048,-2.48191293684856,-15360,-9.41753525444513,-3440,2.10913549969344,15,2.4390243902439,-40,-0.914634146341463,-12,0.731707317073171,-56,0.243478260869565,37,0.160869565217391,127,-0.619512195121951,
12111414,3007.8125,4048,-2.48191293684856,-15328,-9.3979153893317,-3472,2.12875536480687,20,2.19512195121951,-36,-1.21951219512195,-15,0.914634146341463,-57,0.247826086956522,38,0.165217391304348,127,-0.619512195121951,
12112054,3027.34375,4016,-2.46229307173513,-15360,-9.41753525444513,-3504,2.14837522992029,22,2.13414634146341,-35,-1.34146341463415,-11,0.670731707317073,-56,0.243478260869565,37,0.160869565217391,127,-0.619512195121951,
12112694,3046.875,3968,-2.43286327406499,-15296,-9.37829552421827,-3568,2.18761496014715,23,2.31707317073171,-38,-1.40243902439024,-10,0.609756097560976,-59,0.256521739130435,37,0.160869565217391,128,-0.624390243902439,
12113334,3066.40625,3968,-2.43286327406499,-15296,-9.37829552421827,-3456,2.11894543225015,18,2.5,-41,-1.09756097560976,-9,0.548780487804878,-58,0.252173913043478,36,0.156521739130435,126,-0.614634146341463,
12113974,3085.9375,4032,-2.47210300429185,-15280,-9.36848559166156,-3552,2.17780502759044,9,2.4390243902439,-40,-0.548780487804878,-5,0.304878048780488,-55,0.239130434782609,34,0.147826086956522,127,-0.619512195121951,
12114614,3105.46875,4064,-2.49172286940527,-15264,-9.35867565910484,-3472,2.12875536480687,12,2.6219512195122,-43,-0.731707317073171,-3,0.182926829268293,-55,0.239130434782609,35,0.152173913043478,126,-0.614634146341463,
12115254,3125,4112,-2.52115266707541,-15280,-9.36848559166156,-3504,2.14837522992029,10,2.5609756097561,-42,-0.609756097560976,-2,0.121951219512195,-56,0.243478260869565,41,0.178260869565217,128,-0.624390243902439,
12115894,3144.53125,4128,-2.53096259963213,-15344,-9.40772532188841,-3488,2.13856529736358,15,2.5609756097561,-42,-0.914634146341463,-5,0.304878048780488,-58,0.252173913043478,38,0.165217391304348,128,-0.624390243902439,
12116534,3164.0625,4192,-2.57020232985898,-15328,-9.3979153893317,-3344,2.05027590435316,14,2.25609756097561,-37,-0.853658536585366,-9,0.548780487804878,-56,0.243478260869565,36,0.156521739130435,127,-0.619512195121951,
12117174,3183.59375,4080,-2.50153280196199,-15376,-9.42734518700184,-3360,2.06008583690987,7,2.31707317073171,-38,-0.426829268292683,-22,1.34146341463415,-56,0.243478260869565,37,0.160869565217391,129,-0.629268292682927,
12117814,3203.125,4048,-2.48191293684856,-15376,-9.42734518700184,-3424,2.09932556713673,7,2.31707317073171,-38,-0.426829268292683,-22,1.34146341463415,-58,0.252173913043478,38,0.165217391304348,127,-0.619512195121951,
12118454,3222.65625,4016,-2.46229307173513,-15280,-9.36848559166156,-3408,2.08951563458001,-4,2.01219512195122,-33,0.24390243902439,-30,1.82926829268293,-57,0.247826086956522,38,0.165217391304348,127,-0.619512195121951,
12119094,3242.1875,4000,-2.45248313917842,-15472,-9.48620478234212,-3264,2.00122624156959,-7,1.95121951219512,-32,0.426829268292683,-25,1.52439024390244,-57,0.247826086956522,36,0.156521739130435,129,-0.629268292682927,
12119734,3261.71875,4064,-2.49172286940527,-15424,-9.45677498467198,-3376,2.06989576946658,-9,1.89024390243902,-31,0.548780487804878,-22,1.34146341463415,-58,0.252173913043478,39,0.169565217391304,127,-0.619512195121951,
12120374,3281.25,3968,-2.43286327406499,-15440,-9.46658491722869,-3424,2.09932556713673,-3,1.64634146341463,-27,0.182926829268293,-19,1.15853658536585,-55,0.239130434782609,39,0.169565217391304,127,-0.619512195121951,
12121014,3300.78125,3984,-2.4426732066217,-15408,-9.44696505211527,-3408,2.08951563458001,-6,1.70731707317073,-28,0.365853658536585,-24,1.46341463414634,-56,0.243478260869565,37,0.160869565217391,126,-0.614634146341463,
12121654,3320.3125,3984,-2.4426732066217,-15312,-9.38810545677498,-3376,2.06989576946658,-16,1.70731707317073,-28,0.975609756097561,-30,1.82926829268293,-58,0.252173913043478,35,0.152173913043478,127,-0.619512195121951,
12122294,3339.84375,3952,-2.42305334150828,-15440,-9.46658491722869,-3424,2.09932556713673,-21,1.28048780487805,-21,1.28048780487805,-40,2.4390243902439,-58,0.252173913043478,38,0.165217391304348,128,-0.624390243902439,
12122934,3359.375,3872,-2.37400367872471,-15248,-9.34886572654813,-3504,2.14837522992029,-17,1.52439024390244,-25,1.03658536585366,-18,1.09756097560976,-58,0.252173913043478,33,0.143478260869565,126,-0.614634146341463,
12123574,3378.90625,3904,-2.39362354383814,-15424,-9.45677498467198,-3424,2.09932556713673,-13,2.4390243902439,-40,0.792682926829268,-6,0.365853658536585,-57,0.247826086956522,34,0.147826086956522,127,-0.619512195121951,
12124214,3398.4375,3840,-2.35438381361128,-15376,-9.42734518700184,-3536,2.16799509503372,-23,2.5609756097561,-42,1.40243902439024,-3,0.182926829268293,-59,0.256521739130435,39,0.169565217391304,128,-0.624390243902439,
12124854,3417.96875,3968,-2.43286327406499,-15456,-9.47639484978541,-3584,2.19742489270386,-42,2.68292682926829,-44,2.5609756097561,0,0,-57,0.247826086956522,41,0.178260869565217,128,-0.624390243902439,
12125494,3437.5,3984,-2.4426732066217,-15392,-9.43715511955855,-3456,2.11894543225015,-33,3.04878048780488,-50,2.01219512195122,-3,0.182926829268293,-56,0.243478260869565,34,0.147826086956522,128,-0.624390243902439,
12126134,3457.03125,4000,-2.45248313917842,-15408,-9.44696505211527,-3376,2.06989576946658,-31,2.80487804878049,-46,1.89024390243902,-1,0.0609756097560976,-58,0.252173913043478,35,0.152173913043478,127,-0.619512195121951,
12126774,3476.5625,4048,-2.48191293684856,-15344,-9.40772532188841,-3408,2.08951563458001,-13,2.68292682926829,-44,0.792682926829268,0,0,-57,0.247826086956522,37,0.160869565217391,125,-0.609756097560976,
12127414,3496.09375,4064,-2.49172286940527,-15328,-9.3979153893317,-3472,2.12875536480687,-14,2.6219512195122,-43,0.853658536585366,3,-0.182926829268293,-57,0.247826086956522,39,0.169565217391304,126,-0.614634146341463,
12128054,3515.625,4096,-2.5113427345187,-15376,-9.42734518700184,-3424,2.09932556713673,-18,2.6219512195122,-43,1.09756097560976,10,-0.609756097560976,-57,0.247826086956522,34,0.147826086956522,128,-0.624390243902439,
12128694,3535.15625,4144,-2.54077253218884,-15376,-9.42734518700184,-3456,2.11894543225015,-18,2.80487804878049,-46,1.09756097560976,16,-0.975609756097561,-58,0.252173913043478,37,0.160869565217391,128,-0.624390243902439,
12129334,3554.6875,4224,-2.58982219497241,-15392,-9.43715511955855,-3392,2.0797057020233,-17,2.6219512195122,-43,1.03658536585366,17,-1.03658536585366,-56,0.243478260869565,38,0.165217391304348,126,-0.614634146341463,
12129974,3574.21875,4192,-2.57020232985898,-15392,-9.43715511955855,-3392,2.0797057020233,-10,2.4390243902439,-40,0.609756097560976,11,-0.670731707317073,-57,0.247826086956522,37,0.160869565217391,126,-0.614634146341463,
12130614,3593.75,4208,-2.5800122624157,-15312,-9.38810545677498,-3392,2.0797057020233,-6,2.4390243902439,-40,0.365853658536585,5,-0.304878048780488,-59,0.256521739130435,38,0.165217391304348,128,-0.624390243902439,
12131254,3613.28125,4288,-2.62906192519926,-15328,-9.3979153893317,-3488,2.13856529736358,-5,2.13414634146341,-35,0.304878048780488,-3,0.182926829268293,-58,0.252173913043478,37,0.160869565217391,126,-0.614634146341463,
12131894,3632.8125,4224,-2.58982219497241,-15392,-9.43715511955855,-3456,2.11894543225015,-3,2.31707317073171,-38,0.182926829268293,-6,0.365853658536585,-56,0.243478260869565,35,0.152173913043478,127,-0.619512195121951,
12132534,3652.34375,4208,-2.5800122624157,-15360,-9.41753525444513,-3488,2.13856529736358,-8,2.4390243902439,-40,0.487804878048781,-7,0.426829268292683,-59,0.256521739130435,41,0.178260869565217,126,-0.614634146341463,
12133174,3671.875,4192,-2.57020232985898,-15344,-9.40772532188841,-3408,2.08951563458001,-12,2.6219512195122,-43,0.731707317073171,-13,0.792682926829268,-59,0.256521739130435,41,0.178260869565217,126,-0.614634146341463,
12133814,3691.40625,4144,-2.54077253218884,-15360,-9.41753525444513,-3456,2.11894543225015,-15,2.5,-41,0.914634146341463,-16,0.975609756097561,-57,0.247826086956522,39,0.169565217391304,127,-0.619512195121951,
12134454,3710.9375,4208,-2.5800122624157,-15376,-9.42734518700184,-3408,2.08951563458001,-8,2.6219512195122,-43,0.487804878048781,-17,1.03658536585366,-58,0.252173913043478,36,0.156521739130435,127,-0.619512195121951,
12135094,3730.46875,4192,-2.57020232985898,-15392,-9.43715511955855,-3408,2.08951563458001,-6,2.6219512195122,-43,0.365853658536585,-16,0.975609756097561,-58,0.252173913043478,35,0.152173913043478,128,-0.624390243902439,
12135734,3750,4112,-2.52115266707541,-15456,-9.47639484978541,-3456,2.11894543225015,-3,2.6219512195122,-43,0.182926829268293,-11,0.670731707317073,-57,0.247826086956522,40,0.173913043478261,125,-0.609756097560976,
12136374,3769.53125,4032,-2.47210300429185,-15392,-9.43715511955855,-3392,2.0797057020233,1,2.6219512195122,-43,-0.0609756097560976,-10,0.609756097560976,-57,0.247826086956522,40,0.173913043478261,124,-0.604878048780488,
12137014,3789.0625,3968,-2.43286327406499,-15344,-9.40772532188841,-3408,2.08951563458001,4,2.5609756097561,-42,-0.24390243902439,-7,0.426829268292683,-56,0.243478260869565,37,0.160869565217391,128,-0.624390243902439,
12137654,3808.59375,3968,-2.43286327406499,-15424,-9.45677498467198,-3408,2.08951563458001,1,2.6219512195122,-43,-0.0609756097560976,-3,0.182926829268293,-57,0.247826086956522,38,0.165217391304348,126,-0.614634146341463,
12138294,3828.125,4032,-2.47210300429185,-15280,-9.36848559166156,-3424,2.09932556713673,1,2.68292682926829,-44,-0.0609756097560976,3,-0.182926829268293,-58,0.252173913043478,38,0.165217391304348,125,-0.609756097560976,
12138934,3847.65625,3936,-2.41324340895156,-15360,-9.41753525444513,-3408,2.08951563458001,-2,2.5609756097561,-42,0.121951219512195,8,-0.487804878048781,-59,0.256521739130435,37,0.160869565217391,128,-0.624390243902439,
12139574,3867.1875,4016,-2.46229307173513,-15376,-9.42734518700184,-3392,2.0797057020233,1,2.5609756097561,-42,-0.0609756097560976,9,-0.548780487804878,-57,0.247826086956522,36,0.156521739130435,128,-0.624390243902439,
12140214,3886.71875,4048,-2.48191293684856,-15360,-9.41753525444513,-3376,2.06989576946658,7,2.4390243902439,-40,-0.426829268292683,14,-0.853658536585366,-56,0.243478260869565,36,0.156521739130435,126,-0.614634146341463,
12140854,3906.25,4032,-2.47210300429185,-15408,-9.44696505211527,-3424,2.09932556713673,10,2.31707317073171,-38,-0.609756097560976,15,-0.914634146341463,-57,0.247826086956522,35,0.152173913043478,127,-0.619512195121951,
12141494,3925.78125,4064,-2.49172286940527,-15440,-9.46658491722869,-3424,2.09932556713673,20,2.31707317073171,-38,-1.21951219512195,16,-0.975609756097561,-57,0.247826086956522,42,0.182608695652174,126,-0.614634146341463,
12142134,3945.3125,4112,-2.52115266707541,-15424,-9.45677498467198,-3440,2.10913549969344,17,2.13414634146341,-35,-1.03658536585366,14,-0.853658536585366,-57,0.247826086956522,39,0.169565217391304,126,-0.614634146341463,
12142774,3964.84375,4096,-2.5113427345187,-15376,-9.42734518700184,-3424,2.09932556713673,13,2.25609756097561,-37,-0.792682926829268,12,-0.731707317073171,-56,0.243478260869565,35,0.152173913043478,127,-0.619512195121951,
12143414,3984.375,4096,-2.5113427345187,-15408,-9.44696505211527,-3440,2.10913549969344,6,2.19512195121951,-36,-0.365853658536585,13,-0.792682926829268,-56,0.243478260869565,36,0.156521739130435,126,-0.614634146341463,
12144054,4003.90625,4064,-2.49172286940527,-15376,-9.42734518700184,-3504,2.14837522992029,8,2.6219512195122,-43,-0.487804878048781,8,-0.487804878048781,-58,0.252173913043478,36,0.156521739130435,126,-0.614634146341463,
12144694,4023.4375,4016,-2.46229307173513,-15264,-9.35867565910484,-3472,2.12875536480687,9,2.5,-41,-0.548780487804878,4,-0.24390243902439,-57,0.247826086956522,38,0.165217391304348,125,-0.609756097560976,
12145334,4042.96875,4096,-2.5113427345187,-15328,-9.3979153893317,-3408,2.08951563458001,1,2.74390243902439,-45,-0.0609756097560976,4,-0.24390243902439,-57,0.247826086956522,38,0.165217391304348,126,-0.614634146341463,
12145974,4062.5,4128,-2.53096259963213,-15456,-9.47639484978541,-3328,2.04046597179644,4,2.74390243902439,-45,-0.24390243902439,5,-0.304878048780488,-56,0.243478260869565,37,0.160869565217391,127,-0.619512195121951,
12146614,4082.03125,4144,-2.54077253218884,-15440,-9.46658491722869,-3392,2.0797057020233,9,2.25609756097561,-37,-0.548780487804878,6,-0.365853658536585,-56,0.243478260869565,39,0.169565217391304,125,-0.609756097560976,
12147254,4101.5625,4160,-2.55058246474555,-15408,-9.44696505211527,-3376,2.06989576946658,18,2.5,-41,-1.09756097560976,3,-0.182926829268293,-57,0.247826086956522,37,0.160869565217391,127,-0.619512195121951,
12147894,4121.09375,4144,-2.54077253218884,-15392,-9.43715511955855,-3392,2.0797057020233,9,2.6219512195122,-43,-0.548780487804878,-5,0.304878048780488,-57,0.247826086956522,36,0.156521739130435,126,-0.614634146341463,
12148534,4140.625,4144,-2.54077253218884,-15360,-9.41753525444513,-3520,2.15818516247701,7,2.92682926829268,-48,-0.426829268292683,-11,0.670731707317073,-57,0.247826086956522,36,0.156521739130435,128,-0.624390243902439,
12149174,4160.15625,4144,-2.54077253218884,-15344,-9.40772532188841,-3488,2.13856529736358,7,3.17073170731707,-52,-0.426829268292683,-13,0.792682926829268,-57,0.247826086956522,35,0.152173913043478,125,-0.609756097560976,
12149814,4179.6875,4032,-2.47210300429185,-15360,-9.41753525444513,-3392,2.0797057020233,5,3.35365853658537,-55,-0.304878048780488,-16,0.975609756097561,-55,0.239130434782609,35,0.152173913043478,125,-0.609756097560976,
12150454,4199.21875,4112,-2.52115266707541,-15440,-9.46658491722869,-3504,2.14837522992029,-1,3.29268292682927,-54,0.0609756097560976,-17,1.03658536585366,-57,0.247826086956522,40,0.173913043478261,127,-0.619512195121951,
12151094,4218.75,4080,-2.50153280196199,-15392,-9.43715511955855,-3376,2.06989576946658,-9,3.53658536585366,-58,0.548780487804878,-22,1.34146341463415,-57,0.247826086956522,39,0.169565217391304,127,-0.619512195121951,
12151734,4238.28125,4032,-2.47210300429185,-15360,-9.41753525444513,-3328,2.04046597179644,-10,3.71951219512195,-61,0.609756097560976,-26,1.58536585365854,-56,0.243478260869565,38,0.165217391304348,124,-0.604878048780488,
12152374,4257.8125,4096,-2.5113427345187,-15344,-9.40772532188841,-3392,2.0797057020233,-10,3.59756097560976,-59,0.609756097560976,-29,1.76829268292683,-57,0.247826086956522,36,0.156521739130435,127,-0.619512195121951,
12153014,4277.34375,4000,-2.45248313917842,-15312,-9.38810545677498,-3312,2.03065603923973,-7,3.41463414634146,-56,0.426829268292683,-28,1.70731707317073,-56,0.243478260869565,38,0.165217391304348,126,-0.614634146341463,
12153654,4296.875,3968,-2.43286327406499,-15344,-9.40772532188841,-3296,2.02084610668302,-5,3.29268292682927,-54,0.304878048780488,-22,1.34146341463415,-59,0.256521739130435,40,0.173913043478261,126,-0.614634146341463,
12154294,4316.40625,3936,-2.41324340895156,-15328,-9.3979153893317,-3312,2.03065603923973,-9,3.17073170731707,-52,0.548780487804878,-15,0.914634146341463,-56,0.243478260869565,36,0.156521739130435,127,-0.619512195121951,
12154934,4335.9375,3952,-2.42305334150828,-15392,-9.43715511955855,-3344,2.05027590435316,-16,3.17073170731707,-52,0.975609756097561,-10,0.609756097560976,-59,0.256521739130435,35,0.152173913043478,127,-0.619512195121951,
12155574,4355.46875,4000,-2.45248313917842,-15408,-9.44696505211527,-3280,2.0110361741263,-16,3.17073170731707,-52,0.975609756097561,-9,0.548780487804878,-60,0.260869565217391,40,0.173913043478261,125,-0.609756097560976,
12156214,4375,4064,-2.49172286940527,-15360,-9.41753525444513,-3296,2.02084610668302,-14,2.92682926829268,-48,0.853658536585366,-7,0.426829268292683,-56,0.243478260869565,36,0.156521739130435,126,-0.614634146341463,
12156854,4394.53125,4096,-2.5113427345187,-15312,-9.38810545677498,-3344,2.05027590435316,-8,2.74390243902439,-45,0.487804878048781,-12,0.731707317073171,-57,0.247826086956522,37,0.160869565217391,127,-0.619512195121951,
12157494,4414.0625,4080,-2.50153280196199,-15424,-9.45677498467198,-3360,2.06008583690987,-11,2.5,-41,0.670731707317073,-10,0.609756097560976,-57,0.247826086956522,37,0.160869565217391,127,-0.619512195121951,
12158134,4433.59375,3984,-2.4426732066217,-15488,-9.49601471489883,-3376,2.06989576946658,-14,2.68292682926829,-44,0.853658536585366,-6,0.365853658536585,-56,0.243478260869565,35,0.152173913043478,126,-0.614634146341463,
12158774,4453.125,4016,-2.46229307173513,-15360,-9.41753525444513,-3408,2.08951563458001,-16,2.68292682926829,-44,0.975609756097561,-4,0.24390243902439,-55,0.239130434782609,35,0.152173913043478,126,-0.614634146341463,
12159414,4472.65625,3984,-2.4426732066217,-15424,-9.45677498467198,-3392,2.0797057020233,-17,2.80487804878049,-46,1.03658536585366,-4,0.24390243902439,-58,0.252173913043478,39,0.169565217391304,127,-0.619512195121951,
12160054,4492.1875,4016,-2.46229307173513,-15424,-9.45677498467198,-3344,2.05027590435316,-14,2.6219512195122,-43,0.853658536585366,-3,0.182926829268293,-58,0.252173913043478,39,0.169565217391304,126,-0.614634146341463,
12160694,4511.71875,4048,-2.48191293684856,-15424,-9.45677498467198,-3312,2.03065603923973,-13,2.74390243902439,-45,0.792682926829268,-3,0.182926829268293,-57,0.247826086956522,36,0.156521739130435,127,-0.619512195121951,
12161334,4531.25,4080,-2.50153280196199,-15456,-9.47639484978541,-3392,2.0797057020233,-13,2.74390243902439,-45,0.792682926829268,-5,0.304878048780488,-58,0.252173913043478,39,0.169565217391304,126,-0.614634146341463,
12161974,4550.78125,4096,-2.5113427345187,-15424,-9.45677498467198,-3392,2.0797057020233,-15,2.74390243902439,-45,0.914634146341463,-7,0.426829268292683,-57,0.247826086956522,37,0.160869565217391,126,-0.614634146341463,
12162614,4570.3125,4048,-2.48191293684856,-15504,-9.50582464745555,-3440,2.10913549969344,-13,2.86585365853659,-47,0.792682926829268,-7,0.426829268292683,-59,0.256521739130435,40,0.173913043478261,125,-0.609756097560976,
12163254,4589.84375,4048,-2.48191293684856,-15520,-9.51563458001226,-3440,2.10913549969344,-18,2.80487804878049,-46,1.09756097560976,-4,0.24390243902439,-56,0.243478260869565,35,0.152173913043478,127,-0.619512195121951,
12163894,4609.375,4096,-2.5113427345187,-15472,-9.48620478234212,-3408,2.08951563458001,-13,2.80487804878049,-46,0.792682926829268,-1,0.0609756097560976,-58,0.252173913043478,36,0.156521739130435,126,-0.614634146341463,
12164534,4628.90625,4048,-2.48191293684856,-15408,-9.44696505211527,-3472,2.12875536480687,-9,2.92682926829268,-48,0.548780487804878,1,-0.0609756097560976,-56,0.243478260869565,39,0.169565217391304,125,-0.609756097560976,
12165174,4648.4375,4048,-2.48191293684856,-15440,-9.46658491722869,-3408,2.08951563458001,-7,2.92682926829268,-48,0.426829268292683,5,-0.304878048780488,-59,0.256521739130435,40,0.173913043478261,125,-0.609756097560976,
12165814,4667.96875,4064,-2.49172286940527,-15408,-9.44696505211527,-3392,2.0797057020233,-10,2.92682926829268,-48,0.609756097560976,6,-0.365853658536585,-58,0.252173913043478,36,0.156521739130435,127,-0.619512195121951,
12166454,4687.5,4048,-2.48191293684856,-15360,-9.41753525444513,-3376,2.06989576946658,-9,2.98780487804878,-49,0.548780487804878,8,-0.487804878048781,-59,0.256521739130435,37,0.160869565217391,127,-0.619512195121951,
12167094,4707.03125,4080,-2.50153280196199,-15328,-9.3979153893317,-3376,2.06989576946658,-6,2.92682926829268,-48,0.365853658536585,6,-0.365853658536585,-56,0.243478260869565,34,0.147826086956522,127,-0.619512195121951,
12167734,4726.5625,4112,-2.52115266707541,-15376,-9.42734518700184,-3376,2.06989576946658,-5,2.74390243902439,-45,0.304878048780488,8,-0.487804878048781,-57,0.247826086956522,34,0.147826086956522,126,-0.614634146341463,
12168374,4746.09375,4096,-2.5113427345187,-15376,-9.42734518700184,-3328,2.04046597179644,-4,2.74390243902439,-45,0.24390243902439,7,-0.426829268292683,-59,0.256521739130435,40,0.173913043478261,127,-0.619512195121951,
12169014,4765.625,4080,-2.50153280196199,-15408,-9.44696505211527,-3344,2.05027590435316,-3,2.92682926829268,-48,0.182926829268293,8,-0.487804878048781,-59,0.256521739130435,39,0.169565217391304,128,-0.624390243902439,
12169654,4785.15625,4064,-2.49172286940527,-15456,-9.47639484978541,-3360,2.06008583690987,1,2.80487804878049,-46,-0.0609756097560976,7,-0.426829268292683,-57,0.247826086956522,39,0.169565217391304,125,-0.609756097560976,
12170294,4804.6875,4048,-2.48191293684856,-15472,-9.48620478234212,-3296,2.02084610668302,-1,2.80487804878049,-46,0.0609756097560976,4,-0.24390243902439,-57,0.247826086956522,41,0.178260869565217,126,-0.614634146341463,
12170934,4824.21875,4128,-2.53096259963213,-15392,-9.43715511955855,-3344,2.05027590435316,-1,2.68292682926829,-44,0.0609756097560976,0,0,-59,0.256521739130435,39,0.169565217391304,128,-0.624390243902439,
12171574,4843.75,4112,-2.52115266707541,-15344,-9.40772532188841,-3280,2.0110361741263,1,2.68292682926829,-44,-0.0609756097560976,-6,0.365853658536585,-57,0.247826086956522,39,0.169565217391304,125,-0.609756097560976,
12172214,4863.28125,4048,-2.48191293684856,-15280,-9.36848559166156,-3328,2.04046597179644,-1,2.6219512195122,-43,0.0609756097560976,-14,0.853658536585366,-57,0.247826086956522,35,0.152173913043478,127,-0.619512195121951,
12172854,4882.8125,4048,-2.48191293684856,-15328,-9.3979153893317,-3296,2.02084610668302,-9,2.6219512195122,-43,0.548780487804878,-12,0.731707317073171,-57,0.247826086956522,40,0.173913043478261,125,-0.609756097560976,
12173494,4902.34375,4080,-2.50153280196199,-15488,-9.49601471489883,-3312,2.03065603923973,-6,2.80487804878049,-46,0.365853658536585,-5,0.304878048780488,-57,0.247826086956522,39,0.169565217391304,125,-0.609756097560976,
12174134,4921.875,4032,-2.47210300429185,-15408,-9.44696505211527,-3392,2.0797057020233,6,2.31707317073171,-38,-0.365853658536585,3,-0.182926829268293,-57,0.247826086956522,38,0.165217391304348,125,-0.609756097560976,
12174774,4941.40625,4048,-2.48191293684856,-15344,-9.40772532188841,-3360,2.06008583690987,13,2.13414634146341,-35,-0.792682926829268,5,-0.304878048780488,-58,0.252173913043478,37,0.160869565217391,128,-0.624390243902439,
12175414,4960.9375,4096,-2.5113427345187,-15376,-9.42734518700184,-3392,2.0797057020233,15,2.19512195121951,-36,-0.914634146341463,2,-0.121951219512195,-56,0.243478260869565,37,0.160869565217391,125,-0.609756097560976,
12176054,4980.46875,4032,-2.47210300429185,-15344,-9.40772532188841,-3392,2.0797057020233,11,2.19512195121951,-36,-0.670731707317073,-4,0.24390243902439,-58,0.252173913043478,40,0.173913043478261,125,-0.609756097560976,
12176694,5000,4080,-2.50153280196199,-15392,-9.43715511955855,-3488,2.13856529736358,10,2.5609756097561,-42,-0.609756097560976,-8,0.487804878048781,-57,0.247826086956522,38,0.165217391304348,127,-0.619512195121951,
12177334,5019.53125,4016,-2.46229307173513,-15376,-9.42734518700184,-3376,2.06989576946658,9,2.5609756097561,-42,-0.548780487804878,-2,0.121951219512195,-57,0.247826086956522,41,0.178260869565217,127,-0.619512195121951,
12177974,5039.0625,3968,-2.43286327406499,-15328,-9.3979153893317,-3280,2.0110361741263,6,2.68292682926829,-44,-0.365853658536585,-4,0.24390243902439,-56,0.243478260869565,36,0.156521739130435,127,-0.619512195121951,
12178614,5058.59375,4000,-2.45248313917842,-15408,-9.44696505211527,-3248,1.99141630901288,10,2.6219512195122,-43,-0.609756097560976,3,-0.182926829268293,-58,0.252173913043478,38,0.165217391304348,125,-0.609756097560976,
12179254,5078.125,4080,-2.50153280196199,-15360,-9.41753525444513,-3296,2.02084610668302,17,2.13414634146341,-35,-1.03658536585366,4,-0.24390243902439,-57,0.247826086956522,39,0.169565217391304,127,-0.619512195121951,
12179894,5097.65625,4128,-2.53096259963213,-15344,-9.40772532188841,-3376,2.06989576946658,30,2.13414634146341,-35,-1.82926829268293,5,-0.304878048780488,-58,0.252173913043478,37,0.160869565217391,126,-0.614634146341463,
12180534,5117.1875,4032,-2.47210300429185,-15408,-9.44696505211527,-3312,2.03065603923973,33,2.13414634146341,-35,-2.01219512195122,0,0,-56,0.243478260869565,36,0.156521739130435,128,-0.624390243902439,
12181174,5136.71875,4112,-2.52115266707541,-15344,-9.40772532188841,-3392,2.0797057020233,31,2.19512195121951,-36,-1.89024390243902,1,-0.0609756097560976,-56,0.243478260869565,36,0.156521739130435,128,-0.624390243902439,
12181814,5156.25,4112,-2.52115266707541,-15440,-9.46658491722869,-3392,2.0797057020233,22,2.4390243902439,-40,-1.34146341463415,-4,0.24390243902439,-56,0.243478260869565,40,0.173913043478261,126,-0.614634146341463,
12182454,5175.78125,4144,-2.54077253218884,-15472,-9.48620478234212,-3360,2.06008583690987,15,2.74390243902439,-45,-0.914634146341463,-9,0.548780487804878,-56,0.243478260869565,39,0.169565217391304,126,-0.614634146341463,
12183094,5195.3125,4144,-2.54077253218884,-15424,-9.45677498467198,-3312,2.03065603923973,13,2.98780487804878,-49,-0.792682926829268,-18,1.09756097560976,-58,0.252173913043478,36,0.156521739130435,127,-0.619512195121951,
12183734,5214.84375,4128,-2.53096259963213,-15392,-9.43715511955855,-3360,2.06008583690987,11,3.04878048780488,-50,-0.670731707317073,-25,1.52439024390244,-59,0.256521739130435,37,0.160869565217391,127,-0.619512195121951,
12184374,5234.375,4096,-2.5113427345187,-15360,-9.41753525444513,-3248,1.99141630901288,11,3.23170731707317,-53,-0.670731707317073,-32,1.95121951219512,-58,0.252173913043478,36,0.156521739130435,126,-0.614634146341463,
12185014,5253.90625,4000,-2.45248313917842,-15392,-9.43715511955855,-3296,2.02084610668302,4,3.23170731707317,-53,-0.24390243902439,-34,2.07317073170732,-55,0.239130434782609,35,0.152173913043478,125,-0.609756097560976,
12185654,5273.4375,3968,-2.43286327406499,-15344,-9.40772532188841,-3376,2.06989576946658,5,3.53658536585366,-58,-0.304878048780488,-33,2.01219512195122,-57,0.247826086956522,43,0.18695652173913,127,-0.619512195121951,
12186294,5292.96875,4000,-2.45248313917842,-15392,-9.43715511955855,-3328,2.04046597179644,13,3.23170731707317,-53,-0.792682926829268,-24,1.46341463414634,-57,0.247826086956522,41,0.178260869565217,127,-0.619512195121951,
12186934,5312.5,4032,-2.47210300429185,-15440,-9.46658491722869,-3264,2.00122624156959,15,3.35365853658537,-55,-0.914634146341463,-22,1.34146341463415,-57,0.247826086956522,35,0.152173913043478,126,-0.614634146341463,
12187574,5332.03125,3984,-2.4426732066217,-15360,-9.41753525444513,-3296,2.02084610668302,13,3.17073170731707,-52,-0.792682926829268,-19,1.15853658536585,-56,0.243478260869565,38,0.165217391304348,126,-0.614634146341463,
12188214,5351.5625,3952,-2.42305334150828,-15440,-9.46658491722869,-3296,2.02084610668302,11,3.35365853658537,-55,-0.670731707317073,-16,0.975609756097561,-58,0.252173913043478,40,0.173913043478261,126,-0.614634146341463,
12188854,5371.09375,3936,-2.41324340895156,-15424,-9.45677498467198,-3216,1.97179644389945,11,3.29268292682927,-54,-0.670731707317073,-19,1.15853658536585,-57,0.247826086956522,40,0.173913043478261,126,-0.614634146341463,
12189494,5390.625,3920,-2.40343347639485,-15520,-9.51563458001226,-3216,1.97179644389945,2,3.41463414634146,-56,-0.121951219512195,-19,1.15853658536585,-56,0.243478260869565,36,0.156521739130435,127,-0.619512195121951,
12190134,5410.15625,3888,-2.38381361128142,-15456,-9.47639484978541,-3152,1.93255671367259,-3,3.47560975609756,-57,0.182926829268293,-18,1.09756097560976,-56,0.243478260869565,36,0.156521739130435,126,-0.614634146341463,
12190774,5429.6875,3840,-2.35438381361128,-15376,-9.42734518700184,-3200,1.96198651134273,-13,3.53658536585366,-58,0.792682926829268,-19,1.15853658536585,-56,0.243478260869565,39,0.169565217391304,126,-0.614634146341463,
12191414,5449.21875,3904,-2.39362354383814,-15344,-9.40772532188841,-3184,1.95217657878602,-19,3.53658536585366,-58,1.15853658536585,-16,0.975609756097561,-55,0.239130434782609,39,0.169565217391304,125,-0.609756097560976,
12192054,5468.75,3888,-2.38381361128142,-15376,-9.42734518700184,-3184,1.95217657878602,-20,3.41463414634146,-56,1.21951219512195,-9,0.548780487804878,-58,0.252173913043478,39,0.169565217391304,125,-0.609756097560976,
12192694,5488.28125,3888,-2.38381361128142,-15376,-9.42734518700184,-3232,1.98160637645616,-23,3.23170731707317,-53,1.40243902439024,-4,0.24390243902439,-58,0.252173913043478,36,0.156521739130435,127,-0.619512195121951,
12193334,5507.8125,3984,-2.4426732066217,-15280,-9.36848559166156,-3248,1.99141630901288,-18,2.68292682926829,-44,1.09756097560976,2,-0.121951219512195,-56,0.243478260869565,38,0.165217391304348,125,-0.609756097560976,
12193974,5527.34375,3952,-2.42305334150828,-15360,-9.41753525444513,-3232,1.98160637645616,-11,2.13414634146341,-35,0.670731707317073,9,-0.548780487804878,-57,0.247826086956522,42,0.182608695652174,125,-0.609756097560976,
12194614,5546.875,3952,-2.42305334150828,-15376,-9.42734518700184,-3296,2.02084610668302,-2,1.76829268292683,-29,0.121951219512195,16,-0.975609756097561,-56,0.243478260869565,39,0.169565217391304,126,-0.614634146341463,
12195254,5566.40625,4000,-2.45248313917842,-15472,-9.48620478234212,-3312,2.03065603923973,2,1.52439024390244,-25,-0.121951219512195,18,-1.09756097560976,-58,0.252173913043478,41,0.178260869565217,126,-0.614634146341463,
12195894,5585.9375,4000,-2.45248313917842,-15472,-9.48620478234212,-3472,2.12875536480687,-2,1.76829268292683,-29,0.121951219512195,23,-1.40243902439024,-56,0.243478260869565,35,0.152173913043478,127,-0.619512195121951,
12196534,5605.46875,3952,-2.42305334150828,-15472,-9.48620478234212,-3440,2.10913549969344,-7,2.68292682926829,-44,0.426829268292683,15,-0.914634146341463,-56,0.243478260869565,35,0.152173913043478,126,-0.614634146341463,
12197174,5625,4160,-2.55058246474555,-15536,-9.52544451256898,-3504,2.14837522992029,-22,1.82926829268293,-30,1.34146341463415,-3,0.182926829268293,-58,0.252173913043478,40,0.173913043478261,126,-0.614634146341463,
12197814,5644.53125,4128,-2.53096259963213,-15440,-9.46658491722869,-3520,2.15818516247701,-3,2.74390243902439,-45,0.182926829268293,7,-0.426829268292683,-57,0.247826086956522,38,0.165217391304348,125,-0.609756097560976,
12198454,5664.0625,4112,-2.52115266707541,-15440,-9.46658491722869,-3536,2.16799509503372,-17,3.04878048780488,-50,1.03658536585366,1,-0.0609756097560976,-56,0.243478260869565,36,0.156521739130435,127,-0.619512195121951,
12199094,5683.59375,4272,-2.61925199264255,-15424,-9.45677498467198,-3504,2.14837522992029,-17,3.35365853658537,-55,1.03658536585366,-3,0.182926829268293,-56,0.243478260869565,37,0.160869565217391,127,-0.619512195121951,
12199734,5703.125,4208,-2.5800122624157,-15472,-9.48620478234212,-3536,2.16799509503372,-12,3.65853658536585,-60,0.731707317073171,-3,0.182926829268293,-57,0.247826086956522,39,0.169565217391304,127,-0.619512195121951,
12200374,5722.65625,4176,-2.56039239730227,-15424,-9.45677498467198,-3536,2.16799509503372,-16,3.90243902439024,-64,0.975609756097561,-10,0.609756097560976,-58,0.252173913043478,39,0.169565217391304,126,-0.614634146341463,
12201014,5742.1875,4176,-2.56039239730227,-15344,-9.40772532188841,-3520,2.15818516247701,-15,4.39024390243902,-72,0.914634146341463,-14,0.853658536585366,-60,0.260869565217391,37,0.160869565217391,127,-0.619512195121951,
12201654,5761.71875,4176,-2.56039239730227,-15344,-9.40772532188841,-3472,2.12875536480687,-23,4.26829268292683,-70,1.40243902439024,-20,1.21951219512195,-57,0.247826086956522,39,0.169565217391304,126,-0.614634146341463,
12202294,5781.25,4208,-2.5800122624157,-15360,-9.41753525444513,-3440,2.10913549969344,-21,4.63414634146342,-76,1.28048780487805,-14,0.853658536585366,-56,0.243478260869565,37,0.160869565217391,126,-0.614634146341463,
12202934,5800.78125,4192,-2.57020232985898,-15456,-9.47639484978541,-3456,2.11894543225015,-11,4.45121951219512,-73,0.670731707317073,-12,0.731707317073171,-59,0.256521739130435,43,0.18695652173913,125,-0.609756097560976,
12203574,5820.3125,4160,-2.55058246474555,-15440,-9.46658491722869,-3552,2.17780502759044,-5,4.32926829268293,-71,0.304878048780488,-14,0.853658536585366,-57,0.247826086956522,38,0.165217391304348,126,-0.614634146341463,
12204214,5839.84375,4128,-2.53096259963213,-15488,-9.49601471489883,-3472,2.12875536480687,-1,4.39024390243902,-72,0.0609756097560976,-22,1.34146341463415,-58,0.252173913043478,39,0.169565217391304,126,-0.614634146341463,
12204854,5859.375,4160,-2.55058246474555,-15424,-9.45677498467198,-3392,2.0797057020233,3,4.63414634146342,-76,-0.182926829268293,-25,1.52439024390244,-57,0.247826086956522,40,0.173913043478261,126,-0.614634146341463,
12205494,5878.90625,4128,-2.53096259963213,-15392,-9.43715511955855,-3376,2.06989576946658,8,4.51219512195122,-74,-0.487804878048781,-28,1.70731707317073,-57,0.247826086956522,36,0.156521739130435,127,-0.619512195121951,
12206134,5898.4375,3968,-2.43286327406499,-15344,-9.40772532188841,-3424,2.09932556713673,12,4.51219512195122,-74,-0.731707317073171,-27,1.64634146341463,-58,0.252173913043478,40,0.173913043478261,127,-0.619512195121951,
12206774,5917.96875,3968,-2.43286327406499,-15456,-9.47639484978541,-3360,2.06008583690987,4,4.57317073170732,-75,-0.24390243902439,-25,1.52439024390244,-57,0.247826086956522,37,0.160869565217391,126,-0.614634146341463,
12207414,5937.5,3984,-2.4426732066217,-15424,-9.45677498467198,-3264,2.00122624156959,-11,4.69512195121951,-77,0.670731707317073,-25,1.52439024390244,-57,0.247826086956522,40,0.173913043478261,126,-0.614634146341463,
12208054,5957.03125,4064,-2.49172286940527,-15312,-9.38810545677498,-3344,2.05027590435316,-16,4.69512195121951,-77,0.975609756097561,-24,1.46341463414634,-56,0.243478260869565,36,0.156521739130435,128,-0.624390243902439,
12208694,5976.5625,4080,-2.50153280196199,-15232,-9.33905579399141,-3328,2.04046597179644,-13,4.14634146341463,-68,0.792682926829268,-23,1.40243902439024,-56,0.243478260869565,38,0.165217391304348,125,-0.609756097560976,
12209334,5996.09375,4064,-2.49172286940527,-15280,-9.36848559166156,-3344,2.05027590435316,-4,3.71951219512195,-61,0.24390243902439,-16,0.975609756097561,-56,0.243478260869565,38,0.165217391304348,126,-0.614634146341463,
12209974,6015.625,4000,-2.45248313917842,-15264,-9.35867565910484,-3328,2.04046597179644,10,3.59756097560976,-59,-0.609756097560976,-10,0.609756097560976,-58,0.252173913043478,37,0.160869565217391,127,-0.619512195121951,
12210614,6035.15625,3968,-2.43286327406499,-15296,-9.37829552421827,-3392,2.0797057020233,11,3.17073170731707,-52,-0.670731707317073,-3,0.182926829268293,-58,0.252173913043478,36,0.156521739130435,128,-0.624390243902439,
12211254,6054.6875,4016,-2.46229307173513,-15360,-9.41753525444513,-3408,2.08951563458001,3,2.92682926829268,-48,-0.182926829268293,2,-0.121951219512195,-58,0.252173913043478,36,0.156521739130435,126,-0.614634146341463,
12211894,6074.21875,3984,-2.4426732066217,-15360,-9.41753525444513,-3312,2.03065603923973,-2,2.86585365853659,-47,0.121951219512195,2,-0.121951219512195,-57,0.247826086956522,35,0.152173913043478,126,-0.614634146341463,
12212534,6093.75,4144,-2.54077253218884,-15408,-9.44696505211527,-3344,2.05027590435316,-1,2.86585365853659,-47,0.0609756097560976,-1,0.0609756097560976,-58,0.252173913043478,40,0.173913043478261,127,-0.619512195121951,
12213174,6113.28125,4192,-2.57020232985898,-15376,-9.42734518700184,-3456,2.11894543225015,4,2.5,-41,-0.24390243902439,-1,0.0609756097560976,-56,0.243478260869565,36,0.156521739130435,127,-0.619512195121951,
12213814,6132.8125,4096,-2.5113427345187,-15424,-9.45677498467198,-3552,2.17780502759044,4,2.5609756097561,-42,-0.24390243902439,-2,0.121951219512195,-57,0.247826086956522,35,0.152173913043478,127,-0.619512195121951,
12214454,6152.34375,4096,-2.5113427345187,-15440,-9.46658491722869,-3520,2.15818516247701,4,2.4390243902439,-40,-0.24390243902439,-2,0.121951219512195,-57,0.247826086956522,38,0.165217391304348,128,-0.624390243902439,
12215094,6171.875,4080,-2.50153280196199,-15360,-9.41753525444513,-3536,2.16799509503372,6,2.68292682926829,-44,-0.365853658536585,-3,0.182926829268293,-59,0.256521739130435,36,0.156521739130435,126,-0.614634146341463,
12215734,6191.40625,4096,-2.5113427345187,-15360,-9.41753525444513,-3552,2.17780502759044,12,2.5609756097561,-42,-0.731707317073171,0,0,-57,0.247826086956522,36,0.156521739130435,128,-0.624390243902439,
12216374,6210.9375,4160,-2.55058246474555,-15296,-9.37829552421827,-3488,2.13856529736358,13,2.5,-41,-0.792682926829268,1,-0.0609756097560976,-56,0.243478260869565,37,0.160869565217391,125,-0.609756097560976,
12217014,6230.46875,4112,-2.52115266707541,-15328,-9.3979153893317,-3504,2.14837522992029,14,2.5609756097561,-42,-0.853658536585366,-1,0.0609756097560976,-56,0.243478260869565,39,0.169565217391304,126,-0.614634146341463,
12217654,6250,4176,-2.56039239730227,-15392,-9.43715511955855,-3600,2.20723482526058,19,2.80487804878049,-46,-1.15853658536585,-2,0.121951219512195,-56,0.243478260869565,39,0.169565217391304,126,-0.614634146341463,
12218294,6269.53125,4176,-2.56039239730227,-15328,-9.3979153893317,-3664,2.24647455548743,18,2.92682926829268,-48,-1.09756097560976,-4,0.24390243902439,-58,0.252173913043478,37,0.160869565217391,127,-0.619512195121951,
12218934,6289.0625,4208,-2.5800122624157,-15296,-9.37829552421827,-3632,2.226854690374,14,3.17073170731707,-52,-0.853658536585366,-9,0.548780487804878,-58,0.252173913043478,36,0.156521739130435,128,-0.624390243902439,
12219574,6308.59375,4160,-2.55058246474555,-15376,-9.42734518700184,-3552,2.17780502759044,15,3.41463414634146,-56,-0.914634146341463,-12,0.731707317073171,-55,0.239130434782609,37,0.160869565217391,127,-0.619512195121951,
12220214,6328.125,4144,-2.54077253218884,-15344,-9.40772532188841,-3600,2.20723482526058,14,3.41463414634146,-56,-0.853658536585366,-14,0.853658536585366,-56,0.243478260869565,35,0.152173913043478,126,-0.614634146341463,
12220854,6347.65625,4176,-2.56039239730227,-15376,-9.42734518700184,-3536,2.16799509503372,12,3.59756097560976,-59,-0.731707317073171,-15,0.914634146341463,-57,0.247826086956522,40,0.173913043478261,128,-0.624390243902439,
12221494,6367.1875,4144,-2.54077253218884,-15344,-9.40772532188841,-3520,2.15818516247701,14,3.65853658536585,-60,-0.853658536585366,-15,0.914634146341463,-58,0.252173913043478,40,0.173913043478261,126,-0.614634146341463,
12222134,6386.71875,4096,-2.5113427345187,-15408,-9.44696505211527,-3552,2.17780502759044,11,3.65853658536585,-60,-0.670731707317073,-14,0.853658536585366,-56,0.243478260869565,40,0.173913043478261,125,-0.609756097560976,
12222774,6406.25,4080,-2.50153280196199,-15344,-9.40772532188841,-3520,2.15818516247701,12,3.71951219512195,-61,-0.731707317073171,-14,0.853658536585366,-56,0.243478260869565,35,0.152173913043478,128,-0.624390243902439,
12223414,6425.78125,4112,-2.52115266707541,-15328,-9.3979153893317,-3488,2.13856529736358,9,3.78048780487805,-62,-0.548780487804878,-17,1.03658536585366,-58,0.252173913043478,38,0.165217391304348,127,-0.619512195121951,
12224054,6445.3125,4128,-2.53096259963213,-15360,-9.41753525444513,-3456,2.11894543225015,6,3.53658536585366,-58,-0.365853658536585,-21,1.28048780487805,-57,0.247826086956522,38,0.165217391304348,125,-0.609756097560976,
12224694,6464.84375,4096,-2.5113427345187,-15344,-9.40772532188841,-3408,2.08951563458001,10,3.41463414634146,-56,-0.609756097560976,-19,1.15853658536585,-57,0.247826086956522,35,0.152173913043478,128,-0.624390243902439,
12225334,6484.375,4048,-2.48191293684856,-15328,-9.3979153893317,-3376,2.06989576946658,12,3.29268292682927,-54,-0.731707317073171,-14,0.853658536585366,-57,0.247826086956522,36,0.156521739130435,127,-0.619512195121951,
12225974,6503.90625,4048,-2.48191293684856,-15296,-9.37829552421827,-3408,2.08951563458001,16,3.17073170731707,-52,-0.975609756097561,-11,0.670731707317073,-56,0.243478260869565,37,0.160869565217391,126,-0.614634146341463,
12226614,6523.4375,4016,-2.46229307173513,-15328,-9.3979153893317,-3472,2.12875536480687,16,3.04878048780488,-50,-0.975609756097561,-7,0.426829268292683,-57,0.247826086956522,38,0.165217391304348,126,-0.614634146341463,
12227254,6542.96875,4016,-2.46229307173513,-15376,-9.42734518700184,-3456,2.11894543225015,9,3.04878048780488,-50,-0.548780487804878,-4,0.24390243902439,-58,0.252173913043478,36,0.156521739130435,128,-0.624390243902439,
12227894,6562.5,4016,-2.46229307173513,-15344,-9.40772532188841,-3504,2.14837522992029,6,3.10975609756098,-51,-0.365853658536585,-8,0.487804878048781,-57,0.247826086956522,36,0.156521739130435,127,-0.619512195121951,
12228534,6582.03125,4064,-2.49172286940527,-15376,-9.42734518700184,-3520,2.15818516247701,9,3.23170731707317,-53,-0.548780487804878,-8,0.487804878048781,-56,0.243478260869565,35,0.152173913043478,127,-0.619512195121951,
12229174,6601.5625,4016,-2.46229307173513,-15376,-9.42734518700184,-3536,2.16799509503372,8,3.23170731707317,-53,-0.487804878048781,-7,0.426829268292683,-55,0.239130434782609,35,0.152173913043478,127,-0.619512195121951,
12229814,6621.09375,4032,-2.47210300429185,-15232,-9.33905579399141,-3552,2.17780502759044,2,3.10975609756098,-51,-0.121951219512195,-12,0.731707317073171,-59,0.256521739130435,40,0.173913043478261,126,-0.614634146341463,
12230454,6640.625,3984,-2.4426732066217,-15280,-9.36848559166156,-3520,2.15818516247701,-6,3.04878048780488,-50,0.365853658536585,-9,0.548780487804878,-59,0.256521739130435,37,0.160869565217391,127,-0.619512195121951,
12231094,6660.15625,3968,-2.43286327406499,-15392,-9.43715511955855,-3456,2.11894543225015,-8,3.04878048780488,-50,0.487804878048781,1,-0.0609756097560976,-57,0.247826086956522,34,0.147826086956522,128,-0.624390243902439,
12231734,6679.6875,4032,-2.47210300429185,-15376,-9.42734518700184,-3456,2.11894543225015,1,2.80487804878049,-46,-0.0609756097560976,5,-0.304878048780488,-56,0.243478260869565,37,0.160869565217391,127,-0.619512195121951,
12232374,6699.21875,4112,-2.52115266707541,-15360,-9.41753525444513,-3472,2.12875536480687,7,2.68292682926829,-44,-0.426829268292683,10,-0.609756097560976,-57,0.247826086956522,37,0.160869565217391,125,-0.609756097560976,
12233014,6718.75,4096,-2.5113427345187,-15344,-9.40772532188841,-3488,2.13856529736358,0,2.80487804878049,-46,0,5,-0.304878048780488,-58,0.252173913043478,40,0.173913043478261,126,-0.614634146341463,
12233654,6738.28125,4032,-2.47210300429185,-15376,-9.42734518700184,-3520,2.15818516247701,-7,2.86585365853659,-47,0.426829268292683,-4,0.24390243902439,-55,0.239130434782609,35,0.152173913043478,127,-0.619512195121951,
12234294,6757.8125,4064,-2.49172286940527,-15360,-9.41753525444513,-3520,2.15818516247701,-7,3.04878048780488,-50,0.426829268292683,-5,0.304878048780488,-58,0.252173913043478,38,0.165217391304348,128,-0.624390243902439,
12234934,6777.34375,4032,-2.47210300429185,-15312,-9.38810545677498,-3568,2.18761496014715,-7,3.29268292682927,-54,0.426829268292683,-2,0.121951219512195,-56,0.243478260869565,39,0.169565217391304,125,-0.609756097560976,
12235574,6796.875,4032,-2.47210300429185,-15312,-9.38810545677498,-3472,2.12875536480687,-10,2.98780487804878,-49,0.609756097560976,1,-0.0609756097560976,-58,0.252173913043478,42,0.182608695652174,125,-0.609756097560976,
12236214,6816.40625,4096,-2.5113427345187,-15296,-9.37829552421827,-3488,2.13856529736358,-14,2.68292682926829,-44,0.853658536585366,6,-0.365853658536585,-57,0.247826086956522,36,0.156521739130435,127,-0.619512195121951,
12236854,6835.9375,4160,-2.55058246474555,-15296,-9.37829552421827,-3456,2.11894543225015,-10,2.6219512195122,-43,0.609756097560976,6,-0.365853658536585,-57,0.247826086956522,36,0.156521739130435,127,-0.619512195121951,
12237494,6855.46875,4160,-2.55058246474555,-15312,-9.38810545677498,-3456,2.11894543225015,-11,2.37804878048781,-39,0.670731707317073,2,-0.121951219512195,-57,0.247826086956522,35,0.152173913043478,126,-0.614634146341463,
12238134,6875,4144,-2.54077253218884,-15344,-9.40772532188841,-3488,2.13856529736358,-7,2.31707317073171,-38,0.426829268292683,-4,0.24390243902439,-56,0.243478260869565,36,0.156521739130435,127,-0.619512195121951,
12238774,6894.53125,4144,-2.54077253218884,-15360,-9.41753525444513,-3504,2.14837522992029,-7,2.37804878048781,-39,0.426829268292683,0,0,-57,0.247826086956522,40,0.173913043478261,127,-0.619512195121951,
12239414,6914.0625,4080,-2.50153280196199,-15328,-9.3979153893317,-3520,2.15818516247701,-5,2.25609756097561,-37,0.304878048780488,0,0,-58,0.252173913043478,38,0.165217391304348,128,-0.624390243902439,
12240054,6933.59375,4160,-2.55058246474555,-15328,-9.3979153893317,-3520,2.15818516247701,-8,2.31707317073171,-38,0.487804878048781,2,-0.121951219512195,-58,0.252173913043478,40,0.173913043478261,127,-0.619512195121951,
12240694,6953.125,4128,-2.53096259963213,-15280,-9.36848559166156,-3520,2.15818516247701,-11,2.01219512195122,-33,0.670731707317073,0,0,-55,0.239130434782609,35,0.152173913043478,128,-0.624390243902439,
12241334,6972.65625,4128,-2.53096259963213,-15328,-9.3979153893317,-3600,2.20723482526058,-6,2.13414634146341,-35,0.365853658536585,0,0,-56,0.243478260869565,39,0.169565217391304,125,-0.609756097560976,
12241974,6992.1875,4128,-2.53096259963213,-15344,-9.40772532188841,-3456,2.11894543225015,1,2.13414634146341,-35,-0.0609756097560976,-3,0.182926829268293,-56,0.243478260869565,38,0.165217391304348,125,-0.609756097560976,
12242614,7011.71875,4064,-2.49172286940527,-15360,-9.41753525444513,-3568,2.18761496014715,-1,2.31707317073171,-38,0.0609756097560976,-7,0.426829268292683,-57,0.247826086956522,40,0.173913043478261,127,-0.619512195121951,
12243254,7031.25,4064,-2.49172286940527,-15376,-9.42734518700184,-3600,2.20723482526058,-11,2.01219512195122,-33,0.670731707317073,-15,0.914634146341463,-59,0.256521739130435,38,0.165217391304348,127,-0.619512195121951,
12243894,7050.78125,4064,-2.49172286940527,-15440,-9.46658491722869,-3600,2.20723482526058,-10,2.6219512195122,-43,0.609756097560976,-6,0.365853658536585,-56,0.243478260869565,37,0.160869565217391,125,-0.609756097560976,
12244534,7070.3125,4112,-2.52115266707541,-15456,-9.47639484978541,-3472,2.12875536480687,-8,2.98780487804878,-49,0.487804878048781,-12,0.731707317073171,-55,0.239130434782609,36,0.156521739130435,126,-0.614634146341463,
12245174,7089.84375,4016,-2.46229307173513,-15376,-9.42734518700184,-3568,2.18761496014715,-10,3.84146341463415,-63,0.609756097560976,-9,0.548780487804878,-58,0.252173913043478,36,0.156521739130435,128,-0.624390243902439,
12245814,7109.375,3920,-2.40343347639485,-15296,-9.37829552421827,-3584,2.19742489270386,-36,4.45121951219512,-73,2.19512195121951,-17,1.03658536585366,-58,0.252173913043478,38,0.165217391304348,127,-0.619512195121951,
12246454,7128.90625,4016,-2.46229307173513,-15120,-9.27038626609442,-3616,2.21704475781729,-64,5.36585365853659,-88,3.90243902439024,-28,1.70731707317073,-56,0.243478260869565,35,0.152173913043478,127,-0.619512195121951,
12247094,7148.4375,3984,-2.4426732066217,-15024,-9.21152667075414,-3472,2.12875536480687,-103,5.91463414634146,-97,6.28048780487805,-45,2.74390243902439,-55,0.239130434782609,35,0.152173913043478,126,-0.614634146341463,
12247734,7167.96875,4048,-2.48191293684856,-15216,-9.3292458614347,-3312,2.03065603923973,-127,5.73170731707317,-94,7.74390243902439,-53,3.23170731707317,-58,0.252173913043478,39,0.169565217391304,126,-0.614634146341463,
12248374,7187.5,4160,-2.55058246474555,-15408,-9.44696505211527,-3072,1.88350705088903,-120,5.18292682926829,-85,7.31707317073171,-54,3.29268292682927,-57,0.247826086956522,38,0.165217391304348,127,-0.619512195121951,
12249014,7207.03125,4224,-2.58982219497241,-15424,-9.45677498467198,-2992,1.83445738810546,-76,3.65853658536585,-60,4.63414634146342,-47,2.86585365853659,-57,0.247826086956522,35,0.152173913043478,128,-0.624390243902439,
12249654,7226.5625,4208,-2.5800122624157,-15232,-9.33905579399141,-2928,1.7952176578786,-29,1.64634146341463,-27,1.76829268292683,-42,2.5609756097561,-57,0.247826086956522,36,0.156521739130435,128,-0.624390243902439,
12250294,7246.09375,4240,-2.59963212752912,-15200,-9.31943592887799,-2912,1.78540772532189,7,-1.09756097560976,18,-0.426829268292683,-33,2.01219512195122,-58,0.252173913043478,38,0.165217391304348,126,-0.614634146341463,
12250934,7265.625,4304,-2.63887185775598,-15280,-9.36848559166156,-3024,1.85407725321888,58,-3.29268292682927,54,-3.53658536585366,-14,0.853658536585366,-57,0.247826086956522,36,0.156521739130435,127,-0.619512195121951,
12251574,7285.15625,4336,-2.6584917228694,-15392,-9.43715511955855,-3248,1.99141630901288,127,-4.81707317073171,79,-7.74390243902439,14,-0.853658536585366,-58,0.252173913043478,36,0.156521739130435,126,-0.614634146341463,
12252214,7304.6875,4352,-2.66830165542612,-15552,-9.53525444512569,-3616,2.21704475781729,178,-5.54878048780488,91,-10.8536585365854,45,-2.74390243902439,-57,0.247826086956522,38,0.165217391304348,125,-0.609756097560976,
12252854,7324.21875,4272,-2.61925199264255,-15776,-9.67259350091968,-3824,2.34457388105457,170,-6.03658536585366,99,-10.3658536585366,40,-2.4390243902439,-56,0.243478260869565,37,0.160869565217391,127,-0.619512195121951,
12253494,7343.75,4144,-2.54077253218884,-16288,-9.98651134273452,-4176,2.56039239730227,155,-4.20731707317073,69,-9.45121951219512,82,-5,-58,0.252173913043478,36,0.156521739130435,126,-0.614634146341463,
12254134,7363.28125,4432,-2.71735131820969,-17088,-10.4770079705702,-4432,2.71735131820969,138,-1.89024390243902,31,-8.41463414634146,75,-4.57317073170732,-58,0.252173913043478,39,0.169565217391304,126,-0.614634146341463,
12254774,7382.8125,4448,-2.7271612507664,-16992,-10.4181483752299,-4464,2.73697118332311,200,1.76829268292683,-29,-12.1951219512195,70,-4.26829268292683,-55,0.239130434782609,36,0.156521739130435,125,-0.609756097560976,
12255414,7402.34375,4112,-2.52115266707541,-16448,-10.0846106683017,-4560,2.7958307786634,164,4.32926829268293,-71,-10,55,-3.35365853658537,-56,0.243478260869565,36,0.156521739130435,124,-0.604878048780488,
12256054,7421.875,3936,-2.41324340895156,-16384,-10.0453709380748,-4496,2.75659104843654,75,7.25609756097561,-119,-4.57317073170732,20,-1.21951219512195,-57,0.247826086956522,41,0.178260869565217,124,-0.604878048780488,
12256694,7441.40625,4032,-2.47210300429185,-16400,-10.0551808706315,-4560,2.7958307786634,26,10.5487804878049,-173,-1.58536585365854,-5,0.304878048780488,-56,0.243478260869565,38,0.165217391304348,125,-0.609756097560976,
12257334,7460.9375,3936,-2.41324340895156,-16288,-9.98651134273452,-4720,2.89393010423053,26,13.780487804878,-226,-1.58536585365854,-8,0.487804878048781,-56,0.243478260869565,35,0.152173913043478,126,-0.614634146341463,
12257974,7480.46875,3888,-2.38381361128142,-15744,-9.65297363580625,-4656,2.85469037400368,24,17.4390243902439,-286,-1.46341463414634,-25,1.52439024390244,-54,0.234782608695652,36,0.156521739130435,126,-0.614634146341463,
12258614,7500,3504,-2.14837522992029,-15040,-9.22133660331085,-4544,2.78602084610668,-41,20.0609756097561,-329,2.5,-43,2.6219512195122,-57,0.247826086956522,40,0.173913043478261,126,-0.614634146341463,
12259254,7519.53125,3456,-2.11894543225015,-14768,-9.05456774984672,-4496,2.75659104843654,-138,21.3414634146341,-350,8.41463414634146,-85,5.18292682926829,-55,0.239130434782609,38,0.165217391304348,126,-0.614634146341463,
12259894,7539.0625,3376,-2.06989576946658,-14400,-8.8289393010423,-4304,2.63887185775598,-206,22.8658536585366,-375,12.5609756097561,-110,6.70731707317073,-55,0.239130434782609,34,0.147826086956522,128,-0.624390243902439,
12260534,7558.59375,3296,-2.02084610668302,-13888,-8.51502145922747,-4064,2.49172286940527,-274,22.6829268292683,-372,16.7073170731707,-129,7.86585365853659,-58,0.252173913043478,36,0.156521739130435,128,-0.624390243902439,
12261174,7578.125,3392,-2.0797057020233,-13248,-8.12262415695892,-3808,2.33476394849785,-318,21.3414634146341,-350,19.390243902439,-132,8.04878048780488,-58,0.252173913043478,37,0.160869565217391,128,-0.624390243902439,
12261814,7597.65625,3600,-2.20723482526058,-12704,-7.78908645003066,-3520,2.15818516247701,-305,18.4756097560976,-303,18.5975609756098,-118,7.19512195121951,-57,0.247826086956522,35,0.152173913043478,130,-0.634146341463415,
12262454,7617.1875,3696,-2.26609442060086,-12400,-7.6026977314531,-3152,1.93255671367259,-270,13.8414634146341,-227,16.4634146341463,-81,4.9390243902439,-58,0.252173913043478,34,0.147826086956522,131,-0.639024390243902,
12263094,7636.71875,3824,-2.34457388105457,-12352,-7.57326793378295,-3024,1.85407725321888,-211,8.96341463414634,-147,12.8658536585366,-26,1.58536585365854,-59,0.256521739130435,35,0.152173913043478,130,-0.634146341463415,
12263734,7656.25,4192,-2.57020232985898,-12368,-7.58307786633967,-2912,1.78540772532189,-111,4.63414634146342,-76,6.76829268292683,39,-2.37804878048781,-58,0.252173913043478,33,0.143478260869565,130,-0.634146341463415,
12264374,7675.78125,4384,-2.68792152053955,-12672,-7.76946658491723,-2720,1.66768853464132,28,0.609756097560976,-10,-1.70731707317073,109,-6.64634146341464,-60,0.260869565217391,34,0.147826086956522,130,-0.634146341463415,
12265014,7695.3125,4336,-2.6584917228694,-13552,-8.30901287553648,-2704,1.65787860208461,91,-4.08536585365854,67,-5.54878048780488,169,-10.3048780487805,-60,0.260869565217391,38,0.165217391304348,131,-0.639024390243902,
12265654,7714.84375,4752,-2.91354996934396,-15264,-9.35867565910484,-2896,1.77559779276517,132,-8.17073170731707,134,-8.04878048780488,262,-15.9756097560976,-59,0.256521739130435,38,0.165217391304348,131,-0.639024390243902,
12266294,7734.375,5392,-3.30594727161251,-17376,-10.653586756591,-3280,2.0110361741263,272,-8.96341463414634,147,-16.5853658536585,364,-22.1951219512195,-58,0.252173913043478,36,0.156521739130435,129,-0.629268292682927,
12266934,7753.90625,5360,-3.28632740649908,-18368,-11.2618025751073,-3408,2.08951563458001,451,-6.28048780487805,103,-27.5,425,-25.9146341463415,-55,0.239130434782609,33,0.143478260869565,130,-0.634146341463415,
12267574,7773.4375,4944,-3.03126916002452,-18352,-11.2519926425506,-3552,2.17780502759044,469,-2.19512195121951,36,-28.5975609756098,388,-23.6585365853659,-55,0.239130434782609,37,0.160869565217391,127,-0.619512195121951,
12268214,7792.96875,4480,-2.74678111587983,-17632,-10.8105456774985,-3584,2.19742489270386,308,1.46341463414634,-24,-18.780487804878,238,-14.5121951219512,-53,0.230434782608696,36,0.156521739130435,127,-0.619512195121951,
12268854,7812.5,4160,-2.55058246474555,-16896,-10.3592887798896,-3648,2.23666462293072,26,3.84146341463415,-63,-1.58536585365854,4,-0.24390243902439,-54,0.234782608695652,38,0.165217391304348,128,-0.624390243902439,
12269494,7832.03125,3872,-2.37400367872471,-16128,-9.88841201716738,-3664,2.24647455548743,-236,4.69512195121951,-77,14.390243902439,-214,13.0487804878049,-55,0.239130434782609,38,0.165217391304348,127,-0.619512195121951,
12270134,7851.5625,4528,-2.77621091354997,-16128,-9.88841201716738,-3584,2.19742489270386,-302,3.53658536585366,-58,18.4146341463415,-396,24.1463414634146,-54,0.234782608695652,35,0.152173913043478,128,-0.624390243902439,
12270774,7871.09375,4800,-2.9429797670141,-15792,-9.6824034334764,-3696,2.26609442060086,-114,3.59756097560976,-59,6.95121951219512,-434,26.4634146341463,-55,0.239130434782609,34,0.147826086956522,127,-0.619512195121951,
12271414,7890.625,4400,-2.69773145309626,-15344,-9.40772532188841,-4016,2.46229307173513,109,2.74390243902439,-45,-6.64634146341464,-395,24.0853658536585,-57,0.247826086956522,35,0.152173913043478,129,-0.629268292682927,
12272054,7910.15625,3856,-2.364193746168,-14912,-9.14285714285714,-4336,2.6584917228694,212,1.89024390243902,-31,-12.9268292682927,-322,19.6341463414634,-57,0.247826086956522,42,0.182608695652174,128,-0.624390243902439,
12272694,7929.6875,3488,-2.13856529736358,-14448,-8.85836909871245,-4560,2.7958307786634,227,1.34146341463415,-22,-13.8414634146341,-228,13.9024390243902,-57,0.247826086956522,35,0.152173913043478,128,-0.624390243902439,
12273334,7949.21875,3280,-2.0110361741263,-14112,-8.65236051502146,-4976,3.05088902513795,203,1.21951219512195,-20,-12.3780487804878,-125,7.6219512195122,-57,0.247826086956522,35,0.152173913043478,129,-0.629268292682927,
12273974,7968.75,3504,-2.14837522992029,-14064,-8.62293071735132,-5376,3.29613733905579,218,1.28048780487805,-21,-13.2926829268293,-17,1.03658536585366,-57,0.247826086956522,38,0.165217391304348,128,-0.624390243902439,
12274614,7988.28125,3840,-2.35438381361128,-14192,-8.70141017780503,-5792,3.55119558553035,307,1.64634146341463,-27,-18.719512195122,89,-5.42682926829268,-57,0.247826086956522,37,0.160869565217391,129,-0.629268292682927,
12275254,8007.8125,4048,-2.48191293684856,-14528,-8.90741876149601,-6336,3.88473329245861,440,2.25609756097561,-37,-26.8292682926829,180,-10.9756097560976,-57,0.247826086956522,42,0.182608695652174,126,-0.614634146341463,
12275894,8027.34375,4336,-2.6584917228694,-14896,-9.13304721030043,-7072,4.33599019006744,589,3.17073170731707,-52,-35.9146341463415,257,-15.6707317073171,-53,0.230434782608696,36,0.156521739130435,127,-0.619512195121951,
12276534,8046.875,4512,-2.76640098099326,-15504,-9.50582464745555,-7472,4.58123850398528,769,5.1219512195122,-84,-46.890243902439,309,-18.8414634146341,-54,0.234782608695652,37,0.160869565217391,126,-0.614634146341463,
12277174,8066.40625,4480,-2.74678111587983,-15936,-9.77069282648682,-7664,4.69895769466585,921,8.90243902439025,-146,-56.1585365853659,312,-19.0243902439024,-53,0.230434782608696,38,0.165217391304348,125,-0.609756097560976,
12277814,8085.9375,4192,-2.57020232985898,-16160,-9.90803188228081,-7616,4.66952789699571,993,13.4756097560976,-221,-60.5487804878049,315,-19.2073170731707,-52,0.226086956521739,35,0.152173913043478,127,-0.619512195121951,
12278454,8105.46875,4080,-2.50153280196199,-16352,-10.0257510729614,-7680,4.70876762722256,983,19.0243902439024,-312,-59.9390243902439,264,-16.0975609756098,-48,0.208695652173913,34,0.147826086956522,126,-0.614634146341463,
12279094,8125,3680,-2.25628448804414,-16640,-10.2023298589822,-7776,4.76762722256284,879,24.6341463414634,-404,-53.5975609756098,212,-12.9268292682927,-46,0.2,34,0.147826086956522,127,-0.619512195121951,
12279734,8144.53125,3376,-2.06989576946658,-16864,-10.3396689147762,-7856,4.81667688534641,731,30.5487804878049,-501,-44.5731707317073,138,-8.41463414634146,-47,0.204347826086957,38,0.165217391304348,125,-0.609756097560976,
12280374,8164.0625,3360,-2.06008583690987,-16640,-10.2023298589822,-7968,4.88534641324341,552,37.9268292682927,-622,-33.6585365853659,50,-3.04878048780488,-46,0.2,38,0.165217391304348,125,-0.609756097560976,
12281014,8183.59375,3104,-1.90312691600245,-16624,-10.1925199264255,-8176,5.01287553648069,364,44.8170731707317,-735,-22.1951219512195,-50,3.04878048780488,-45,0.195652173913043,38,0.165217391304348,126,-0.614634146341463,
12281654,8203.125,2992,-1.83445738810546,-16400,-10.0551808706315,-8016,4.91477621091355,98,50.9756097560976,-836,-5.97560975609756,-164,10,-45,0.195652173913043,31,0.134782608695652,127,-0.619512195121951,
12282294,8222.65625,3568,-2.18761496014715,-16512,-10.1238503985285,-8224,5.04230533415083,-68,55.7926829268293,-915,4.14634146341463,-266,16.219512195122,-44,0.191304347826087,33,0.143478260869565,128,-0.624390243902439,
12282934,8242.1875,4144,-2.54077253218884,-16736,-10.2611894543225,-8608,5.27774371551196,-106,61.2804878048781,-1005,6.46341463414634,-375,22.8658536585366,-46,0.2,33,0.143478260869565,131,-0.639024390243902,
12283574,8261.71875,4112,-2.52115266707541,-16432,-10.0748007357449,-8560,5.24831391784181,-66,65.609756097561,-1076,4.02439024390244,-465,28.3536585365854,-46,0.2,31,0.134782608695652,132,-0.64390243902439,
12284214,8281.25,4240,-2.59963212752912,-16080,-9.85898221949724,-8400,5.15021459227468,-29,67.9878048780488,-1115,1.76829268292683,-531,32.3780487804878,-46,0.2,28,0.121739130434783,135,-0.658536585365854,
12284854,8300.78125,4592,-2.81545064377682,-15488,-9.49601471489883,-8832,5.41508277130595,80,68.9634146341463,-1131,-4.87804878048781,-562,34.2682926829268,-47,0.204347826086957,29,0.126086956521739,137,-0.668292682926829,
12285494,8320.3125,4848,-2.97240956468424,-15296,-9.37829552421827,-9520,5.83690987124464,236,68.5365853658537,-1124,-14.390243902439,-554,33.780487804878,-48,0.208695652173913,29,0.126086956521739,136,-0.663414634146342,
12286134,8339.84375,4864,-2.98221949724096,-14880,-9.12323727774372,-10240,6.27835683629675,381,69.0853658536585,-1133,-23.2317073170732,-502,30.609756097561,-47,0.204347826086957,29,0.126086956521739,138,-0.673170731707317,
12286774,8359.375,4768,-2.92335990190067,-14336,-8.78969957081545,-11408,6.99448191293685,472,69.0853658536585,-1133,-28.7804878048781,-425,25.9146341463415,-50,0.217391304347826,27,0.117391304347826,138,-0.673170731707317,
12287414,8378.90625,4976,-3.05088902513795,-13712,-8.40711220110362,-12304,7.54383813611281,519,70.1829268292683,-1151,-31.6463414634146,-268,16.3414634146341,-48,0.208695652173913,25,0.108695652173913,143,-0.697560975609756,
12288054,8398.4375,5744,-3.52176578786021,-13184,-8.08338442673207,-12880,7.89699570815451,605,71.280487804878,-1169,-36.890243902439,-104,6.34146341463415,-47,0.204347826086957,24,0.104347826086957,142,-0.692682926829268,
12288694,8417.96875,6240,-3.82587369711833,-12880,-7.89699570815451,-13424,8.23053341508277,758,71.890243902439,-1179,-46.219512195122,74,-4.51219512195122,-47,0.204347826086957,22,0.0956521739130435,143,-0.697560975609756,
12289334,8437.5,6816,-4.17903126916002,-13104,-8.0343347639485,-13968,8.56407112201104,935,73.3536585365854,-1203,-57.0121951219512,225,-13.719512195122,-45,0.195652173913043,24,0.104347826086957,145,-0.707317073170732,
12289974,8457.03125,6864,-4.20846106683017,-13408,-8.22072348252606,-14064,8.62293071735132,1075,77.2560975609756,-1267,-65.5487804878049,329,-20.0609756097561,-43,0.18695652173913,19,0.0826086956521739,145,-0.707317073170732,
12290614,8476.5625,6832,-4.18884120171674,-14016,-8.59350091968118,-13824,8.47578172900061,1093,81.5243902439024,-1337,-66.6463414634146,384,-23.4146341463415,-39,0.169565217391304,16,0.0695652173913043,146,-0.712195121951219,
12291254,8496.09375,6800,-4.16922133660331,-14432,-8.84855916615573,-13216,8.10300429184549,1034,85.609756097561,-1404,-63.0487804878049,391,-23.8414634146341,-40,0.173913043478261,18,0.0782608695652174,147,-0.717073170731707,
12291894,8515.625,6864,-4.20846106683017,-14896,-9.13304721030043,-13056,8.00490496627836,1027,91.2804878048781,-1497,-62.6219512195122,359,-21.890243902439,-37,0.160869565217391,14,0.0608695652173913,149,-0.726829268292683,
12292534,8535.15625,6544,-4.01226241569589,-15104,-9.26057633353771,-12480,7.65174739423666,981,97.3780487804878,-1597,-59.8170731707317,275,-16.7682926829268,-36,0.156521739130435,14,0.0608695652173913,148,-0.721951219512195,
12293174,8554.6875,5632,-3.45309625996321,-15120,-9.27038626609442,-11328,6.94543225015328,780,99.6951219512195,-1635,-47.5609756097561,136,-8.29268292682927,-32,0.139130434782609,10,0.0434782608695652,150,-0.731707317073171,
12293814,8574.21875,4656,-2.85469037400368,-14448,-8.85836909871245,-10432,6.39607602697731,567,97.3780487804878,-1597,-34.5731707317073,43,-2.6219512195122,-30,0.130434782608696,8,0.0347826086956522,150,-0.731707317073171,
12294454,8593.75,4224,-2.58982219497241,-13920,-8.53464132434089,-10080,6.18025751072961,634,94.5121951219512,-1550,-38.6585365853659,-16,0.975609756097561,-28,0.121739130434783,3,0.0130434782608696,151,-0.736585365853659,
12295094,8613.28125,3808,-2.33476394849785,-13456,-8.2501532801962,-10400,6.37645616186389,815,92.9268292682927,-1524,-49.6951219512195,-75,4.57317073170732,-30,0.130434782608696,5,0.0217391304347826,150,-0.731707317073171,
12295734,8632.8125,3456,-2.11894543225015,-12880,-7.89699570815451,-10544,6.46474555487431,1002,91.9512195121951,-1508,-61.0975609756098,-143,8.71951219512195,-27,0.117391304347826,-2,-0.00869565217391304,151,-0.736585365853659,
12296374,8652.34375,2656,-1.62844880441447,-12144,-7.44573881054568,-10224,6.26854690374004,1128,90.8536585365854,-1490,-68.780487804878,-228,13.9024390243902,-22,0.0956521739130435,-6,-0.0260869565217391,152,-0.741463414634146,
12297014,8671.875,1568,-0.96137339055794,-11632,-7.13182096873084,-10016,6.14101778050276,1103,88.719512195122,-1455,-67.2560975609756,-352,21.4634146341463,-22,0.0956521739130435,-8,-0.0347826086956522,151,-0.736585365853659,
12297654,8691.40625,768,-0.470876762722256,-11088,-6.79828326180257,-10416,6.3862660944206,956,86.0365853658537,-1411,-58.2926829268293,-468,28.5365853658537,-20,0.0869565217391304,-10,-0.0434782608695652,152,-0.741463414634146,
12298294,8710.9375,432,-0.264868179031269,-10640,-6.52360515021459,-10720,6.57265481299816,905,84.1463414634146,-1380,-55.1829268292683,-528,32.1951219512195,-17,0.0739130434782609,-8,-0.0347826086956522,152,-0.741463414634146,
12298934,8730.46875,-976,0.598405885959534,-9536,-5.84671980380135,-10768,6.6020846106683,823,81.4634146341463,-1336,-50.1829268292683,-523,31.890243902439,-16,0.0695652173913043,-9,-0.0391304347826087,149,-0.726829268292683,
12299574,8750,-1536,0.941753525444513,-8624,-5.28755364806867,-11216,6.87676272225628,741,76.7682926829268,-1259,-45.1829268292683,-477,29.0853658536585,-14,0.0608695652173913,-16,-0.0695652173913043,151,-0.736585365853659,
12300214,8769.53125,-1472,0.902513795217658,-8096,-4.96382587369712,-11792,7.22992029429798,784,71.8292682926829,-1178,-47.8048780487805,-377,22.9878048780488,-14,0.0608695652173913,-13,-0.0565217391304348,151,-0.736585365853659,
12300854,8789.0625,-1296,0.794604537093807,-7696,-4.71857755977928,-12080,7.40649908031882,892,67.6219512195122,-1109,-54.390243902439,-287,17.5,-14,0.0608695652173913,-17,-0.0739130434782609,148,-0.721951219512195,
12301494,8808.59375,-1312,0.804414469650521,-7408,-4.54199877375843,-12160,7.45554874310239,1027,63.8414634146342,-1047,-62.6219512195122,-214,13.0487804878049,-9,0.0391304347826087,-20,-0.0869565217391304,150,-0.731707317073171,
12302134,8828.125,-1936,1.18700183936235,-7152,-4.38503985285101,-12240,7.50459840588596,1120,61.0975609756098,-1002,-68.2926829268293,-168,10.2439024390244,-7,0.0304347826086957,-16,-0.0695652173913043,146,-0.712195121951219,
12302774,8847.65625,-2528,1.54996934396076,-6672,-4.0907418761496,-12432,7.62231759656652,1068,58.5365853658537,-960,-65.1219512195122,-159,9.69512195121951,-6,0.0260869565217391,-19,-0.0826086956521739,147,-0.717073170731707,
12303414,8867.1875,-3040,1.8638871857756,-6448,-3.95340282035561,-12720,7.79889638258737,889,57.0731707317073,-936,-54.2073170731707,-154,9.39024390243902,-3,0.0130434782608696,-21,-0.091304347826087,144,-0.702439024390244,
12304054,8886.71875,-3296,2.02084610668302,-6304,-3.86511342734519,-12800,7.84794604537094,639,55.8536585365854,-916,-38.9634146341463,-167,10.1829268292683,-6,0.0260869565217391,-24,-0.104347826086957,145,-0.707317073170732,
12304694,8906.25,-4000,2.45248313917842,-5808,-3.56100551808706,-12624,7.74003678724709,315,53.6585365853659,-880,-19.2073170731707,-177,10.7926829268293,-2,0.00869565217391304,-27,-0.117391304347826,144,-0.702439024390244,
12305334,8925.78125,-4192,2.57020232985898,-5280,-3.23727774371551,-12848,7.87737584304108,12,49.7560975609756,-816,-0.731707317073171,-171,10.4268292682927,1,-0.00434782608695652,-26,-0.11304347826087,144,-0.702439024390244,
12305974,8945.3125,-3440,2.10913549969344,-4992,-3.06069895769467,-13008,7.97547516860822,-109,46.7073170731707,-766,6.64634146341464,-133,8.10975609756098,0,0,-29,-0.126086956521739,145,-0.707317073170732,
12306614,8964.84375,-2784,1.70692826486818,-4768,-2.92335990190067,-12960,7.94604537093807,-71,44.4512195121951,-729,4.32926829268293,-108,6.58536585365854,-1,0.00434782608695652,-25,-0.108695652173913,144,-0.702439024390244,
12307254,8984.375,-2464,1.51072961373391,-4400,-2.69773145309626,-13040,7.99509503372164,14,42.1341463414634,-691,-0.853658536585366,-99,6.03658536585366,-3,0.0130434782608696,-28,-0.121739130434783,144,-0.702439024390244,
12307894,9003.90625,-2240,1.37339055793991,-4272,-2.61925199264255,-13280,8.14224402207235,164,40.6707317073171,-667,-10,-104,6.34146341463415,-4,0.0173913043478261,-22,-0.0956521739130435,142,-0.692682926829268,
12308534,9023.4375,-2624,1.60882893930104,-3984,-2.4426732066217,-13280,8.14224402207235,237,39.2682926829268,-644,-14.4512195121951,-125,7.6219512195122,-1,0.00434782608695652,-32,-0.139130434782609,144,-0.702439024390244,
12309174,9042.96875,-3280,2.0110361741263,-3712,-2.27590435315757,-13184,8.08338442673207,174,36.890243902439,-605,-10.609756097561,-139,8.47560975609756,-3,0.0130434782608696,-30,-0.130434782608696,144,-0.702439024390244,
12309814,9062.5,-3552,2.17780502759044,-3600,-2.20723482526058,-13040,7.99509503372164,63,34.5731707317073,-567,-3.84146341463415,-146,8.90243902439025,1,-0.00434782608695652,-30,-0.130434782608696,142,-0.692682926829268,
12310454,9082.03125,-3568,2.18761496014715,-3344,-2.05027590435316,-13152,8.06376456161864,-6,31.7073170731707,-520,0.365853658536585,-143,8.71951219512195,0,0,-33,-0.143478260869565,144,-0.702439024390244,
12311094,9101.5625,-3232,1.98160637645616,-3328,-2.04046597179644,-13776,8.44635193133047,41,29.8170731707317,-489,-2.5,-136,8.29268292682927,1,-0.00434782608695652,-33,-0.143478260869565,145,-0.707317073170732,
12311734,9121.09375,-3264,2.00122624156959,-3216,-1.97179644389945,-13952,8.55426118945432,104,28.1707317073171,-462,-6.34146341463415,-119,7.25609756097561,2,-0.00869565217391304,-31,-0.134782608695652,143,-0.697560975609756,
12312374,9140.625,-3488,2.13856529736358,-2880,-1.76578786020846,-13872,8.50521152667075,128,25.0609756097561,-411,-7.80487804878049,-97,5.91463414634146,-1,0.00434782608695652,-29,-0.126086956521739,143,-0.697560975609756,
12313014,9160.15625,-3504,2.14837522992029,-2656,-1.62844880441447,-13968,8.56407112201104,131,21.5853658536585,-354,-7.98780487804878,-67,4.08536585365854,0,0,-33,-0.143478260869565,143,-0.697560975609756,
12313654,9179.6875,-3648,2.23666462293072,-2496,-1.53034947884733,-14048,8.6131207847946,159,19.2682926829268,-316,-9.69512195121951,-16,0.975609756097561,1,-0.00434782608695652,-36,-0.156521739130435,144,-0.702439024390244,
12314294,9199.21875,-3952,2.42305334150828,-2320,-1.42244022072348,-14176,8.69160024524831,183,16.5853658536585,-272,-11.1585365853659,34,-2.07317073170732,2,-0.00869565217391304,-33,-0.143478260869565,142,-0.692682926829268,
12314934,9218.75,-3920,2.40343347639485,-2448,-1.50091968117719,-14192,8.70141017780503,174,14.8780487804878,-244,-10.609756097561,63,-3.84146341463415,0,0,-33,-0.143478260869565,141,-0.68780487804878,
12315574,9238.28125,-3808,2.33476394849785,-2416,-1.48129981606376,-14320,8.77988963825874,164,13.6585365853659,-224,-10,76,-4.63414634146342,2,-0.00869565217391304,-34,-0.147826086956522,142,-0.692682926829268,
12316214,9257.8125,-3520,2.15818516247701,-2432,-1.49110974862048,-14464,8.86817903126916,160,12.6829268292683,-208,-9.75609756097561,58,-3.53658536585366,3,-0.0130434782608696,-35,-0.152173913043478,142,-0.692682926829268,
12316854,9277.34375,-3328,2.04046597179644,-2464,-1.51072961373391,-14688,9.00551808706315,229,12.6829268292683,-208,-13.9634146341463,19,-1.15853658536585,3,-0.0130434782608696,-34,-0.147826086956522,141,-0.68780487804878,
12317494,9296.875,-3344,2.05027590435316,-2448,-1.50091968117719,-14576,8.93684855916615,265,12.9268292682927,-212,-16.1585365853659,-27,1.64634146341463,5,-0.0217391304347826,-39,-0.169565217391304,143,-0.697560975609756,
12318134,9316.40625,-3696,2.26609442060086,-2128,-1.30472103004292,-14368,8.80931943592888,229,11.7682926829268,-193,-13.9634146341463,-57,3.47560975609756,1,-0.00434782608695652,-34,-0.147826086956522,139,-0.678048780487805,
12318774,9335.9375,-3872,2.37400367872471,-2096,-1.28510116492949,-14608,8.95646842427958,158,10.5487804878049,-173,-9.63414634146342,-76,4.63414634146342,2,-0.00869565217391304,-34,-0.147826086956522,139,-0.678048780487805,
12319414,9355.46875,-4016,2.46229307173513,-1984,-1.2164316370325,-14576,8.93684855916615,70,9.51219512195122,-156,-4.26829268292683,-71,4.32926829268293,3,-0.0130434782608696,-37,-0.160869565217391,139,-0.678048780487805,
12320054,9375,-3968,2.43286327406499,-1920,-1.17719190680564,-14688,9.00551808706315,12,7.25609756097561,-119,-0.731707317073171,-51,3.10975609756098,4,-0.0173913043478261,-38,-0.165217391304348,138,-0.673170731707317,
12320694,9394.53125,-3872,2.37400367872471,-1856,-1.13795217657879,-14912,9.14285714285714,16,4.63414634146342,-76,-0.975609756097561,-18,1.09756097560976,6,-0.0260869565217391,-38,-0.165217391304348,139,-0.678048780487805,
12321334,9414.0625,-3680,2.25628448804414,-1952,-1.19681177191907,-15024,9.21152667075414,98,2.80487804878049,-46,-5.97560975609756,29,-1.76829268292683,3,-0.0130434782608696,-33,-0.143478260869565,137,-0.668292682926829,
12321974,9433.59375,-3568,2.18761496014715,-1840,-1.12814224402207,-14976,9.182096873084,213,1.34146341463415,-22,-12.9878048780488,77,-4.69512195121951,5,-0.0217391304347826,-36,-0.156521739130435,138,-0.673170731707317,
12322614,9453.125,-3792,2.32495401594114,-1808,-1.10852237890864,-15280,9.36848559166156,274,0.24390243902439,-4,-16.7073170731707,103,-6.28048780487805,5,-0.0217391304347826,-37,-0.160869565217391,138,-0.673170731707317,
12323254,9472.65625,-4000,2.45248313917842,-1840,-1.12814224402207,-15504,9.50582464745555,234,-0.487804878048781,8,-14.2682926829268,97,-5.91463414634146,5,-0.0217391304347826,-39,-0.169565217391304,138,-0.673170731707317,
12323894,9492.1875,-3968,2.43286327406499,-1888,-1.15757204169221,-15792,9.6824034334764,179,-0.365853658536585,6,-10.9146341463415,81,-4.9390243902439,8,-0.0347826086956522,-40,-0.173913043478261,139,-0.678048780487805,
12324534,9511.71875,-4048,2.48191293684856,-1920,-1.17719190680564,-15904,9.75107296137339,142,0,0,-8.65853658536586,57,-3.47560975609756,6,-0.0260869565217391,-36,-0.156521739130435,138,-0.673170731707317,
12325174,9531.25,-3936,2.41324340895156,-1920,-1.17719190680564,-16064,9.84917228694053,133,1.09756097560976,-18,-8.10975609756098,35,-2.13414634146341,7,-0.0304347826086957,-39,-0.169565217391304,138,-0.673170731707317,
12325814,9550.78125,-4192,2.57020232985898,-2016,-1.23605150214592,-16064,9.84917228694053,117,1.89024390243902,-31,-7.13414634146342,36,-2.19512195121951,9,-0.0391304347826087,-39,-0.169565217391304,138,-0.673170731707317,
12326454,9570.3125,-4208,2.5800122624157,-1936,-1.18700183936235,-15968,9.79031269160024,63,1.82926829268293,-30,-3.84146341463415,38,-2.31707317073171,7,-0.0304347826086957,-33,-0.143478260869565,135,-0.658536585365854,
12327094,9589.84375,-4256,2.60944206008584,-1952,-1.19681177191907,-15968,9.79031269160024,38,1.82926829268293,-30,-2.31707317073171,45,-2.74390243902439,9,-0.0391304347826087,-36,-0.156521739130435,137,-0.668292682926829,
12327734,9609.375,-4320,2.64868179031269,-1856,-1.13795217657879,-15984,9.80012262415696,-6,1.82926829268293,-30,0.365853658536585,50,-3.04878048780488,7,-0.0304347826086957,-35,-0.152173913043478,136,-0.663414634146342,
12328374,9628.90625,-4096,2.5113427345187,-1760,-1.0790925812385,-15888,9.74126302881668,-46,1.58536585365854,-26,2.80487804878049,49,-2.98780487804878,6,-0.0260869565217391,-35,-0.152173913043478,136,-0.663414634146342,
12329014,9648.4375,-4032,2.47210300429185,-1792,-1.09871244635193,-15872,9.73145309625996,-34,1.21951219512195,-20,2.07317073170732,55,-3.35365853658537,4,-0.0173913043478261,-33,-0.143478260869565,136,-0.663414634146342,
12329654,9667.96875,-3904,2.39362354383814,-1792,-1.09871244635193,-15952,9.78050275904353,-6,1.46341463414634,-24,0.365853658536585,61,-3.71951219512195,6,-0.0260869565217391,-38,-0.165217391304348,138,-0.673170731707317,
12330294,9687.5,-3904,2.39362354383814,-1792,-1.09871244635193,-15632,9.58430410790926,5,1.21951219512195,-20,-0.304878048780488,63,-3.84146341463415,5,-0.0217391304347826,-36,-0.156521739130435,136,-0.663414634146342,
12330934,9707.03125,-3920,2.40343347639485,-1616,-0.990803188228081,-15776,9.67259350091968,23,0.609756097560976,-10,-1.40243902439024,57,-3.47560975609756,8,-0.0347826086956522,-36,-0.156521739130435,138,-0.673170731707317,
12331574,9726.5625,-4032,2.47210300429185,-1712,-1.04966278356836,-15920,9.7608828939301,16,1.03658536585366,-17,-0.975609756097561,58,-3.53658536585366,8,-0.0347826086956522,-40,-0.173913043478261,137,-0.668292682926829,
12332214,9746.09375,-4016,2.46229307173513,-1792,-1.09871244635193,-15904,9.75107296137339,-7,1.21951219512195,-20,0.426829268292683,55,-3.35365853658537,6,-0.0260869565217391,-40,-0.173913043478261,137,-0.668292682926829,
12332854,9765.625,-3904,2.39362354383814,-1760,-1.0790925812385,-15888,9.74126302881668,-21,1.09756097560976,-18,1.28048780487805,56,-3.41463414634146,6,-0.0260869565217391,-35,-0.152173913043478,137,-0.668292682926829,
12333494,9785.15625,-3920,2.40343347639485,-1632,-1.00061312078479,-15936,9.77069282648682,-43,1.34146341463415,-22,2.6219512195122,57,-3.47560975609756,6,-0.0260869565217391,-37,-0.160869565217391,137,-0.668292682926829,
12334134,9804.6875,-3744,2.295524218271,-1712,-1.04966278356836,-16000,9.80993255671367,-30,1.40243902439024,-23,1.82926829268293,61,-3.71951219512195,5,-0.0217391304347826,-33,-0.143478260869565,135,-0.658536585365854,
12334774,9824.21875,-3616,2.21704475781729,-1824,-1.11833231146536,-16080,9.85898221949724,2,1.40243902439024,-23,-0.121951219512195,58,-3.53658536585366,8,-0.0347826086956522,-34,-0.147826086956522,135,-0.658536585365854,
12335414,9843.75,-3680,2.25628448804414,-1872,-1.1477621091355,-16128,9.88841201716738,24,1.76829268292683,-29,-1.46341463414634,57,-3.47560975609756,8,-0.0347826086956522,-37,-0.160869565217391,136,-0.663414634146342,
12336054,9863.28125,-3712,2.27590435315757,-1728,-1.05947271612508,-16016,9.81974248927039,12,1.52439024390244,-25,-0.731707317073171,47,-2.86585365853659,6,-0.0260869565217391,-37,-0.160869565217391,137,-0.668292682926829,
12336694,9882.8125,-3632,2.226854690374,-1920,-1.17719190680564,-15984,9.80012262415696,13,1.52439024390244,-25,-0.792682926829268,38,-2.31707317073171,5,-0.0217391304347826,-39,-0.169565217391304,137,-0.668292682926829,
12337334,9902.34375,-3744,2.295524218271,-1856,-1.13795217657879,-15984,9.80012262415696,13,2.19512195121951,-36,-0.792682926829268,23,-1.40243902439024,6,-0.0260869565217391,-41,-0.178260869565217,138,-0.673170731707317,
12337974,9921.875,-3696,2.26609442060086,-1904,-1.16738197424893,-15776,9.67259350091968,-17,2.01219512195122,-33,1.03658536585366,18,-1.09756097560976,6,-0.0260869565217391,-40,-0.173913043478261,137,-0.668292682926829,
12338614,9941.40625,-3680,2.25628448804414,-1856,-1.13795217657879,-15792,9.6824034334764,-30,2.07317073170732,-34,1.82926829268293,4,-0.24390243902439,8,-0.0347826086956522,-41,-0.178260869565217,137,-0.668292682926829,
12339254,9960.9375,-3664,2.24647455548743,-1856,-1.13795217657879,-16000,9.80993255671367,-28,2.68292682926829,-44,1.70731707317073,-5,0.304878048780488,8,-0.0347826086956522,-35,-0.152173913043478,137,-0.668292682926829,
12339894,9980.46875,-3680,2.25628448804414,-1856,-1.13795217657879,-16048,9.83936235438381,-26,3.17073170731707,-52,1.58536585365854,-9,0.548780487804878,6,-0.0260869565217391,-35,-0.152173913043478,137,-0.668292682926829,
12340534,10000,-3712,2.27590435315757,-1760,-1.0790925812385,-15984,9.80012262415696,-7,3.47560975609756,-57,0.426829268292683,-16,0.975609756097561,5,-0.0217391304347826,-30,-0.130434782608696,136,-0.663414634146342,
12341174,10019.53125,-3888,2.38381361128142,-1664,-1.02023298589822,-15888,9.74126302881668,17,3.59756097560976,-59,-1.03658536585366,-20,1.21951219512195,8,-0.0347826086956522,-40,-0.173913043478261,138,-0.673170731707317,
12341814,10039.0625,-3968,2.43286327406499,-1696,-1.03985285101165,-15984,9.80012262415696,17,3.10975609756098,-51,-1.03658536585366,-23,1.40243902439024,7,-0.0304347826086957,-39,-0.169565217391304,136,-0.663414634146342,
12342454,10058.59375,-4080,2.50153280196199,-1632,-1.00061312078479,-15984,9.80012262415696,-2,3.23170731707317,-53,0.121951219512195,-17,1.03658536585366,8,-0.0347826086956522,-38,-0.165217391304348,136,-0.663414634146342,
12343094,10078.125,-4000,2.45248313917842,-1632,-1.00061312078479,-15968,9.79031269160024,-19,2.6219512195122,-43,1.15853658536585,-11,0.670731707317073,8,-0.0347826086956522,-41,-0.178260869565217,138,-0.673170731707317,
12343734,10097.65625,-3920,2.40343347639485,-1680,-1.03004291845494,-16080,9.85898221949724,-1,2.25609756097561,-37,0.0609756097560976,-3,0.182926829268293,7,-0.0304347826086957,-36,-0.156521739130435,137,-0.668292682926829,
12344374,10117.1875,-3936,2.41324340895156,-1792,-1.09871244635193,-16208,9.93746167995095,34,2.6219512195122,-43,-2.07317073170732,5,-0.304878048780488,8,-0.0347826086956522,-37,-0.160869565217391,138,-0.673170731707317,
12345014,10136.71875,-4016,2.46229307173513,-1776,-1.08890251379522,-16096,9.86879215205395,54,3.10975609756098,-51,-3.29268292682927,7,-0.426829268292683,4,-0.0173913043478261,-35,-0.152173913043478,136,-0.663414634146342,
12345654,10156.25,-4080,2.50153280196199,-1792,-1.09871244635193,-15968,9.79031269160024,30,3.71951219512195,-61,-1.82926829268293,3,-0.182926829268293,7,-0.0304347826086957,-41,-0.178260869565217,138,-0.673170731707317,
12346294,10175.78125,-4112,2.52115266707541,-1840,-1.12814224402207,-15936,9.77069282648682,-38,4.32926829268293,-71,2.31707317073171,-10,0.609756097560976,8,-0.0347826086956522,-37,-0.160869565217391,137,-0.668292682926829,
12346934,10195.3125,-3840,2.35438381361128,-1840,-1.12814224402207,-15888,9.74126302881668,-68,4.57317073170732,-75,4.14634146341463,-20,1.21951219512195,7,-0.0304347826086957,-36,-0.156521739130435,136,-0.663414634146342,
12347574,10214.84375,-3872,2.37400367872471,-1872,-1.1477621091355,-15824,9.70202329858982,-48,4.51219512195122,-74,2.92682926829268,-28,1.70731707317073,7,-0.0304347826086957,-40,-0.173913043478261,137,-0.668292682926829,
12348214,10234.375,-4048,2.48191293684856,-1808,-1.10852237890864,-15664,9.60392397302268,-56,4.20731707317073,-69,3.41463414634146,-39,2.37804878048781,5,-0.0217391304347826,-36,-0.156521739130435,137,-0.668292682926829,
12348854,10253.90625,-4000,2.45248313917842,-1776,-1.08890251379522,-15664,9.60392397302268,-90,3.53658536585366,-58,5.48780487804878,-35,2.13414634146341,7,-0.0304347826086957,-36,-0.156521739130435,139,-0.678048780487805,
12349494,10273.4375,-3936,2.41324340895156,-1840,-1.12814224402207,-15648,9.59411404046597,-85,3.17073170731707,-52,5.18292682926829,-25,1.52439024390244,8,-0.0347826086956522,-37,-0.160869565217391,136,-0.663414634146342,
12350134,10292.96875,-4144,2.54077253218884,-1872,-1.1477621091355,-15616,9.57449417535254,-121,3.10975609756098,-51,7.37804878048781,-30,1.82926829268293,8,-0.0347826086956522,-42,-0.182608695652174,139,-0.678048780487805,
12350774,10312.5,-4240,2.59963212752912,-1728,-1.05947271612508,-15584,9.55487431023912,-255,2.25609756097561,-37,15.5487804878049,-35,2.13414634146341,7,-0.0304347826086957,-38,-0.165217391304348,138,-0.673170731707317,
12351414,10332.03125,-3680,2.25628448804414,-1808,-1.10852237890864,-15648,9.59411404046597,-344,2.01219512195122,-33,20.9756097560976,-41,2.5,7,-0.0304347826086957,-37,-0.160869565217391,138,-0.673170731707317,
12352054,10351.5625,-3232,1.98160637645616,-1856,-1.13795217657879,-15648,9.59411404046597,-281,2.25609756097561,-37,17.1341463414634,-40,2.4390243902439,5,-0.0217391304347826,-36,-0.156521739130435,139,-0.678048780487805,
12352694,10371.09375,-2928,1.7952176578786,-1808,-1.10852237890864,-15808,9.69221336603311,-149,2.5,-41,9.08536585365854,-33,2.01219512195122,4,-0.0173913043478261,-37,-0.160869565217391,139,-0.678048780487805,
12353334,10390.625,-3200,1.96198651134273,-1776,-1.08890251379522,-15760,9.66278356836297,-23,1.70731707317073,-28,1.40243902439024,-29,1.76829268292683,3,-0.0130434782608696,-39,-0.169565217391304,140,-0.682926829268293,
12353974,10410.15625,-3456,2.11894543225015,-1792,-1.09871244635193,-15920,9.7608828939301,40,0.975609756097561,-16,-2.4390243902439,-29,1.76829268292683,3,-0.0130434782608696,-34,-0.147826086956522,139,-0.678048780487805,
12354614,10429.6875,-3680,2.25628448804414,-1904,-1.16738197424893,-15952,9.78050275904353,71,1.03658536585366,-17,-4.32926829268293,-19,1.15853658536585,4,-0.0173913043478261,-40,-0.173913043478261,139,-0.678048780487805,
12355254,10449.21875,-3968,2.43286327406499,-1840,-1.12814224402207,-16048,9.83936235438381,63,1.28048780487805,-21,-3.84146341463415,-8,0.487804878048781,5,-0.0217391304347826,-36,-0.156521739130435,141,-0.68780487804878,
12355894,10468.75,-4192,2.57020232985898,-1936,-1.18700183936235,-15968,9.79031269160024,-8,1.52439024390244,-25,0.487804878048781,4,-0.24390243902439,7,-0.0304347826086957,-40,-0.173913043478261,141,-0.68780487804878,
12356534,10488.28125,-4016,2.46229307173513,-1920,-1.17719190680564,-16032,9.8295524218271,-110,1.58536585365854,-26,6.70731707317073,5,-0.304878048780488,6,-0.0260869565217391,-35,-0.152173913043478,139,-0.678048780487805,
12357174,10507.8125,-3600,2.20723482526058,-2048,-1.25567136725935,-16016,9.81974248927039,-140,1.52439024390244,-25,8.53658536585366,7,-0.426829268292683,4,-0.0173913043478261,-37,-0.160869565217391,141,-0.68780487804878,
12357814,10527.34375,-3440,2.10913549969344,-1984,-1.2164316370325,-16144,9.89822194972409,-126,1.76829268292683,-29,7.68292682926829,5,-0.304878048780488,4,-0.0173913043478261,-37,-0.160869565217391,140,-0.682926829268293,
12358454,10546.875,-3312,2.03065603923973,-2064,-1.26548129981606,-16208,9.93746167995095,-86,2.13414634146341,-35,5.24390243902439,4,-0.24390243902439,6,-0.0260869565217391,-40,-0.173913043478261,142,-0.692682926829268,
