Sample, Time, ACCX, ACCY, ACCZ, MAGX, MAGY, MAGZ, GYRX, GYRY, GYRZ
0,64584.109000,157.124,274.213,-328.154,-267.943,-96.840,-367.796,-2968.500,-218.240,1550.780
1,64584.141000,131.671,306.593,-345.946,-301.872,-86.896,-334.721,-2682.500,-771.240,1709.780
2,64584.166000,90.554,294.451,-320.247,-317.778,-87.736,-319.672,-2417.500,-830.240,1895.780
3,64584.182000,72.933,280.285,-308.386,-344.841,-72.045,-290.662,-2226.500,-713.240,1945.780
4,64584.203000,43.564,291.415,-349.900,-363.659,-68.017,-279.505,-1909.500,-785.240,1945.780
5,64584.218000,-4.405,286.356,-364.726,-374.892,-56.331,-258.646,-1662.500,-946.240,1913.780
6,64584.247000,-58.249,259.036,-353.853,-383.917,-49.488,-249.634,-1179.500,-801.240,1760.780
7,64584.264000,-93.491,232.727,-357.807,-395.030,-35.859,-236.656,-761.500,-487.240,1441.780
8,64584.287000,-123.839,225.644,-383.506,-398.036,-28.093,-236.612,-292.500,-308.240,967.780
9,64584.305000,-151.250,216.538,-384.494,-396.045,-28.109,-238.616,193.500,-135.240,407.780
10,64584.321000,-158.103,208.443,-368.680,-390.026,-29.122,-246.597,618.500,107.760,-192.220
11,64584.342000,-139.503,204.395,-351.876,-385.021,-30.128,-252.591,961.500,278.760,-797.220
12,64584.364000,-107.197,215.526,-343.969,-374.896,-42.780,-265.553,1241.500,317.760,-1355.220
13,64584.387000,-69.996,232.727,-335.073,-362.840,-52.549,-278.553,1370.500,302.760,-1832.220
14,64584.419000,-34.753,249.929,-334.085,-341.785,-70.129,-298.594,1598.500,341.760,-2009.220
15,64584.448000,8.321,261.059,-333.097,-315.716,-91.619,-323.641,1820.500,419.760,-2271.220
16,64584.457000,59.228,269.154,-335.073,-303.765,-97.521,-332.706,2037.500,354.760,-2414.220
17,64584.470000,98.386,272.190,-341.004,-270.821,-118.104,-359.845,2279.500,188.760,-2433.220
18,64584.496000,132.650,262.071,-341.992,-247.993,-128.938,-373.034,2510.500,-52.240,-2350.220
19,64584.511000,155.166,244.870,-330.131,-198.572,-143.873,-394.565,2692.500,-238.240,-2204.220
20,64584.533000,165.935,227.668,-316.293,-171.916,-156.683,-401.912,2813.500,-340.240,-2036.220
21,64584.546000,176.704,209.455,-296.525,-122.607,-168.721,-418.522,2864.500,-458.240,-1881.220
22,64584.568000,179.641,198.324,-281.699,-97.061,-176.689,-420.933,2901.500,-544.240,-1817.220
23,64584.591000,165.935,182.134,-259.954,-41.967,-192.657,-430.750,2962.500,-637.240,-1680.220
24,64584.613000,158.103,154.814,-244.139,16.772,-205.772,-426.851,2958.500,-659.240,-1575.220
25,64584.635000,148.314,132.553,-232.278,51.045,-208.986,-427.454,2967.500,-722.240,-1537.220
26,64584.658000,114.050,95.115,-192.741,106.691,-214.340,-418.588,2946.500,-688.240,-1526.220
27,64584.678000,105.239,81.960,-174.950,128.150,-220.347,-412.069,2859.500,-546.240,-1536.220
28,64584.706000,97.407,68.806,-160.124,181.638,-218.919,-395.297,2788.500,-422.240,-1515.220
29,64584.706000,117.966,38.451,-138.378,212.767,-216.310,-386.991,2673.500,-414.240,-1485.220
30,64584.735000,125.797,21.249,-133.436,263.207,-215.830,-363.272,2538.500,-745.240,-1494.220
31,64584.752000,98.386,3.036,-118.610,308.669,-215.310,-334.544,2476.500,-929.240,-1500.220
32,64584.774000,78.807,-17.202,-103.784,329.893,-218.426,-316.211,2359.500,-1072.240,-1525.220
33,64584.798000,91.533,-45.534,-84.015,368.495,-211.069,-290.322,2189.500,-859.240,-1524.220
34,64584.816000,110.134,-65.771,-79.073,385.768,-204.473,-274.884,1998.500,-682.240,-1499.220
35,64584.841000,103.281,-67.794,-58.317,417.415,-191.252,-245.926,1904.500,-617.240,-1449.220
36,64584.863000,97.407,-82.972,-36.571,430.818,-183.650,-233.374,1834.500,-326.240,-1334.220
37,64584.878000,111.113,-104.221,-17.792,458.524,-169.428,-203.363,1750.500,167.760,-1150.220
38,64584.901000,137.545,-131.542,3.954,477.526,-147.376,-183.051,1618.500,545.760,-926.220
39,64584.923000,164.956,-156.838,24.710,476.329,-138.668,-175.165,1405.500,564.760,-709.220
40,64584.946000,172.788,-180.111,39.537,487.671,-131.054,-156.670,1263.500,482.760,-603.220
41,64584.965000,172.788,-196.300,56.340,491.384,-122.390,-149.854,926.500,319.760,-394.220
42,64584.986000,172.788,-209.455,70.178,498.121,-121.491,-144.068,555.500,240.760,-193.220
43,64585.3000,175.725,-213.502,72.154,498.068,-117.622,-143.087,179.500,226.760,11.780
44,64585.26000,178.662,-217.549,68.201,499.178,-124.399,-147.037,-208.500,172.760,193.780
45,64585.41000,179.641,-211.478,63.259,491.610,-128.185,-159.696,-601.500,58.760,373.780
46,64585.59000,175.725,-199.336,54.363,484.944,-132.951,-167.448,-989.500,-90.240,548.780
47,64585.97000,161.040,-181.123,40.525,466.805,-142.436,-187.790,-1353.500,-194.240,708.780
48,64585.111000,150.272,-157.850,25.699,468.071,-151.140,-199.615,-1524.500,-211.240,854.780
49,64585.133000,143.419,-136.601,5.931,440.348,-167.299,-227.655,-1834.500,-196.240,922.780
50,64585.148000,138.524,-121.423,-11.861,420.174,-175.803,-244.024,-2101.500,-109.240,1043.780
51,64585.173000,141.461,-99.162,-26.687,388.596,-189.019,-276.921,-2362.500,14.760,1123.780
52,64585.188000,146.356,-71.842,-49.421,369.331,-195.600,-290.355,-2611.500,101.760,1166.780
53,64585.211000,140.482,-29.344,-86.981,326.954,-204.849,-323.066,-2732.500,163.760,1196.780
54,64585.239000,134.608,-5.059,-101.807,278.533,-210.183,-347.799,-2763.500,403.760,1255.780
55,64585.248000,150.272,5.059,-113.668,258.384,-213.846,-368.111,-2883.500,725.760,1322.780
56,64585.271000,167.893,37.439,-160.124,203.085,-212.344,-394.700,-2958.500,740.760,1371.780
57,64585.293000,164.956,67.794,-196.695,184.579,-208.298,-401.268,-2917.500,692.760,1396.780
58,64585.316000,160.061,88.032,-208.556,117.357,-203.796,-418.789,-2838.500,704.760,1462.780
59,64585.334000,152.229,110.292,-226.347,97.872,-199.742,-425.340,-2771.500,821.760,1545.780
60,64585.372000,155.166,123.447,-248.093,46.069,-186.684,-434.283,-2763.500,980.760,1622.780
61,64585.372000,164.956,139.636,-283.676,-15.657,-173.546,-435.175,-2720.500,880.760,1655.780
62,64585.392000,160.061,153.802,-290.595,-41.064,-169.441,-438.668,-2613.500,621.760,1697.780
63,64585.412000,142.440,167.968,-291.583,-91.246,-159.324,-426.963,-2545.500,452.760,1740.780
64,64585.432000,133.629,187.194,-293.560,-113.857,-151.382,-424.604,-2532.500,326.760,1779.780
65,64585.454000,118.945,203.383,-311.351,-162.152,-141.286,-408.994,-2475.500,67.760,1789.780
66,64585.472000,89.576,220.585,-323.212,-178.934,-138.240,-401.810,-2385.500,-90.240,1786.780
67,64585.496000,62.164,231.715,-297.514,-216.455,-133.081,-384.416,-2206.500,-163.240,1764.780
68,64585.516000,37.690,234.751,-272.803,-231.586,-119.423,-365.460,-2149.500,-5.240,1712.780
69,64585.533000,29.859,222.609,-280.710,-271.984,-107.459,-354.915,-2192.500,32.760,1606.780
70,64585.561000,28.880,232.727,-291.583,-302.803,-103.339,-328.778,-2125.500,-256.240,1447.780
71,64585.583000,16.153,222.609,-266.873,-309.826,-99.415,-320.783,-2001.500,-494.240,1298.780
72,64585.598000,-19.090,227.668,-279.722,-338.671,-91.440,-297.640,-1827.500,-495.240,1124.780
73,64585.618000,-44.543,231.715,-315.305,-347.624,-94.272,-287.633,-1541.500,-308.240,946.780
74,64585.641000,-44.543,230.704,-345.946,-361.653,-88.358,-271.641,-1147.500,-215.240,725.780
75,64585.661000,-56.291,233.739,-369.668,-366.695,-81.547,-266.637,-922.500,-199.240,626.780
76,64585.678000,-69.996,230.704,-397.344,-369.805,-75.723,-259.698,-461.500,-124.240,426.780
77,64585.696000,-77.828,226.656,-417.112,-370.740,-76.679,-261.649,25.500,-56.240,192.780
78,64585.723000,-73.912,218.561,-420.077,-364.834,-76.731,-263.722,492.500,23.760,-127.220
79,64585.746000,-68.038,212.490,-416.124,-351.879,-81.673,-274.775,929.500,118.760,-493.220
80,64585.763000,-55.312,208.443,-402.286,-347.704,-87.501,-286.655,1300.500,257.760,-841.220
81,64585.781000,-33.774,215.526,-387.459,-326.686,-97.340,-308.674,1643.500,369.760,-1120.220
82,64585.818000,-1.468,222.609,-367.691,-311.818,-97.463,-319.766,1938.500,370.760,-1317.220
83,64585.834000,30.837,230.704,-355.830,-283.951,-107.365,-341.905,2070.500,315.760,-1466.220
84,64585.853000,53.354,237.787,-344.958,-250.187,-114.415,-367.106,2327.500,163.760,-1526.220
85,64585.873000,70.975,236.775,-333.097,-233.308,-124.231,-376.253,2523.500,47.760,-1599.220
86,64585.897000,90.554,231.715,-326.178,-187.775,-138.162,-399.684,2691.500,-92.240,-1627.220
87,64585.906000,102.302,222.609,-311.351,-164.135,-140.302,-407.976,2834.500,-202.240,-1624.220
88,64585.928000,124.818,196.300,-271.815,-115.832,-151.365,-423.584,2929.500,-277.240,-1604.220
89,64585.956000,132.650,184.158,-262.919,-83.322,-162.293,-431.038,2970.500,-381.240,-1568.220
90,64585.968000,133.629,163.921,-248.093,-32.309,-171.460,-434.883,2996.500,-539.240,-1525.220
91,64586.1000,132.650,144.696,-228.324,-6.735,-184.266,-436.305,3004.500,-648.240,-1491.220
92,64586.16000,124.818,125.470,-201.637,48.987,-184.776,-434.337,3001.500,-657.240,-1476.220
93,64586.31000,128.734,98.150,-180.880,106.643,-195.952,-425.499,2941.500,-607.240,-1443.220
94,64586.49000,129.713,71.842,-168.031,134.880,-192.347,-420.096,2827.500,-582.240,-1417.220
95,64586.77000,129.713,48.569,-149.251,187.477,-196.712,-405.271,2718.500,-625.240,-1395.220
96,64586.99000,122.860,33.391,-131.459,210.789,-200.807,-393.865,2593.500,-688.240,-1378.220
97,64586.117000,120.902,17.202,-114.656,260.260,-201.285,-370.128,2475.500,-739.240,-1342.220
98,64586.136000,116.008,-9.107,-90.934,277.690,-198.552,-361.580,2411.500,-727.240,-1315.220
99,64586.161000,119.924,-33.391,-76.108,326.103,-196.122,-334.874,2291.500,-620.240,-1274.220
100,64586.198000,129.713,-63.747,-61.282,357.778,-191.611,-302.953,2132.500,-588.240,-1250.220
101,64586.198000,129.713,-86.008,-56.340,376.162,-191.791,-291.465,2034.500,-613.240,-1235.220
102,64586.219000,123.839,-99.162,-45.467,407.896,-180.502,-266.444,1859.500,-636.240,-1196.220
103,64586.246000,117.966,-119.399,-23.722,414.475,-173.804,-254.754,1703.500,-503.240,-1117.220
104,64586.263000,130.692,-133.565,-6.919,432.483,-159.487,-229.494,1502.500,-254.240,-994.220
105,64586.290000,134.608,-142.672,7.907,443.990,-154.767,-218.874,1296.500,-125.240,-851.220
106,64586.304000,137.545,-164.933,26.687,461.246,-146.237,-203.438,1050.500,4.760,-689.220
107,64586.326000,151.250,-188.206,37.560,467.868,-136.633,-195.691,726.500,132.760,-517.220
108,64586.343000,164.956,-200.348,46.456,473.600,-132.822,-189.890,371.500,168.760,-355.220
109,64586.369000,177.683,-205.407,46.456,474.526,-132.834,-186.953,10.500,170.760,-168.220
110,64586.392000,185.514,-205.407,43.490,468.680,-127.940,-190.793,-157.500,135.760,-74.220
111,64586.408000,192.367,-202.372,36.571,463.979,-129.820,-200.552,-487.500,72.760,127.780
112,64586.429000,195.304,-195.289,26.687,461.225,-132.687,-209.360,-801.500,1.760,367.780
113,64586.447000,194.325,-185.170,16.803,450.802,-143.217,-222.946,-1103.500,-76.240,623.780
114,64586.469000,185.514,-167.968,1.977,442.588,-160.526,-247.392,-1399.500,-115.240,865.780
115,64586.498000,178.662,-147.731,-19.768,420.310,-166.116,-256.836,-1681.500,-135.240,1087.780
116,64586.513000,169.851,-125.470,-38.548,383.702,-183.168,-279.795,-1923.500,-171.240,1269.780
117,64586.529000,157.124,-97.138,-60.293,367.390,-191.709,-293.279,-2128.500,-179.240,1416.780
118,64586.551000,143.419,-65.771,-84.015,328.843,-208.742,-317.188,-2208.500,-146.240,1482.780
119,64586.572000,128.734,-35.415,-110.703,310.591,-217.265,-331.622,-2298.500,-13.240,1606.780
120,64586.594000,119.924,-17.202,-131.459,267.065,-232.323,-351.508,-2339.500,225.760,1708.780
121,64586.612000,114.050,5.059,-152.216,238.940,-233.019,-364.792,-2368.500,472.760,1759.780
122,64586.629000,108.176,30.356,-173.961,190.379,-234.489,-383.620,-2325.500,687.760,1765.780
123,64586.656000,100.344,39.462,-184.834,141.713,-230.158,-399.500,-2304.500,931.760,1745.780
124,64586.673000,109.155,42.498,-192.741,122.271,-223.198,-409.993,-2394.500,1101.760,1688.780
125,64586.689000,109.155,60.711,-219.429,69.602,-209.157,-425.813,-2423.500,1111.760,1587.780
126,64586.711000,98.386,80.949,-235.243,42.203,-203.100,-428.289,-2371.500,1191.760,1474.780
127,64586.733000,91.533,83.984,-245.127,-6.788,-180.398,-435.324,-2343.500,1297.760,1421.780
128,64586.761000,115.029,79.937,-242.162,-28.369,-170.526,-436.923,-2397.500,1545.760,1306.780
129,64586.777000,147.335,101.186,-249.081,-71.550,-144.976,-442.095,-2506.500,1532.760,1191.780
130,64586.799000,162.019,127.494,-275.768,-115.916,-127.172,-431.487,-2535.500,1168.760,1144.780
131,64586.822000,161.040,140.648,-290.595,-132.673,-117.349,-429.233,-2528.500,701.760,1177.780
132,64586.839000,166.914,157.850,-270.826,-177.028,-106.320,-415.663,-2513.500,339.760,1239.780
133,64586.858000,141.461,193.265,-274.780,-203.726,-98.352,-403.387,-2481.500,124.760,1330.780
134,64586.896000,104.260,217.549,-286.641,-237.448,-88.396,-382.128,-2356.500,104.760,1434.780
135,64586.902000,89.576,220.585,-288.618,-252.281,-88.271,-373.006,-2268.500,99.760,1520.780
136,64586.922000,79.786,225.644,-297.514,-283.103,-70.601,-353.777,-2195.500,57.760,1528.780
137,64586.942000,54.333,224.632,-307.398,-309.031,-58.782,-331.674,-2008.500,-68.240,1485.780
138,64586.959000,36.711,207.431,-338.039,-325.796,-55.734,-325.474,-1845.500,-253.240,1363.780
139,64586.982000,23.985,203.383,-364.726,-342.795,-51.732,-306.473,-1572.500,-529.240,1169.780
140,64586.999000,-16.153,213.502,-390.425,-346.856,-50.737,-298.527,-1138.500,-584.240,963.780
141,64587.13000,-49.438,216.538,-416.124,-354.920,-41.968,-289.534,-657.500,-381.240,757.780
142,64587.41000,-52.375,207.431,-427.985,-354.901,-45.838,-288.546,-136.500,-159.240,494.780
143,64587.62000,-41.606,199.336,-432.927,-353.959,-40.042,-289.554,369.500,-27.240,195.780
144,64587.84000,-27.901,191.241,-427.985,-355.812,-40.018,-295.428,833.500,16.760,-116.220
145,64587.104000,-13.216,177.075,-412.170,-343.810,-42.046,-309.420,1037.500,45.760,-284.220
146,64587.138000,1.468,174.040,-392.402,-318.983,-48.055,-327.572,1381.500,85.760,-610.220
147,64587.141000,18.111,178.087,-373.622,-308.019,-54.917,-335.634,1669.500,101.760,-885.220
148,64587.162000,41.606,186.182,-355.830,-289.989,-62.797,-355.633,1901.500,-3.240,-1099.220
149,64587.184000,63.143,196.300,-335.073,-276.046,-70.651,-365.715,2099.500,-209.240,-1266.220
150,64587.207000,69.996,204.395,-322.224,-239.335,-90.310,-385.046,2265.500,-355.240,-1396.220
151,64587.229000,85.660,199.336,-304.432,-223.471,-90.441,-397.140,2393.500,-455.240,-1511.220
152,64587.252000,101.323,189.217,-303.444,-180.967,-111.125,-411.650,2460.500,-626.240,-1599.220
153,64587.284000,111.113,181.123,-297.514,-141.485,-131.788,-421.184,2486.500,-764.240,-1683.220
154,64587.298000,100.344,175.051,-292.571,-110.854,-147.533,-430.568,2548.500,-1044.240,-1725.220
155,64587.317000,89.576,163.921,-277.745,-59.742,-167.341,-434.403,2643.500,-1105.240,-1820.220
156,64587.332000,97.407,140.648,-262.919,-38.136,-174.307,-435.761,2737.500,-899.240,-1919.220
157,64587.352000,121.881,130.530,-255.012,16.776,-187.382,-436.717,2767.500,-674.240,-1988.220
158,64587.361000,140.482,114.340,-233.266,51.933,-189.642,-432.414,2801.500,-647.240,-2010.220
159,64587.393000,153.208,93.091,-210.533,106.644,-197.888,-424.513,2776.500,-817.240,-1990.220
160,64587.411000,153.208,67.794,-185.822,161.224,-203.238,-410.705,2727.500,-1028.240,-1957.220
161,64587.429000,144.398,63.747,-170.996,192.399,-209.338,-400.421,2628.500,-1062.240,-1904.220
162,64587.449000,148.314,48.569,-151.228,242.849,-213.696,-374.728,2607.500,-1022.240,-1843.220
163,64587.475000,148.314,26.308,-116.633,267.051,-210.062,-362.363,2554.500,-876.240,-1692.220
164,64587.497000,157.124,-1.012,-92.911,304.710,-208.501,-335.466,2475.500,-670.240,-1508.220
165,64587.517000,157.124,-23.273,-65.236,334.748,-206.858,-320.248,2360.500,-543.240,-1285.220
166,64587.537000,145.377,-52.617,-37.560,369.427,-198.498,-294.291,2256.500,-481.240,-1021.220
167,64587.559000,138.524,-77.913,-8.896,384.134,-194.502,-520.980,2091.500,-379.240,-790.220
168,64587.585000,126.776,-106.245,14.826,406.782,-192.115,-252.628,1862.500,-218.240,-593.220
169,64587.614000,124.818,-139.636,26.687,423.916,-183.591,-230.299,1573.500,-17.240,-430.220
170,64587.642000,127.755,-162.909,38.548,430.636,-182.693,-223.527,1258.500,61.760,-342.220
171,64587.642000,128.734,-183.146,49.421,449.858,-177.083,-207.138,1095.500,68.760,-312.220
172,64587.656000,129.713,-200.348,58.317,450.784,-175.159,-205.188,758.500,83.760,-239.220
173,64587.673000,130.692,-210.466,61.282,454.577,-175.201,-198.364,396.500,87.760,-155.220
174,64587.692000,132.650,-210.466,58.317,449.658,-172.255,-198.280,12.500,87.760,-52.220
175,64587.718000,136.566,-209.455,54.363,447.814,-173.198,-204.153,-366.500,103.760,67.780
176,64587.738000,142.440,-207.431,44.479,448.013,-176.091,-213.998,-748.500,72.760,190.780
177,64587.761000,147.335,-198.324,35.583,436.488,-175.004,-226.593,-1118.500,31.760,322.780
178,64587.778000,153.208,-181.123,27.676,420.200,-178.705,-244.021,-1458.500,18.760,476.780
179,64587.801000,154.187,-161.897,9.884,403.870,-185.312,-257.507,-1775.500,23.760,634.780
180,64587.831000,154.187,-143.684,-14.826,377.020,-193.743,-283.602,-1924.500,28.760,708.780
181,64587.847000,160.061,-123.447,-38.548,365.556,-199.428,-296.190,-2169.500,1.760,848.780
182,64587.868000,154.187,-100.174,-65.236,325.033,-208.701,-323.027,-2343.500,6.760,994.780
183,64587.891000,148.314,-73.866,-92.911,288.372,-218.013,-346.979,-2427.500,138.760,1123.780
184,64587.913000,140.482,-47.557,-116.633,268.040,-218.781,-358.432,-2450.500,404.760,1227.780
185,64587.931000,151.250,-29.344,-131.459,222.519,-220.273,-383.221,-2514.500,684.760,1301.780
186,64587.948000,158.103,1.012,-162.100,192.331,-215.149,-393.522,-2532.500,783.760,1379.780
187,64587.971000,151.250,26.308,-184.834,144.678,-210.825,-411.388,-2489.500,865.760,1448.780
188,64587.988000,160.061,30.356,-182.857,121.288,-205.767,-418.856,-2574.500,931.760,1508.780
189,64588.19000,176.704,48.569,-199.660,72.543,-196.601,-432.771,-2640.500,913.760,1529.780
190,64588.47000,170.830,87.020,-225.359,268.222,-190.638,-439.193,-2665.500,691.760,1547.780
191,64588.62000,156.145,107.257,-235.243,-13.584,-186.140,-435.197,-2621.500,576.760,1608.780
192,64588.76000,159.082,113.328,-237.220,-63.672,-171.178,-431.375,-2657.500,567.760,1643.780
193,64588.98000,153.208,142.672,-248.093,-91.158,-165.126,-428.927,-2681.500,554.760,1677.780
194,64588.118000,136.566,179.099,-246.116,-137.401,-154.075,-419.262,-2640.500,705.760,1769.780
195,64588.139000,147.335,196.300,-240.185,-163.096,-139.340,-411.933,-2738.500,658.760,1919.780
196,64588.159000,181.598,220.585,-248.093,-207.537,-130.251,-392.453,-2861.500,-1.240,2043.780
197,64588.177000,168.872,259.036,-273.792,-238.167,-122.249,-379.122,-2846.500,-485.240,2165.780
198,64588.201000,99.365,294.451,-289.606,-276.900,-116.127,-348.911,-2613.500,-1096.240,2239.780
199,64588.221000,36.711,289.391,-284.664,-306.828,-106.213,-320.828,-2348.500,-991.240,2357.780
200,64588.243000,9.300,273.202,-288.618,-323.776,-98.336,-306.755,-2147.500,-629.240,2311.780
201,64588.261000,-9.300,270.166,-306.409,-350.806,-78.772,-281.688,-1934.500,-405.240,2109.780
202,64588.283000,-32.795,268.142,-331.120,-366.723,-70.901,-270.587,-1664.500,-284.240,1861.780
203,64588.306000,-52.375,258.024,-332.108,-381.784,-59.175,-254.583,-1374.500,-134.240,1610.780
204,64588.319000,-63.143,245.881,-350.888,-388.879,-45.576,-247.582,-1077.500,-84.240,1308.780
205,64588.346000,-74.891,254.988,-373.622,-399.931,-34.847,-236.570,-654.500,-210.240,943.780
206,64588.359000,-100.344,246.893,-394.378,-394.174,-30.067,-232.740,-434.500,-243.240,547.780
207,64588.382000,-116.987,230.704,-407.228,-397.065,-32.942,-233.670,3.500,-206.240,327.780
208,64588.399000,-114.050,218.561,-411.181,-388.119,-36.886,-239.730,433.500,-114.240,-165.220
209,64588.432000,-109.155,201.360,-400.309,-387.010,-39.791,-245.653,834.500,-55.240,-740.220
210,64588.446000,-76.849,212.490,-375.598,-380.703,-53.370,-263.469,1201.500,45.760,-1301.220
211,64588.464000,-50.417,229.692,-353.853,-361.867,-63.205,-272.651,1546.500,225.760,-1762.220
212,64588.489000,-8.321,247.905,-334.085,-338.752,-80.797,-298.635,1830.500,477.760,-2069.220
213,64588.504000,36.711,263.083,-322.224,-318.625,-96.430,-322.600,2050.500,578.760,-2260.220
214,64588.527000,75.870,272.190,-309.375,-300.681,-104.315,-337.675,2250.500,432.760,-2355.220
215,64588.548000,102.302,271.178,-308.386,-261.026,-123.032,-358.044,2340.500,310.760,-2364.220
216,64588.569000,119.924,261.059,-306.409,-238.146,-133.863,-374.187,2518.500,40.760,-2306.220
217,64588.587000,125.797,245.881,-298.502,-194.604,-149.713,-394.628,2704.500,-130.240,-2188.220
218,64588.609000,130.692,226.656,-288.618,-164.027,-157.718,-405.004,2882.500,-141.240,-2054.220
219,64588.632000,146.356,202.372,-271.815,-110.797,-166.888,-423.655,3044.500,-65.240,-1910.220
220,64588.651000,162.019,177.075,-250.069,-50.838,-176.127,-435.534,3157.500,-77.240,-1758.220
221,64588.673000,168.872,150.767,-230.301,-20.513,-179.307,-434.098,3205.500,-245.240,-1631.220
222,64588.693000,162.019,126.482,-211.521,33.331,-184.634,-434.060,3196.500,-463.240,-1521.220
223,64588.716000,150.272,102.198,-193.730,65.639,-186.862,-434.629,3155.500,-643.240,-1446.220
224,64588.738000,137.545,74.877,-170.008,125.208,-195.155,-424.844,3116.500,-704.240,-1419.220
225,64588.758000,128.734,58.688,-151.228,149.577,-202.158,-416.407,2980.500,-803.240,-1368.220
226,64588.776000,124.818,30.356,-124.541,207.924,-206.584,-394.792,2845.500,-924.240,-1340.220
227,64588.803000,116.987,-2.024,-95.876,232.214,-210.688,-383.403,2650.500,-1070.240,-1379.220
228,64588.817000,110.134,-32.379,-84.015,282.621,-214.081,-355.742,2361.500,-1084.240,-1466.220
229,64588.837000,112.092,-51.605,-72.154,315.345,-213.446,-325.804,2108.500,-994.240,-1562.220
230,64588.865000,120.902,-67.794,-61.282,333.718,-208.788,-316.290,1853.500,-835.240,-1578.220
231,64588.866000,142.440,-86.008,-49.421,367.435,-198.482,-292.287,1630.500,-752.240,-1520.220
232,64588.912000,136.566,-95.115,-37.560,376.960,-196.650,-278.675,1482.500,-683.240,-1395.220
233,64588.931000,137.545,-111.304,-30.641,401.930,-183.357,-259.444,1408.500,-564.240,-1301.220
234,64588.939000,154.187,-130.530,-28.664,419.326,-178.690,-249.912,1276.500,-306.240,-1097.220
235,64588.962000,150.272,-141.660,-23.722,429.715,-170.098,-233.370,1200.500,-146.240,-894.220
236,64588.982000,152.229,-165.945,-6.919,446.935,-157.697,-217.938,1102.500,170.760,-665.220
237,64588.991000,165.935,-189.217,7.907,453.620,-154.865,-210.184,896.500,446.760,-430.220
238,64589.18000,178.662,-205.407,19.768,459.332,-145.248,-206.359,602.500,466.760,-202.220
239,64589.46000,181.598,-213.502,26.687,456.353,-142.321,-205.325,245.500,314.760,28.780
240,64589.66000,178.662,-217.549,30.641,456.432,-147.156,-207.290,-157.500,109.760,245.780
241,64589.86000,173.767,-215.526,28.664,453.627,-151.961,-212.157,-560.500,18.760,445.780
242,64589.103000,165.935,-200.348,24.710,447.974,-156.735,-221.896,-743.500,-111.240,541.780
243,64589.123000,154.187,-178.087,18.780,423.973,-169.069,-241.146,-1050.500,-126.240,738.780
244,64589.151000,146.356,-162.909,8.896,416.356,-180.601,-246.904,-1317.500,-7.240,938.780
245,64589.166000,146.356,-145.708,2.965,391.454,-190.018,-272.048,-1570.500,175.760,1122.780
246,64589.188000,154.187,-129.518,-7.907,372.154,-194.665,-284.499,-1822.500,314.760,1286.780
247,64589.208000,157.124,-113.328,-22.734,339.485,-206.911,-311.472,-2075.500,415.760,1447.780
248,64589.228000,159.082,-92.079,-40.525,324.151,-213.526,-325.959,-2288.500,556.760,1603.780
249,64589.253000,162.019,-71.842,-63.259,277.773,-218.873,-355.651,-2466.500,690.760,1730.780
250,64589.271000,163.977,-48.569,-93.900,246.721,-220.510,-368.882,-2532.500,736.760,1773.780
251,64589.291000,165.935,-13.154,-119.598,196.247,-222.928,-389.644,-2581.500,783.760,1831.780
252,64589.312000,145.377,16.190,-150.239,142.784,-221.451,-409.373,-2513.500,881.760,1867.780
253,64589.327000,138.524,22.261,-171.985,120.294,-213.502,-413.907,-2476.500,1072.760,1863.780
254,64589.341000,142.440,25.296,-195.707,65.651,-199.444,-428.708,-2512.500,1111.760,1784.780
255,64589.368000,143.419,49.581,-211.521,38.260,-192.420,-432.169,-2553.500,1050.760,1652.780
256,64589.388000,135.587,68.806,-224.371,-7.732,-180.387,-437.276,-2666.500,1064.760,1566.780
257,64589.416000,137.545,93.091,-243.151,-32.232,-168.551,-440.795,-2804.500,1025.760,1509.780
258,64589.433000,140.482,120.411,-262.919,-91.266,-147.710,-431.899,-2832.500,812.760,1460.780
259,64589.453000,132.650,157.850,-279.722,-141.467,-135.658,-420.196,-2755.500,728.760,1440.780
260,64589.476000,126.776,173.028,-269.838,-160.189,-128.721,-415.935,-2693.500,636.760,1422.780
261,64589.492000,134.608,184.158,-269.838,-205.672,-108.980,-398.418,-2697.500,527.760,1413.780
262,64589.529000,132.650,197.312,-291.583,-231.277,-109.726,-388.119,-2704.500,304.760,1420.780
263,64589.557000,112.092,225.644,-303.444,-268.984,-90.060,-367.786,-2531.500,191.760,1440.780
264,64589.559000,100.344,233.739,-302.456,-281.965,-86.087,-354.763,-2345.500,154.760,1446.780
265,64589.576000,98.386,231.715,-277.745,-306.041,-70.420,-328.760,-2217.500,121.760,1374.780
266,64589.598000,77.828,233.739,-277.745,-337.849,-57.581,-306.554,-2115.500,101.760,1297.780
267,64589.621000,56.291,231.715,-310.363,-351.739,-51.660,-298.439,-1943.500,-116.240,1225.780
268,64589.638000,51.396,228.680,-340.015,-367.907,-44.771,-272.566,-1806.500,-339.240,1160.780
269,64589.652000,25.943,222.609,-353.853,-376.887,-42.765,-263.549,-1494.500,-820.240,987.780
270,64589.677000,-12.237,231.715,-384.494,-386.871,-43.655,-251.558,-1086.500,-1230.240,765.780
271,64589.697000,-123.839,237.787,-421.066,-383.994,-52.396,-243.723,-553.500,-1319.240,483.780
272,64589.719000,-146.356,230.704,-412.170,-387.907,-56.232,-241.680,0.500,-894.240,166.780
273,64589.737000,-129.713,225.644,-394.378,-384.832,-60.122,-247.637,489.500,-230.240,-185.220
274,64589.759000,-94.470,221.597,-376.587,-384.719,-61.084,-253.544,906.500,217.760,-545.220
275,64589.779000,-64.122,216.538,-358.795,-362.784,-69.968,-272.627,1265.500,362.760,-904.220
276,64589.808000,-34.753,220.585,-344.958,-358.670,-70.960,-283.527,1545.500,422.760,-1214.220
277,64589.824000,-3.426,229.692,-336.062,-334.708,-83.729,-304.610,1663.500,421.760,-1345.220
278,64589.847000,25.943,243.858,-333.097,-320.747,-91.582,-315.677,1859.500,383.760,-1550.220
279,64589.869000,53.354,252.964,-333.097,-291.796,-107.294,-340.782,2060.500,235.760,-1692.220
280,64589.897000,69.996,248.917,-332.108,-277.863,-108.374,-353.825,2289.500,7.760,-1773.220
281,64589.916000,93.491,237.787,-325.189,-236.234,-127.108,-375.213,2495.500,-134.240,-1814.220
282,64589.943000,119.924,221.597,-320.247,-193.645,-143.916,-396.621,2682.500,-315.240,-1861.220
283,64589.952000,131.671,200.348,-314.317,-164.001,-158.685,-405.988,2835.500,-557.240,-1908.220
284,64589.969000,133.629,186.182,-294.548,-115.740,-170.718,-418.641,2964.500,-696.240,-1950.220
285,64589.983000,130.692,167.968,-273.792,-87.197,-181.613,-423.071,3035.500,-687.240,-1939.220
286,64590.7000,135.587,149.755,-254.023,-26.320,-193.768,-430.041,3048.500,-562.240,-1914.220
287,64590.24000,147.335,122.435,-236.232,2.084,-198.864,-429.553,3060.500,-528.240,-1828.220
288,64590.47000,159.082,93.091,-207.568,61.766,-211.990,-423.702,3014.500,-677.240,-1763.220
289,64590.69000,152.229,71.842,-180.880,119.396,-222.200,-413.881,2886.500,-913.240,-1737.220
290,64590.88000,129.713,60.711,-168.031,150.553,-224.429,-404.585,2765.500,-1001.240,-1728.220
291,64590.109000,129.713,40.474,-138.378,202.085,-228.791,-384.818,2681.500,-871.240,-1702.220
292,64590.129000,154.187,9.107,-110.703,224.384,-232.878,-371.425,2548.500,-878.240,-1652.220
293,64590.149000,149.293,-15.178,-97.853,268.971,-234.279,-347.601,2373.500,-995.240,-1581.220
294,64590.177000,141.461,-39.462,-81.050,295.087,-233.569,-331.329,2301.500,-1011.240,-1529.220
295,64590.199000,137.545,-58.688,-60.293,333.680,-227.180,-304.454,2140.500,-927.240,-1421.220
296,64590.217000,130.692,-74.877,-44.479,352.712,-221.581,-277.233,1988.500,-729.240,-1274.220
297,64590.239000,129.713,-100.174,-23.722,380.846,-221.853,-263.948,1852.500,-457.240,-1094.220
298,64590.258000,139.503,-128.506,-8.896,404.777,-209.522,-240.759,1664.500,-322.240,-908.220
299,64590.301000,139.503,-149.755,0.988,413.323,-205.745,-228.116,1462.500,-351.240,-755.220
300,64590.320000,123.839,-161.897,14.826,431.585,-203.997,-210.721,1240.500,-243.240,-603.220
301,64590.328000,116.987,-179.099,28.664,441.170,-201.194,-201.050,981.500,50.760,-426.220
302,64590.334000,126.776,-196.300,35.583,448.719,-191.602,-190.366,685.500,218.760,-258.220
303,64590.366000,134.608,-208.443,42.502,446.710,-191.587,-187.377,527.500,214.760,-183.220
304,64590.384000,134.608,-216.538,45.467,447.670,-187.725,-188.383,190.500,146.760,-45.220
305,64590.404000,131.671,-218.561,44.479,446.753,-190.616,-190.332,-153.500,121.760,89.780
306,64590.422000,131.671,-213.502,35.583,441.964,-188.630,-197.141,-496.500,165.760,221.780
307,64590.439000,136.566,-208.443,27.676,435.419,-195.326,-210.799,-824.500,204.760,359.780
308,64590.461000,141.461,-194.277,19.768,426.803,-195.235,-221.476,-1127.500,198.760,509.780
309,64590.481000,145.377,-174.040,11.861,408.647,-204.721,-240.833,-1410.500,188.760,681.780
310,64590.508000,142.440,-149.755,0.000,398.127,-212.352,-250.482,-1680.500,251.760,875.780
311,64590.526000,139.503,-127.494,-10.873,367.309,-213.008,-277.501,-1927.500,371.760,1072.780
312,64590.548000,139.503,-105.233,-24.710,331.678,-222.325,-304.424,-2045.500,433.760,1157.780
313,64590.566000,138.524,-79.937,-35.583,314.474,-228.918,-323.801,-2250.500,545.760,1287.780
314,64590.583000,136.566,-61.723,-55.351,269.948,-228.481,-350.579,-2414.500,637.760,1377.780
315,64590.606000,139.503,-44.522,-84.015,245.746,-232.116,-362.944,-2559.500,665.760,1415.780
316,64590.626000,139.503,-25.296,-107.737,194.344,-230.650,-388.617,-2671.500,675.760,1397.780
317,64590.648000,131.671,10.119,-141.344,171.016,-230.428,-397.064,-2710.500,740.760,1362.780
318,64590.671000,120.902,37.439,-173.961,122.287,-217.389,-413.938,-2725.500,917.760,1326.780
319,64590.691000,134.608,53.628,-190.764,93.102,-205.498,-429.186,-2815.500,973.760,1289.780
320,64590.712000,149.293,86.008,-221.405,44.256,-206.017,-432.259,-2835.500,903.760,1277.780
321,64590.728000,139.503,122.435,-241.174,-12.578,-190.987,-434.225,-2771.500,792.760,1293.780
322,64590.766000,133.629,134.577,-247.104,-38.125,-183.018,-431.813,-2768.500,841.760,1374.780
323,64590.784000,149.293,148.743,-249.081,-95.089,-165.092,-427.873,-2861.500,841.760,1444.780
324,64590.803000,155.166,179.099,-273.792,-113.794,-162.025,-422.623,-2861.500,609.760,1520.780
325,64590.809000,139.503,207.431,-301.467,-164.099,-144.172,-407.972,-2675.500,363.760,1635.780
326,64590.837000,121.881,210.466,-294.548,-190.720,-135.232,-400.620,-2523.500,380.760,1734.780
327,64590.859000,126.776,207.431,-271.815,-232.279,-120.366,-381.198,-2535.500,408.760,1749.780
328,64590.877000,127.755,209.455,-278.734,-268.070,-105.559,-355.970,-2628.500,133.760,1767.780
329,64590.899000,120.902,224.632,-318.270,-290.828,-100.529,-343.760,-2624.500,-108.240,1780.780
330,64590.914000,105.239,261.059,-347.923,-326.731,-88.632,-310.652,-2377.500,-732.240,1845.780
331,64590.942000,67.059,279.273,-342.981,-333.728,-89.546,-301.667,-2006.500,-1100.240,1891.780
332,64590.957000,-42.585,268.142,-369.668,-355.715,-82.600,-278.644,-1677.500,-1085.240,1877.780
333,64590.971000,-78.807,259.036,-385.483,-367.667,-72.826,-271.553,-1320.500,-983.240,1701.780
334,64590.998000,-115.029,237.787,-380.541,-379.739,-66.931,-255.595,-901.500,-847.240,1386.780
335,64591.16000,-138.524,212.490,-377.575,-388.719,-62.989,-247.565,-529.500,-609.240,1020.780
336,64591.43000,-143.419,206.419,-385.483,-383.853,-62.067,-246.667,-170.500,-394.240,572.780
337,64591.61000,-145.377,199.336,-379.552,-387.785,-58.161,-247.587,267.500,-238.240,39.780
338,64591.83000,-126.776,192.253,-366.703,-381.774,-64.014,-252.609,462.500,-108.240,-222.220
339,64591.101000,-92.512,192.253,-359.784,-371.781,-67.963,-262.625,786.500,181.760,-711.220
340,64591.118000,-58.249,202.372,-359.784,-366.654,-72.833,-273.539,1068.500,333.760,-1154.220
341,64591.147000,-29.859,213.502,-354.842,-351.558,-84.558,-291.513,1338.500,382.760,-1524.220
342,64591.178000,0.489,226.656,-343.969,-333.439,-102.112,-311.502,1609.500,426.760,-1794.220
343,64591.197000,30.837,238.798,-339.027,-306.750,-109.112,-323.779,1861.500,440.760,-1967.220
344,64591.224000,58.249,243.858,-336.062,-270.993,-121.986,-348.024,2123.500,330.760,-2083.220
345,64591.228000,78.807,243.858,-334.085,-262.895,-130.753,-358.986,2374.500,148.760,-2136.220
346,64591.248000,96.428,232.727,-321.236,-214.347,-151.481,-383.448,2598.500,-1.240,-2151.220
347,64591.269000,108.176,216.538,-313.328,-193.562,-160.365,-392.665,2685.500,-75.240,-2139.220
348,64591.293000,125.797,195.289,-299.490,-142.246,-170.483,-413.250,2840.500,-242.240,-2107.220
349,64591.307000,131.671,179.099,-289.606,-110.828,-178.505,-415.765,2961.500,-437.240,-2095.220
350,64591.321000,124.818,159.874,-267.861,-47.890,-194.543,-426.705,3068.500,-515.240,-2078.220
351,64591.343000,133.629,132.553,-249.081,10.900,-203.783,-427.734,3115.500,-456.240,-2026.220
352,64591.371000,142.440,111.304,-230.301,37.319,-204.023,-428.201,3105.500,-398.240,-1966.220
353,64591.393000,149.293,89.043,-207.568,104.776,-209.480,-423.482,3072.500,-380.240,-1884.220
354,64591.411000,162.998,63.747,-189.776,136.910,-207.847,-416.176,2991.500,-465.240,-1759.220
355,64591.426000,169.851,41.486,-166.054,189.438,-212.216,-397.412,2884.500,-550.240,-1652.220
356,64591.448000,165.935,11.130,-140.355,212.775,-211.470,-389.950,2797.500,-756.240,-1602.220
357,64591.473000,149.293,-4.047,-125.529,265.138,-214.881,-362.323,2615.500,-911.240,-1532.220
358,64591.496000,131.671,-11.130,-104.772,310.590,-213.394,-333.595,2500.500,-872.240,-1469.220
359,64591.518000,122.860,-28.332,-85.004,326.955,-208.721,-321.092,2379.500,-644.240,-1358.220
360,64591.536000,131.671,-53.628,-63.259,364.500,-198.456,-292.235,2222.500,-470.240,-1222.220
361,64591.558000,138.524,-78.925,-49.421,384.772,-200.594,-275.856,2037.500,-540.240,-1130.220
362,64591.576000,135.587,-104.221,-35.583,410.574,-188.286,-247.777,1860.500,-716.240,-1060.220
363,64591.598000,122.860,-122.435,-16.803,422.091,-190.341,-234.196,1662.500,-680.240,-981.220
364,64591.626000,108.176,-133.565,0.988,441.087,-178.937,-207.966,1557.500,-551.240,-926.220
365,64591.658000,111.113,-146.719,19.768,463.149,-170.455,-187.692,1335.500,-173.240,-769.220
366,64591.658000,131.671,-166.957,31.629,468.811,-164.713,-178.939,1097.500,127.760,-568.220
367,64591.691000,151.250,-184.158,42.502,475.451,-158.979,-170.203,824.500,139.760,-372.220
368,64591.703000,156.145,-198.324,53.375,476.351,-158.025,-166.282,517.500,17.760,-182.220
369,64591.722000,148.314,-206.419,56.340,476.317,-159.963,-163.326,209.500,-11.240,12.780
370,64591.743000,144.398,-212.490,50.409,473.399,-159.935,-164.259,-103.500,65.760,204.780
371,64591.763000,145.377,-216.538,44.479,467.702,-163.743,-172.029,-413.500,128.760,369.780
372,64591.781000,145.377,-214.514,34.595,471.721,-169.580,-175.047,-722.500,156.760,512.780
373,64591.806000,145.377,-206.419,25.699,456.386,-170.388,-192.495,-869.500,163.760,583.780
374,64591.828000,141.461,-194.277,12.849,441.174,-180.868,-211.903,-1142.500,189.760,725.780
375,64591.848000,140.482,-180.111,7.907,427.737,-188.471,-222.485,-1403.500,261.760,863.780
376,64591.871000,139.503,-156.838,1.977,404.852,-198.871,-250.617,-1661.500,341.760,980.780
377,64591.888000,139.503,-133.565,-7.907,386.564,-199.653,-267.028,-1942.500,398.760,1072.780
378,64591.913000,145.377,-119.399,-19.768,355.879,-212.884,-295.019,-2260.500,416.760,1154.780
379,64591.928000,151.250,-92.079,-35.583,336.690,-214.620,-315.351,-2543.500,344.760,1223.780
380,64591.947000,144.398,-52.617,-56.340,297.119,-224.871,-340.235,-2718.500,314.760,1287.780
381,64591.976000,133.629,-21.249,-85.992,248.742,-231.171,-366.936,-2839.500,433.760,1365.780
382,64591.984000,135.587,-4.047,-113.668,214.736,-228.910,-381.104,-2900.500,500.760,1401.780
383,64592.12000,142.440,23.273,-151.228,168.158,-231.365,-400.951,-2960.500,523.760,1454.780
384,64592.29000,133.629,49.581,-182.857,137.911,-227.213,-407.311,-2899.500,522.760,1489.780
385,64592.57000,131.671,63.747,-189.776,79.338,-220.864,-417.112,-2902.500,589.760,1506.780
386,64592.79000,146.356,86.008,-204.602,43.194,-219.563,-420.411,-2945.500,558.760,1518.780
387,64592.93000,137.545,127.494,-247.104,-7.689,-213.293,-422.472,-2833.500,509.760,1581.780
388,64592.111000,121.881,154.814,-266.873,-58.721,-198.320,-420.602,-2652.500,705.760,1655.780
389,64592.141000,121.881,161.897,-247.104,-82.364,-186.501,-417.244,-2654.500,1017.760,1695.780
390,64592.162000,133.629,162.909,-244.139,-137.390,-162.786,-415.314,-2753.500,1037.760,1710.780
391,64592.179000,143.419,177.075,-293.560,-156.121,-158.753,-409.081,-2755.500,897.760,1717.780
392,64592.199000,144.398,220.585,-289.606,-208.496,-139.920,-388.487,-2688.500,425.760,1721.780
393,64592.223000,100.344,243.858,-304.432,-231.219,-132.953,-379.233,-2588.500,-63.240,1767.780
394,64592.237000,66.080,251.953,-325.189,-261.069,-124.003,-355.088,-2443.500,-267.240,1825.780
395,64592.259000,41.606,262.071,-355.830,-300.689,-109.155,-334.716,-2279.500,-307.240,1822.780
396,64592.276000,9.300,274.213,-382.517,-312.752,-104.227,-318.757,-1962.500,-438.240,1767.780
397,64592.299000,-27.901,275.225,-399.320,-338.645,-94.342,-297.637,-1574.500,-557.240,1689.780
398,64592.317000,-65.101,271.178,-423.042,-345.624,-93.319,-290.623,-1158.500,-771.240,1584.780
399,64592.339000,-127.755,262.071,-444.788,-355.722,-87.440,-275.685,-915.500,-946.240,1310.780
400,64592.359000,-191.388,232.727,-441.822,-356.744,-88.402,-272.712,-378.500,-1203.240,1099.780
401,64592.379000,-209.989,207.431,-422.054,-364.553,-92.201,-271.585,93.500,-1129.240,563.780
402,64592.407000,-196.283,194.277,-400.309,-355.677,-96.149,-273.706,445.500,-872.240,-96.220
403,64592.424000,-182.577,192.253,-383.506,-346.676,-109.769,-277.787,729.500,-604.240,-749.220
404,64592.444000,-161.040,206.419,-381.529,-331.613,-129.239,-289.845,977.500,-207.240,-1306.220
405,64592.467000,-106.218,226.656,-374.610,-328.442,-137.963,-298.751,1229.500,294.760,-1693.220
406,64592.493000,-41.606,246.893,-357.807,-297.665,-148.861,-318.971,1486.500,604.760,-1922.220
407,64592.516000,8.321,261.059,-346.934,-288.694,-149.900,-327.989,1781.500,639.760,-2004.220
408,64592.534000,53.354,257.012,-334.085,-250.019,-162.800,-351.301,1940.500,562.760,-2016.220
409,64592.553000,81.744,235.763,-328.154,-227.261,-169.766,-362.524,2211.500,294.760,-2010.220
410,64592.567000,99.365,210.466,-327.166,-184.663,-185.606,-384.917,2382.500,-53.240,-1961.220
411,64592.589000,100.344,193.265,-322.224,-137.319,-202.466,-398.533,2499.500,-352.240,-1930.220
412,64592.607000,106.218,173.028,-309.375,-107.868,-207.567,-402.001,2589.500,-528.240,-1913.220
413,64592.622000,109.155,147.731,-297.514,-66.533,-226.318,-406.649,2637.500,-685.240,-1921.220
414,64592.648000,106.218,132.553,-282.687,-31.254,-232.442,-407.266,2663.500,-764.240,-1979.220
415,64592.671000,95.449,120.411,-263.907,23.631,-244.550,-407.238,2673.500,-685.240,-2015.220
416,64592.705000,98.386,109.281,-237.220,48.051,-249.615,-402.742,2695.500,-461.240,-2046.220
417,64592.708000,105.239,93.091,-206.579,106.623,-252.092,-394.915,2703.500,-369.240,-2041.220
418,64592.729000,116.008,68.806,-176.927,165.114,-245.863,-387.097,2680.500,-224.240,-2029.220
419,64592.752000,131.671,47.557,-147.274,190.433,-242.229,-382.627,2596.500,-137.240,-1972.220
420,64592.777000,143.419,19.225,-127.506,246.699,-235.030,-360.004,2466.500,-266.240,-1893.220
421,64592.797000,158.103,0.000,-104.772,272.910,-233.346,-349.641,2352.500,-682.240,-1847.220
422,64592.823000,139.503,-20.237,-81.050,312.474,-229.870,-320.811,2221.500,-992.240,-1801.220
423,64592.826000,105.239,-30.356,-68.201,330.744,-225.218,-305.389,2096.500,-776.240,-1715.220
424,64592.847000,101.323,-43.510,-58.317,364.452,-213.945,-281.387,2012.500,-250.240,-1494.220
425,64592.870000,128.734,-65.771,-40.525,385.647,-204.480,-267.991,1954.500,70.760,-1257.220
426,64592.892000,149.293,-102.198,-28.664,414.436,-188.324,-244.892,1888.500,79.760,-1153.220
427,64592.914000,147.335,-127.494,-23.722,439.363,-177.938,-221.719,1744.500,-57.240,-963.220
428,64592.937000,130.692,-149.755,-15.815,444.948,-173.168,-208.041,1572.500,-69.240,-776.220
429,64592.951000,124.818,-168.980,-4.942,464.117,-165.625,-189.684,1365.500,93.760,-606.220
430,64592.979000,129.713,-183.146,3.954,467.875,-163.734,-181.877,1148.500,209.760,-470.220
431,64593.1000,131.671,-198.324,19.768,474.392,-150.264,-170.195,886.500,285.760,-338.220
432,64593.22000,138.524,-213.502,27.676,484.074,-150.359,-164.459,558.500,245.760,-217.220
433,64593.43000,141.461,-220.585,35.583,483.986,-144.556,-162.495,199.500,167.760,-110.220
434,64593.66000,145.377,-224.632,36.571,484.972,-143.597,-163.498,-170.500,127.760,-9.220
435,64593.83000,150.272,-218.561,33.606,478.184,-144.499,-166.331,-340.500,31.760,45.780
436,64593.108000,149.293,-209.455,28.664,469.681,-149.241,-180.941,-654.500,-20.240,178.780
437,64593.127000,150.272,-197.312,26.687,463.958,-152.083,-187.728,-944.500,15.760,346.780
438,64593.154000,157.124,-181.123,18.780,452.634,-159.696,-207.208,-1201.500,54.760,536.780
439,64593.157000,161.040,-163.921,8.896,445.093,-166.384,-219.865,-1455.500,49.760,741.780
440,64593.183000,161.040,-145.708,0.000,425.066,-175.847,-244.110,-1714.500,55.760,940.780
441,64593.201000,157.124,-130.530,-10.873,396.302,-187.162,-271.153,-1983.500,96.760,1122.780
442,64593.223000,156.145,-115.352,-26.687,375.089,-192.756,-285.538,-2244.500,142.760,1269.780
443,64593.251000,160.061,-90.055,-41.514,333.675,-207.822,-314.321,-2354.500,143.760,1334.780
444,64593.266000,151.250,-60.711,-65.236,315.423,-214.410,-329.742,-2508.500,184.760,1443.780
445,64593.283000,144.398,-34.403,-79.073,266.101,-222.634,-357.409,-2643.500,340.760,1544.780
446,64593.302000,149.293,-10.119,-96.865,244.792,-227.266,-366.871,-2815.500,513.760,1630.780
447,64593.324000,155.166,17.202,-123.552,183.615,-230.550,-390.396,-2935.500,548.760,1688.780
448,64593.352000,151.250,51.605,-159.135,154.459,-227.369,-402.682,-2938.500,548.760,1728.780
449,64593.369000,141.461,76.901,-189.776,94.969,-225.847,-413.444,-2885.500,604.760,1786.780
450,64593.389000,138.524,89.043,-197.683,32.404,-214.627,-421.211,-2912.500,756.760,1836.780
451,64593.434000,150.272,111.304,-205.591,8.001,-211.498,-425.705,-2928.500,819.760,1845.780
452,64593.453000,138.524,157.850,-256.988,-43.005,-195.556,-425.806,-2850.500,804.760,1850.780
453,64593.453000,129.713,179.099,-280.710,-74.414,-188.501,-423.289,-2686.500,859.760,1883.780
454,64593.482000,130.692,198.324,-296.525,-124.617,-164.834,-417.506,-2653.500,906.760,1917.780
455,64593.498000,99.365,226.656,-320.247,-152.260,-154.920,-408.169,-2577.500,781.760,1917.780
456,64593.519000,89.576,228.680,-319.259,-195.691,-132.288,-397.582,-2406.500,783.760,1935.780
457,64593.542000,91.533,232.727,-313.328,-235.338,-108.731,-380.173,-2359.500,716.760,1921.780
458,64593.558000,77.828,230.704,-301.467,-251.273,-100.861,-368.087,-2341.500,492.760,1849.780
459,64593.581000,61.185,235.763,-312.340,-284.087,-83.175,-346.853,-2352.500,280.760,1707.780
460,64593.596000,39.648,237.787,-333.097,-303.901,-73.331,-337.654,-2211.500,21.760,1545.780
461,64593.609000,22.027,231.715,-344.958,-327.881,-62.499,-314.600,-2098.500,-58.240,1468.780
462,64593.628000,11.258,228.680,-355.830,-337.910,-54.680,-304.587,-1847.500,-165.240,1320.780
463,64593.653000,-2.447,246.893,-396.355,-359.854,-46.765,-284.519,-1540.500,-253.240,1167.780
464,64593.681000,-27.901,243.858,-422.054,-365.994,-41.887,-271.618,-1070.500,-416.240,977.780
465,64593.703000,-51.396,238.798,-432.927,-377.823,-39.850,-267.474,-533.500,-555.240,741.780
466,64593.721000,-75.870,221.597,-432.927,-374.861,-42.779,-267.523,6.500,-569.240,435.780
467,64593.743000,-83.702,205.407,-421.066,-372.835,-42.792,-271.496,480.500,-399.240,55.780
468,64593.777000,-75.870,192.253,-404.263,-365.794,-48.651,-279.490,893.500,-151.240,-367.220
469,64593.796000,-50.417,186.182,-381.529,-354.804,-54.544,-289.522,1222.500,-25.240,-800.220
470,64593.809000,-19.090,187.194,-360.772,-333.908,-62.454,-305.633,1350.500,132.760,-998.220
471,64593.842000,12.237,193.265,-342.981,-330.554,-74.072,-323.399,1562.500,155.760,-1331.220
472,64593.846000,46.501,199.336,-330.131,-310.774,-81.982,-331.616,1739.500,44.760,-1582.220
473,64593.863000,71.954,201.360,-327.166,-279.961,-100.621,-349.859,1861.500,-208.240,-1757.220
474,64593.891000,92.512,199.336,-325.189,-259.072,-111.435,-363.998,1970.500,-544.240,-1893.220
475,64593.911000,102.302,195.289,-319.259,-229.261,-136.842,-377.294,2101.500,-854.240,-1988.220
476,64593.926000,94.470,184.158,-321.236,-206.432,-153.483,-387.523,2222.500,-985.240,-2044.220
477,64593.953000,92.512,175.051,-321.236,-160.047,-180.012,-397.173,2354.500,-968.240,-2086.220
478,64593.971000,89.576,167.968,-311.351,-139.288,-191.802,-403.433,2431.500,-934.240,-2110.220
479,64593.986000,78.807,159.874,-301.467,-89.121,-209.663,-410.206,2585.500,-773.240,-2115.220
480,64594.12000,74.891,151.779,-295.537,-35.119,-222.725,-415.084,2744.500,-505.240,-2102.220
481,64594.29000,77.828,135.589,-278.734,3.104,-225.972,-417.726,2889.500,-256.240,-2070.220
482,64594.47000,85.660,117.375,-245.127,66.644,-221.714,-417.870,2967.500,-44.240,-2046.220
483,64594.68000,97.407,93.091,-228.324,100.866,-224.931,-415.519,2945.500,-6.240,-2017.220
484,64594.84000,115.029,59.700,-206.579,148.620,-219.570,-408.494,2881.500,-159.240,-2063.220
485,64594.107000,131.671,46.545,-182.857,186.564,-217.026,-398.340,2773.500,-428.240,-2134.220
486,64594.124000,145.377,36.427,-162.100,236.995,-211.706,-376.596,2682.500,-772.240,-2220.220
487,64594.162000,151.250,27.320,-132.448,291.218,-206.429,-348.028,2617.500,-908.240,-2224.220
488,64594.176000,143.419,14.166,-124.541,320.251,-201.875,-332.795,2461.500,-945.240,-2168.220
489,64594.207000,161.040,9.107,-99.830,364.732,-195.539,-307.009,2354.500,-707.240,-1989.220
490,64594.221000,175.725,-3.036,-84.015,383.876,-187.029,-287.669,2339.500,-553.240,-1715.220
491,64594.238000,169.851,-22.261,-56.340,412.456,-167.014,-254.727,2328.500,-354.240,-1368.220
492,64594.261000,157.124,-60.711,-29.653,431.739,-162.369,-241.291,2266.500,92.760,-974.220
493,64594.288000,156.145,-80.949,-0.988,458.493,-149.103,-212.246,2181.500,530.760,-556.220
494,64594.297000,162.019,-111.304,28.664,474.494,-142.515,-180.050,1968.500,692.760,-153.220
495,64594.325000,175.725,-147.731,49.421,478.261,-143.527,-171.255,1611.500,439.760,151.780
496,64594.342000,166.914,-176.063,62.270,487.762,-146.535,-153.700,1410.500,234.760,259.780
497,64594.364000,141.461,-196.300,76.108,484.680,-149.421,-143.797,1000.500,-90.240,393.780
498,64594.384000,120.902,-202.372,85.992,491.480,-159.165,-136.031,579.500,-201.240,482.780
499,64594.403000,107.197,-200.348,90.934,489.533,-163.986,-134.022,173.500,-208.240,551.780
500,64594.424000,97.407,-201.360,88.958,486.747,-174.598,-136.913,-223.500,-200.240,603.780
501,64594.447000,89.576,-199.336,85.004,476.088,-178.366,-140.658,-612.500,-182.240,629.780
502,64594.467000,88.597,-194.277,78.085,468.689,-194.725,-156.259,-1007.500,-121.240,644.780
503,64594.485000,87.618,-179.099,68.201,445.543,-197.396,-173.567,-1392.500,-34.240,660.780
504,64594.501000,87.618,-160.885,59.305,444.921,-206.078,-189.297,-1778.500,81.760,679.780
505,64594.527000,92.512,-148.743,48.432,415.169,-210.609,-219.283,-1991.500,146.760,692.780
506,64594.544000,107.197,-132.553,35.583,399.903,-213.348,-239.684,-2414.500,229.760,710.780
507,64594.562000,116.987,-99.162,17.792,366.368,-222.676,-274.520,-2768.500,306.760,741.780
508,64594.596000,128.734,-69.818,-8.896,348.200,-223.451,-297.824,-3076.500,438.760,776.780
509,64594.629000,150.272,-41.486,-36.571,294.036,-220.013,-334.279,-3324.500,548.760,827.780
510,64594.644000,164.956,2.024,-81.050,246.695,-219.543,-367.898,-3379.500,644.760,903.780
511,64594.647000,164.956,44.522,-127.506,219.583,-220.246,-383.169,-3307.500,868.760,1013.780
512,64594.674000,174.746,61.723,-152.216,159.293,-204.187,-411.654,-3300.500,1099.760,1143.780
513,64594.692000,203.136,118.387,-243.151,134.934,-200.087,-419.104,-3189.500,1107.760,1280.780
514,64594.719000,202.157,127.494,-256.988,76.395,-191.800,-431.860,-3093.500,1051.760,1355.780
515,64594.734000,209.989,138.625,-262.919,41.175,-178.897,-438.143,-2986.500,1054.760,1510.780
516,64594.752000,209.989,163.921,-273.792,-17.581,-165.783,-441.057,-2979.500,996.760,1663.780
517,64594.772000,199.220,194.277,-286.641,-73.524,-148.831,-439.103,-2960.500,886.760,1799.780
518,64594.794000,197.262,205.407,-266.873,-99.148,-141.834,-431.766,-2894.500,741.760,1931.780
519,64594.812000,199.220,218.561,-239.197,-151.375,-125.897,-418.063,-2957.500,568.760,2084.780
520,64594.835000,197.262,241.834,-269.838,-183.963,-112.070,-407.658,-3138.500,199.760,2249.780
521,64594.853000,162.998,277.249,-339.027,-235.313,-107.762,-382.143,-3155.500,-557.240,2424.780
522,64594.874000,115.029,297.486,-327.166,-256.200,-102.754,-365.044,-2986.500,-912.240,2551.780
523,64594.892000,64.122,310.640,-305.421,-293.920,-96.639,-336.819,-2647.500,-1177.240,2591.780
524,64594.914000,0.489,315.700,-359.784,-319.978,-83.860,-307.824,-2351.500,-1019.240,2608.780
525,64594.937000,-48.459,319.747,-406.239,-348.642,-74.907,-295.514,-1908.500,-701.240,2468.780
526,64594.957000,-67.059,291.415,-403.274,-362.804,-56.418,-278.549,-1380.500,-300.240,2252.780
527,64594.979000,-72.933,263.083,-401.297,-368.842,-45.727,-274.517,-992.500,-38.240,1993.780
528,64594.997000,-83.702,253.976,-405.251,-374.120,-26.346,-262.633,-635.500,-114.240,1631.780
529,64595.19000,-110.134,239.810,-406.239,-378.096,-21.475,-261.584,-224.500,-350.240,1169.780
530,64595.42000,-136.566,216.538,-392.402,-376.140,-17.621,-263.592,189.500,-394.240,651.780
531,64595.64000,-138.524,193.265,-375.598,-378.055,-14.697,-267.499,378.500,-322.240,367.780
532,64595.82000,-116.987,174.040,-355.830,-367.109,-17.688,-276.549,709.500,-74.240,-221.220
533,64595.108000,-83.702,176.063,-342.981,-360.924,-27.403,-289.445,967.500,139.760,-811.220
534,64595.131000,-53.354,186.182,-341.992,-346.998,-35.258,-298.542,1219.500,276.760,-1327.220
535,64595.133000,-9.300,200.348,-331.120,-332.899,-45.039,-316.501,1458.500,422.760,-1717.220
536,64595.164000,41.606,220.585,-324.201,-323.822,-53.815,-327.480,1674.500,380.760,-1981.220
537,64595.179000,77.828,234.751,-318.270,-295.908,-76.297,-345.668,1886.500,129.760,-2152.220
538,64595.202000,95.449,234.751,-316.293,-282.884,-79.299,-361.646,2080.500,-182.240,-2244.220
539,64595.224000,103.281,224.632,-316.293,-246.146,-103.796,-379.987,2214.500,-394.240,-2277.220
540,64595.242000,112.092,217.549,-316.293,-205.547,-126.396,-396.430,2278.500,-462.240,-2284.220
541,64595.265000,112.092,209.455,-307.398,-176.007,-139.235,-400.876,2420.500,-501.240,-2294.220
542,64595.282000,112.092,195.289,-298.502,-130.525,-157.040,-419.380,2573.500,-394.240,-2289.220
543,64595.309000,130.692,174.040,-289.606,-105.932,-160.159,-425.718,2694.500,-294.240,-2278.220
544,64595.330000,148.314,147.731,-271.815,-50.848,-173.223,-436.522,2753.500,-371.240,-2293.220
545,64595.349000,158.103,127.494,-266.873,-19.509,-178.346,-436.086,2732.500,-575.240,-2271.220
546,64595.372000,161.040,111.304,-261.931,35.324,-190.457,-433.104,2724.500,-805.240,-2233.220
547,64595.391000,160.061,93.091,-240.185,65.678,-202.347,-428.705,2672.500,-913.240,-2183.220
548,64595.416000,157.124,80.949,-222.394,124.267,-206.759,-420.876,2613.500,-871.240,-2133.220
549,64595.433000,152.229,71.842,-198.672,178.778,-208.241,-405.103,2599.500,-809.240,-2096.220
550,64595.459000,161.040,56.664,-170.996,201.040,-204.588,-393.688,2584.500,-689.240,-2010.220
551,64595.483000,165.935,35.415,-142.332,252.492,-202.179,-372.943,2565.500,-628.240,-1905.220
552,64595.499000,161.040,14.166,-112.680,284.504,-196.680,-360.718,2470.500,-549.240,-1768.220
553,64595.517000,159.082,2.024,-87.969,330.994,-190.359,-337.921,2402.500,-435.240,-1575.220
554,64595.554000,154.187,-21.249,-53.375,339.444,-183.684,-321.343,2264.500,-303.240,-1333.220
555,64595.573000,161.040,-61.723,-33.606,380.972,-173.450,-296.494,2063.500,-195.240,-1132.220
556,64595.587000,160.061,-79.937,-27.676,406.905,-167.911,-272.348,1869.500,-168.240,-868.220
557,64595.590000,151.250,-103.209,-11.861,418.342,-159.323,-259.762,1785.500,-112.240,-598.220
558,64595.610000,146.356,-127.494,10.873,435.521,-153.701,-238.415,1577.500,37.760,-466.220
559,64595.636000,147.335,-144.696,27.676,445.193,-150.892,-233.667,1333.500,150.760,-238.220
560,64595.653000,143.419,-158.862,37.560,456.632,-151.984,-216.148,1059.500,195.760,-51.220
561,64595.681000,136.566,-173.028,48.432,455.515,-150.047,-209.239,748.500,235.760,106.780
562,64595.698000,130.692,-187.194,53.375,455.463,-150.050,-206.285,383.500,289.760,258.780
563,64595.721000,130.692,-196.300,57.328,449.644,-151.929,-208.149,-20.500,277.760,375.780
564,64595.756000,132.650,-196.300,54.363,448.762,-154.819,-212.067,-430.500,248.760,470.780
565,64595.760000,133.629,-191.241,49.421,438.338,-163.413,-226.640,-827.500,268.760,560.780
566,64595.786000,143.419,-190.229,41.514,431.732,-169.144,-237.345,-1026.500,279.760,607.780
567,64595.808000,155.166,-177.075,28.664,411.583,-172.807,-257.658,-1407.500,271.760,701.780
568,64595.826000,162.998,-152.791,10.873,399.157,-174.610,-273.187,-1730.500,321.760,848.780
569,64595.848000,162.998,-121.423,-9.884,368.374,-179.135,-300.202,-1965.500,521.760,1040.780
570,64595.863000,169.851,-98.150,-31.629,355.291,-183.815,-332.452,-2150.500,808.760,1235.780
571,64595.886000,182.577,-76.901,-49.421,313.528,-189.223,-346.474,-2348.500,1017.760,1428.780
572,64595.908000,203.136,-61.723,-72.154,269.097,-187.813,-379.160,-2553.500,971.760,1597.780
573,64595.928000,205.094,-3.036,-138.378,241.917,-192.391,-388.519,-2669.500,741.760,1746.780
574,64595.937000,187.472,19.225,-158.147,182.584,-192.796,-407.158,-2709.500,673.760,1878.780
575,64595.965000,191.388,34.403,-166.054,162.234,-191.630,-418.612,-2746.500,726.760,1946.780
576,64596.2000,185.514,64.759,-215.475,97.912,-187.157,-434.215,-2870.500,812.760,2043.780
577,64596.21000,161.040,94.103,-248.093,72.506,-184.988,-436.722,-2860.500,691.760,2073.780
578,64596.38000,145.377,101.186,-238.208,11.871,-174.755,-442.552,-2726.500,675.760,2082.780
579,64596.52000,155.166,119.399,-238.208,-44.052,-165.545,-437.636,-2748.500,775.760,2098.780
580,64596.79000,128.734,151.779,-292.571,-65.625,-154.705,-440.220,-2757.500,664.760,2055.780
581,64596.98000,101.323,158.862,-286.641,-123.689,-136.777,-429.369,-2576.500,657.760,1973.780
582,64596.111000,103.281,157.850,-280.710,-139.537,-128.902,-422.207,-2570.500,788.760,1908.780
583,64596.124000,104.260,169.992,-284.664,-190.822,-107.168,-409.511,-2625.500,757.760,1796.780
584,64596.152000,97.407,196.300,-300.479,-215.573,-94.379,-399.244,-2650.500,680.760,1737.780
585,64596.169000,83.702,218.561,-297.514,-253.252,-81.486,-376.934,-2580.500,450.760,1629.780
586,64596.187000,71.954,220.585,-289.606,-290.906,-63.753,-358.569,-2434.500,271.760,1524.780
587,64596.209000,43.564,231.715,-301.467,-300.044,-54.012,-344.636,-2265.500,178.760,1393.780
588,64596.237000,29.859,219.573,-327.166,-326.907,-45.086,-323.498,-2055.500,192.760,1269.780
589,64596.249000,36.711,209.455,-343.969,-342.806,-39.150,-312.394,-1858.500,141.760,1119.780
590,64596.268000,12.237,225.644,-370.656,-355.954,-26.475,-294.457,-1545.500,66.760,917.780
591,64596.296000,-21.048,220.585,-394.378,-364.000,-19.641,-285.462,-1141.500,250.760,756.780
592,64596.324000,-3.426,203.383,-400.309,-374.021,-8.919,-277.422,-760.500,366.760,535.780
593,64596.342000,10.279,208.443,-413.158,-379.070,-5.011,-270.446,-552.500,283.760,404.780
594,64596.374000,-8.321,209.455,-413.158,-372.168,-7.006,-272.534,-47.500,-100.240,132.780
595,64596.378000,-37.690,205.407,-400.309,-367.110,-11.881,-279.509,461.500,-293.240,-168.220
596,64596.401000,-42.585,200.348,-382.517,-364.061,-16.741,-283.495,891.500,-189.240,-490.220
597,64596.418000,-29.859,194.277,-359.784,-353.893,-26.487,-300.400,1247.500,19.760,-847.220
598,64596.443000,-2.447,195.289,-344.958,-347.875,-27.500,-308.381,1530.500,154.760,-1188.220
599,64596.466000,20.069,199.336,-331.120,-325.861,-39.283,-330.414,1783.500,171.760,-1489.220
600,64596.488000,45.522,206.419,-318.270,-308.990,-48.133,-339.562,1990.500,170.760,-1694.220
601,64596.506000,85.660,215.526,-306.409,-278.126,-60.961,-363.720,2081.500,133.760,-1763.220
602,64596.543000,122.860,212.490,-310.363,-243.312,-81.567,-385.970,2252.500,-126.240,-1862.220
603,64596.546000,139.503,199.336,-328.154,-227.385,-92.341,-396.084,2395.500,-474.240,-1919.220
604,64596.559000,151.250,194.277,-342.981,-176.013,-114.070,-413.703,2535.500,-729.240,-1906.220
605,64596.577000,156.145,190.229,-346.934,-155.263,-126.828,-418.978,2734.500,-836.240,-1833.220
606,64596.602000,155.166,182.134,-348.911,-103.035,-142.765,-432.681,2996.500,-808.240,-1704.220
607,64596.622000,158.103,166.957,-324.201,-80.355,-150.703,-438.980,3263.500,-650.240,-1570.220
608,64596.649000,162.998,149.755,-299.490,-18.525,-163.836,-443.996,3464.500,-481.240,-1438.220
609,64596.667000,169.851,139.636,-263.907,54.872,-171.278,-442.332,3610.500,-420.240,-1301.220
610,64596.704000,180.620,115.352,-222.394,80.244,-171.513,-438.843,3633.500,-464.240,-1238.220
611,64596.723000,176.704,93.091,-189.776,149.538,-182.802,-424.305,3602.500,-709.240,-1131.220
612,64596.741000,151.250,72.854,-153.205,178.764,-189.852,-413.985,3515.500,-916.240,-1068.220
613,64596.754000,131.671,46.545,-119.598,237.069,-199.119,-387.441,3321.500,-1022.240,-1025.220
614,64596.779000,120.902,16.190,-91.923,254.397,-200.263,-371.010,3099.500,-1114.240,-1058.220
615,64596.795000,105.239,-12.142,-65.236,307.705,-207.557,-339.458,2836.500,-1137.240,-1167.220
616,64596.812000,96.428,-41.486,-38.548,355.037,-205.124,-306.827,2520.500,-988.240,-1318.220
617,64596.834000,93.491,-53.628,-19.768,370.328,-199.479,-289.384,2191.500,-771.240,-1414.220
618,64596.857000,105.239,-70.830,-0.988,403.049,-189.166,-264.379,1862.500,-657.240,-1444.220
619,64596.879000,121.881,-99.162,12.849,409.559,-184.407,-247.764,1693.500,-709.240,-1438.220
620,64596.894000,131.671,-136.601,16.803,431.534,-173.995,-223.554,1313.500,-924.240,-1442.220
621,64596.917000,137.545,-151.779,14.826,443.033,-168.308,-212.935,1004.500,-1140.240,-1424.220
622,64596.939000,131.671,-154.814,4.942,456.278,-154.908,-194.480,797.500,-1110.240,-1340.220
623,64596.963000,126.776,-148.743,3.954,471.577,-144.423,-179.996,707.500,-729.240,-1169.220
624,64596.982000,134.608,-155.826,13.838,483.127,-138.733,-172.332,628.500,-178.240,-941.220
625,64597.2000,154.187,-179.099,25.699,490.736,-128.170,-165.587,494.500,238.760,-686.220
626,64597.24000,180.620,-196.300,27.676,484.776,-120.378,-164.507,288.500,344.760,-404.220
627,64597.39000,193.346,-210.466,28.664,484.758,-116.508,-165.495,11.500,248.760,-121.220
628,64597.62000,196.283,-218.561,29.653,489.658,-113.648,-167.554,-153.500,183.760,13.780
629,64597.91000,196.283,-218.561,28.664,485.989,-121.342,-177.325,-486.500,72.760,283.780
630,64597.107000,192.367,-216.538,25.699,478.535,-129.961,-193.919,-801.500,-14.240,521.780
631,64597.130000,187.472,-207.431,22.734,462.075,-137.543,-199.525,-1088.500,-87.240,730.780
632,64597.144000,164.956,-175.051,0.000,447.912,-151.899,-220.916,-1338.500,-95.240,922.780
633,64597.172000,153.208,-153.802,-11.861,434.518,-158.533,-234.453,-1555.500,6.760,1090.780
634,64597.199000,151.250,-133.565,-20.757,410.630,-171.828,-259.611,-1765.500,198.760,1237.780
635,64597.218000,153.208,-113.328,-33.606,400.180,-181.392,-272.213,-1972.500,383.760,1371.780
636,64597.232000,155.166,-94.103,-48.432,361.675,-193.583,-301.051,-2142.500,485.760,1476.780
637,64597.252000,151.250,-70.830,-66.224,339.456,-196.266,-315.421,-2210.500,520.760,1517.780
638,64597.266000,139.503,-52.617,-89.946,297.998,-204.560,-345.196,-2296.500,646.760,1576.780
639,64597.288000,140.482,-43.510,-97.853,256.450,-205.115,-373.994,-2340.500,876.760,1605.780
640,64597.308000,159.082,-35.415,-116.633,236.110,-204.917,-385.448,-2454.500,1129.760,1605.780
641,64597.328000,176.704,-11.130,-142.332,183.640,-193.769,-411.113,-2647.500,1118.760,1561.780
642,64597.351000,162.998,40.474,-185.822,151.497,-194.435,-418.419,-2725.500,903.760,1523.780
643,64597.369000,146.356,63.747,-186.811,98.891,-189.102,-433.246,-2642.500,887.760,1528.780
644,64597.396000,155.166,73.866,-177.915,72.452,-177.248,-437.714,-2724.500,1122.760,1559.780
645,64597.411000,168.872,105.233,-207.568,19.644,-161.279,-446.643,-2900.500,1212.760,1574.780
646,64597.428000,168.872,138.625,-249.081,-31.327,-151.142,-445.753,-2948.500,1138.760,1590.780
647,64597.453000,161.040,159.874,-251.058,-63.663,-138.268,-449.134,-2897.500,876.760,1646.780
648,64597.491000,164.956,167.968,-231.290,-111.916,-123.331,-438.453,-2834.500,695.760,1690.780
649,64597.509000,154.187,180.111,-249.081,-144.443,-112.404,-430.015,-2910.500,559.760,1676.780
650,64597.518000,135.587,198.324,-285.652,-193.795,-97.465,-412.423,-2989.500,326.760,1692.780
651,64597.536000,120.902,219.573,-303.444,-214.638,-93.423,-397.293,-2914.500,91.760,1729.780
652,64597.558000,103.281,230.704,-292.571,-253.313,-82.458,-372.994,-2734.500,-54.240,1751.780
653,64597.583000,82.723,229.692,-281.699,-290.066,-65.705,-349.721,-2616.500,-39.240,1706.780
654,64597.599000,72.933,231.715,-295.537,-315.785,-61.618,-335.489,-2575.500,-0.240,1591.780
655,64597.622000,68.038,233.739,-315.305,-334.024,-47.942,-306.633,-2469.500,-44.240,1532.780
656,64597.644000,49.438,241.834,-330.131,-349.984,-41.042,-292.576,-2275.500,-212.240,1438.780
657,64597.660000,23.006,237.787,-328.154,-374.942,-30.200,-269.505,-1984.500,-281.240,1335.780
658,64597.682000,16.153,245.881,-354.842,-383.084,-20.468,-256.574,-1703.500,-256.240,1180.780
659,64597.699000,13.216,256.000,-377.575,-391.251,-13.640,-240.687,-1263.500,-423.240,970.780
660,64597.717000,-24.964,248.917,-382.517,-404.119,-10.629,-233.571,-731.500,-522.240,719.780
661,64597.747000,-61.185,238.798,-387.459,-405.220,-6.756,-228.634,-236.500,-335.240,477.780
662,64597.769000,-72.933,222.609,-383.506,-403.202,-7.738,-231.622,237.500,-59.240,158.780
663,64597.778000,-60.207,200.348,-371.645,-395.262,-6.835,-238.655,444.500,56.760,-38.220
664,64597.801000,-41.606,191.241,-349.900,-393.061,-14.582,-248.529,801.500,158.760,-491.220
665,64597.827000,-29.859,193.265,-331.120,-387.024,-19.466,-255.521,1088.500,215.760,-932.220
666,64597.849000,-12.237,203.383,-314.317,-371.850,-32.154,-277.433,1334.500,297.760,-1303.220
667,64597.867000,8.321,216.538,-300.479,-364.835,-38.982,-283.456,1553.500,399.760,-1590.220
668,64597.887000,33.774,227.668,-292.571,-342.847,-49.799,-304.506,1735.500,454.760,-1778.220
669,64597.896000,68.038,242.846,-291.583,-317.800,-68.379,-328.554,1915.500,364.760,-1891.220
670,64597.923000,88.597,248.917,-296.525,-302.836,-75.271,-341.609,2076.500,199.760,-1931.220
671,64597.947000,110.134,243.858,-306.409,-269.036,-88.127,-365.818,2223.500,-5.240,-1917.220
672,64597.967000,135.587,238.798,-316.293,-252.131,-98.910,-375.949,2305.500,-147.240,-1900.220
673,64597.993000,145.377,224.632,-327.166,-213.419,-123.423,-395.310,2474.500,-457.240,-1849.220
674,64598.11000,152.229,209.455,-330.131,-186.772,-133.330,-403.646,2649.500,-692.240,-1816.220
675,64598.31000,151.250,199.336,-321.236,-139.314,-155.023,-421.196,2863.500,-813.240,-1811.220
676,64598.53000,140.482,186.182,-300.479,-83.224,-172.935,-431.027,3057.500,-705.240,-1796.220
677,64598.74000,138.524,162.909,-275.768,-45.972,-175.205,-434.637,3173.500,-495.240,-1757.220
678,64598.92000,146.356,141.660,-247.104,13.883,-184.449,-440.607,3217.500,-344.240,-1696.220
679,64598.114000,157.124,126.482,-223.382,35.375,-186.583,-438.032,3263.500,-340.240,-1626.220
680,64598.137000,156.145,105.233,-188.788,99.861,-190.079,-432.277,3251.500,-386.240,-1556.220
681,64598.154000,151.250,73.866,-151.228,134.975,-191.373,-426.006,3204.500,-409.240,-1524.220
682,64598.171000,143.419,43.510,-120.587,190.446,-190.930,-410.252,3052.500,-451.240,-1485.220
683,64598.197000,140.482,11.130,-97.853,210.596,-191.139,-387.966,2849.500,-537.240,-1480.220
684,64598.217000,134.608,-14.166,-92.911,263.175,-189.698,-375.116,2659.500,-716.240,-1514.220
685,64598.234000,131.671,-36.427,-67.212,306.687,-188.192,-347.338,2465.500,-862.240,-1586.220
686,64598.253000,128.734,-58.688,-39.537,328.915,-184.541,-333.953,2161.500,-885.240,-1617.220
687,64598.291000,138.524,-73.866,-30.641,370.426,-178.180,-306.146,1882.500,-897.240,-1560.220
688,64598.291000,135.587,-92.079,-39.537,383.891,-175.414,-294.574,1727.500,-775.240,-1453.220
689,64598.311000,127.755,-89.043,-31.629,410.706,-163.113,-268.483,1597.500,-635.240,-1243.220
690,64598.338000,137.545,-111.304,-5.931,417.302,-156.414,-257.778,1512.500,-278.240,-1136.220
691,64598.356000,156.145,-133.565,9.884,434.401,-140.149,-237.426,1323.500,-5.240,-873.220
692,64598.376000,173.767,-163.921,30.641,449.735,-133.534,-222.938,1115.500,123.760,-573.220
693,64598.396000,168.872,-187.194,41.514,462.368,-131.719,-219.226,854.500,171.760,-282.220
694,64598.415000,165.935,-198.324,51.398,463.165,-132.706,-208.410,528.500,180.760,-15.220
695,64598.442000,165.935,-204.395,56.340,459.269,-132.669,-209.326,160.500,173.760,228.780
696,64598.459000,164.956,-202.372,56.340,458.439,-141.363,-213.239,-214.500,110.760,433.780
697,64598.482000,162.019,-194.277,52.386,452.672,-141.304,-219.044,-575.500,45.760,620.780
698,64598.504000,161.040,-183.146,48.432,439.288,-154.712,-229.620,-752.500,25.760,713.780
699,64598.524000,150.272,-162.909,37.560,427.947,-164.262,-247.128,-1085.500,11.760,896.780
700,64598.544000,139.503,-139.636,27.676,415.514,-172.841,-258.712,-1381.500,101.760,1078.780
701,64598.571000,139.503,-117.375,16.803,386.715,-182.222,-284.772,-1663.500,347.760,1253.780
702,64598.585000,149.293,-106.245,13.838,367.459,-189.770,-298.204,-1916.500,633.760,1404.780
703,64598.607000,167.893,-92.079,-0.988,330.944,-196.169,-332.007,-2247.500,810.760,1535.780
704,64598.627000,173.767,-73.866,-24.710,309.660,-197.896,-344.426,-2592.500,773.760,1617.780
705,64598.647000,164.956,-46.545,-51.398,254.476,-205.099,-372.975,-2863.500,700.760,1657.780
706,64598.669000,153.208,-22.261,-78.085,197.245,-198.738,-403.472,-3043.500,825.760,1663.780
707,64598.693000,152.229,4.047,-105.761,170.013,-201.383,-410.863,-3097.500,963.760,1648.780
708,64598.714000,161.040,31.368,-139.367,110.555,-188.245,-429.515,-3149.500,1239.760,1577.780
709,64598.751000,179.641,50.593,-160.124,80.288,-174.415,-439.825,-3142.500,1427.760,1461.780
710,64598.755000,187.472,73.866,-174.950,27.444,-152.641,-449.745,-3192.500,1497.760,1338.780
711,64598.777000,188.451,109.281,-222.394,-10.720,-144.550,-453.017,-3266.500,1504.760,1227.780
712,64598.799000,190.409,138.625,-261.931,-65.817,-115.032,-450.108,-3225.500,1433.760,1166.780
713,64598.815000,195.304,156.838,-256.988,-102.188,-102.130,-446.526,-3141.500,1383.760,1114.780
714,64598.832000,206.073,188.206,-265.884,-150.556,-76.552,-434.871,-3130.500,1242.760,1058.780
715,64598.854000,202.157,226.656,-314.317,-196.047,-59.715,-415.381,-3019.500,910.760,1043.780
716,64598.872000,177.683,253.976,-342.981,-214.867,-46.008,-409.158,-2873.500,748.760,1042.780
717,64598.899000,145.377,257.012,-341.992,-251.592,-36.029,-383.908,-2561.500,559.760,1030.780
718,64598.919000,126.776,253.976,-329.143,-266.496,-32.037,-372.820,-2351.500,542.760,1002.780
719,64598.938000,110.134,256.000,-348.911,-289.497,-19.278,-350.770,-2265.500,454.760,951.780
720,64598.959000,92.512,268.142,-364.726,-311.277,-12.321,-339.564,-2118.500,56.760,918.780
721,64598.977000,68.038,262.071,-377.575,-335.177,-6.323,-318.475,-1878.500,-472.240,928.780
722,64598.994000,26.922,260.047,-389.436,-349.170,-6.215,-301.491,-1505.500,-884.240,869.780
723,64599.17000,-8.321,251.953,-408.216,-350.173,-12.983,-296.543,-1005.500,-1112.240,721.780
724,64599.34000,-50.417,230.704,-418.100,-358.147,-15.824,-286.555,-460.500,-1108.240,453.780
725,64599.65000,-76.849,215.526,-417.112,-360.060,-20.643,-286.515,-193.500,-791.240,282.780
726,64599.90000,-67.059,201.360,-402.286,-360.917,-22.563,-292.404,306.500,-231.240,-92.220
727,64599.105000,-27.901,193.265,-381.529,-350.101,-24.594,-294.562,740.500,189.760,-479.220
728,64599.122000,12.237,191.241,-357.807,-337.059,-27.595,-311.525,1109.500,368.760,-823.220
729,64599.144000,51.396,196.300,-340.015,-324.874,-36.388,-332.404,1407.500,396.760,-1057.220
730,64599.161000,80.765,206.419,-328.154,-309.097,-38.459,-338.587,1669.500,317.760,-1183.220
731,64599.182000,115.029,212.490,-310.363,-284.122,-47.364,-363.630,1918.500,154.760,-1215.220
732,64599.204000,137.545,210.466,-302.456,-273.281,-46.490,-368.745,2131.500,-63.240,-1189.220
733,64599.227000,144.398,203.383,-295.537,-243.429,-63.183,-388.943,2228.500,-140.240,-1159.220
734,64599.244000,150.272,193.265,-292.571,-216.801,-65.347,-400.241,2389.500,-250.240,-1091.220
735,64599.267000,162.998,181.123,-289.606,-181.157,-77.259,-418.577,2531.500,-406.240,-1037.220
736,64599.289000,161.040,165.945,-286.641,-161.369,-86.136,-426.793,2670.500,-614.240,-1010.220
737,64599.307000,150.272,156.838,-277.745,-119.853,-103.908,-442.273,2826.500,-698.240,-1020.220
738,64599.324000,148.314,138.625,-273.792,-64.838,-116.977,-449.138,2943.500,-707.240,-1038.220
739,64599.347000,141.461,124.459,-270.826,-38.243,-126.886,-454.519,3060.500,-749.240,-1068.220
740,64599.370000,138.524,102.198,-256.988,17.559,-136.103,-452.542,3104.500,-822.240,-1112.220
741,64599.395000,143.419,72.854,-248.093,49.938,-146.070,-453.104,3086.500,-993.240,-1210.220
742,64599.418000,139.503,54.640,-230.301,104.721,-162.056,-445.194,3074.500,-1090.240,-1272.220
743,64599.441000,136.566,33.391,-208.556,129.998,-165.200,-434.809,2972.500,-1215.240,-1407.220
744,64599.456000,137.545,17.202,-205.591,181.636,-179.235,-416.017,2843.500,-1279.240,-1509.220
745,64599.473000,136.566,6.071,-202.625,235.023,-187.492,-388.403,2761.500,-1291.240,-1566.220
746,64599.501000,141.461,2.024,-170.996,263.193,-191.633,-375.114,2702.500,-1226.240,-1603.220
747,64599.516000,143.419,1.012,-147.274,309.598,-193.060,-343.446,2687.500,-1186.240,-1604.220
748,64599.538000,147.335,-9.107,-110.703,330.831,-193.272,-327.086,2593.500,-1079.240,-1559.220
749,64599.571000,141.461,-20.237,-84.015,377.105,-187.931,-291.486,2502.500,-842.240,-1443.220
750,64599.590000,133.629,-36.427,-60.293,394.352,-178.432,-276.051,2392.500,-498.240,-1261.220
751,64599.603000,145.377,-50.593,-29.653,424.935,-169.079,-240.178,2345.500,-381.240,-1151.220
752,64599.616000,143.419,-95.115,35.583,451.672,-157.751,-209.162,2204.500,-209.240,-942.220
753,64599.638000,138.524,-121.423,60.293,462.175,-155.927,-195.568,2017.500,54.760,-683.220
754,64599.661000,144.398,-147.731,80.062,478.236,-146.432,-168.298,1783.500,305.760,-418.220
755,64599.683000,151.250,-172.016,99.830,479.924,-141.625,-155.536,1476.500,343.760,-183.220
756,64599.703000,140.482,-193.265,116.633,492.350,-141.758,-139.020,1120.500,209.760,22.780
757,64599.720000,125.797,-202.372,132.448,493.269,-146.609,-133.124,710.500,168.760,198.780
758,64599.741000,122.860,-208.443,133.436,488.316,-145.600,-130.084,285.500,279.760,333.780
759,64599.761000,126.776,-211.478,129.483,484.576,-149.427,-137.889,-163.500,408.760,453.780
760,64599.784000,132.650,-206.419,123.552,486.673,-155.244,-142.841,-387.500,435.760,502.780
761,64599.806000,137.545,-198.324,117.622,475.244,-160.927,-157.399,-834.500,415.760,604.780
762,64599.831000,139.503,-187.194,104.772,465.771,-162.756,-173.965,-1287.500,351.760,700.780
763,64599.853000,136.566,-164.933,91.923,444.870,-174.140,-203.116,-1730.500,332.760,800.780
764,64599.868000,143.419,-144.696,80.062,437.363,-176.955,-219.715,-2165.500,442.760,909.780
765,64599.886000,163.977,-120.411,68.201,403.879,-186.279,-257.506,-2621.500,550.760,998.780
766,64599.907000,177.683,-89.043,45.467,378.951,-192.794,-282.653,-3070.500,521.760,1051.780
767,64599.933000,174.746,-52.617,13.838,333.715,-195.237,-323.197,-3427.500,460.760,1104.780
768,64599.947000,165.935,-9.107,-27.676,275.741,-197.566,-362.531,-3562.500,496.760,1168.780
769,64599.995000,168.872,16.190,-64.247,247.695,-201.161,-378.766,-3706.500,711.760,1198.780
770,64599.995000,181.598,36.427,-103.784,183.587,-187.964,-411.119,-3790.500,950.760,1219.780
771,64600.9000,194.325,65.771,-149.251,152.509,-186.698,-424.353,-3834.500,1061.760,1197.780
772,64600.32000,196.283,102.198,-179.892,85.206,-173.490,-441.882,-3788.500,1054.760,1182.780
773,64600.53000,196.283,128.506,-193.730,47.077,-163.462,-448.110,-3712.500,1108.760,1189.780
774,64600.71000,205.094,156.838,-225.359,-18.538,-149.318,-450.904,-3739.500,1147.760,1203.780
775,64600.93000,210.967,192.253,-273.792,-76.568,-127.516,-443.996,-3658.500,942.760,1221.780
776,64600.113000,197.262,217.549,-275.768,-108.998,-121.423,-438.507,-3439.500,842.760,1271.780
777,64600.137000,195.304,237.787,-262.919,-165.262,-99.650,-420.801,-3381.500,896.760,1303.780
778,64600.152000,201.178,258.024,-283.676,-199.780,-88.707,-410.359,-3423.500,950.760,1387.780
779,64600.168000,195.304,291.415,-333.097,-246.397,-68.966,-383.961,-3500.500,683.760,1486.780
780,64600.199000,167.893,322.783,-336.062,-274.091,-62.926,-369.696,-3252.500,266.760,1595.780
781,64600.217000,136.566,328.854,-323.212,-310.012,-47.158,-337.577,-2934.500,31.760,1690.780
782,64600.236000,103.281,323.794,-341.992,-344.877,-34.299,-308.426,-2692.500,-138.240,1715.780
783,64600.265000,75.870,328.854,-390.425,-353.996,-30.365,-292.518,-2362.500,-529.240,1680.780
784,64600.280000,33.774,322.783,-399.320,-372.131,-18.619,-268.584,-1890.500,-955.240,1576.780
785,64600.297000,-23.985,302.545,-400.309,-387.034,-14.627,-257.496,-1412.500,-1162.240,1361.780
786,64600.315000,-88.597,274.213,-407.228,-391.172,-16.540,-243.638,-1155.500,-1189.240,1190.780
787,64600.335000,-134.608,234.751,-410.193,-391.233,-17.511,-239.698,-655.500,-1067.240,701.780
788,64600.356000,-157.124,214.514,-398.332,-391.214,-21.382,-238.709,-161.500,-702.240,69.780
789,64600.385000,-141.461,222.609,-382.517,-393.100,-29.103,-238.667,285.500,-194.240,-547.220
790,64600.398000,-106.218,231.715,-374.610,-388.907,-38.802,-249.559,719.500,130.760,-1079.220
791,64600.421000,-61.185,243.858,-360.772,-375.819,-54.383,-262.570,1100.500,351.760,-1503.220
792,64600.438000,-13.216,264.095,-348.911,-368.743,-60.240,-272.533,1442.500,459.760,-1791.220
793,64600.461000,23.006,285.344,-341.004,-346.651,-72.987,-298.504,1751.500,511.760,-1944.220
794,64600.478000,68.038,302.545,-338.039,-329.703,-82.800,-311.591,2079.500,453.760,-1967.220
795,64600.501000,113.071,307.605,-330.131,-298.760,-98.528,-338.700,2248.500,357.760,-1940.220
796,64600.523000,132.650,299.510,-334.085,-274.028,-103.574,-351.930,2553.500,117.760,-1815.220
797,64600.551000,148.314,293.439,-332.108,-241.120,-120.287,-379.073,2852.500,-41.240,-1660.220
798,64600.568000,159.082,276.237,-327.166,-180.901,-133.383,-403.750,3144.500,-129.240,-1510.220
799,64600.585000,161.040,256.000,-314.317,-157.192,-135.520,-415.980,3414.500,-102.240,-1386.220
800,64600.605000,170.830,233.739,-297.514,-100.031,-142.788,-436.672,3647.500,-90.240,-1276.220
801,64600.626000,182.577,204.395,-273.792,-62.717,-147.958,-442.248,3800.500,-195.240,-1186.220
802,64600.643000,182.577,180.111,-240.185,1.025,-154.336,-448.291,3876.500,-317.240,-1114.220
803,64600.666000,172.788,157.850,-217.452,34.311,-156.573,-448.877,3899.500,-347.240,-1050.220
804,64600.691000,168.872,124.459,-183.846,99.759,-162.015,-441.169,3825.500,-405.240,-1013.220
805,64600.708000,173.767,83.984,-157.158,158.236,-167.402,-426.446,3605.500,-618.240,-960.220
806,64600.726000,177.683,54.640,-143.320,191.334,-177.393,-412.253,3345.500,-1098.240,-971.220
807,64600.740000,158.103,35.415,-117.622,245.762,-194.366,-383.662,3108.500,-1549.240,-1050.220
808,64600.767000,127.755,18.213,-85.992,263.152,-202.282,-367.225,2825.500,-1679.240,-1146.220
809,64600.789000,106.218,-8.095,-50.409,307.620,-211.433,-332.561,2453.500,-1544.240,-1232.220
810,64600.807000,98.386,-38.451,-42.502,334.715,-212.667,-315.318,2139.500,-1442.240,-1343.220
811,64600.827000,102.302,-54.640,-37.560,364.468,-212.008,-283.359,1922.500,-1424.240,-1420.220
812,64600.848000,124.818,-97.138,-0.988,382.792,-213.160,-267.930,1785.500,-1408.240,-1444.220
813,64600.868000,114.050,-101.186,1.977,410.578,-205.708,-238.897,1555.500,-1315.240,-1460.220
814,64600.894000,107.197,-111.304,2.965,437.359,-197.281,-208.863,1454.500,-971.240,-1384.220
815,64600.915000,130.692,-128.506,17.792,440.968,-186.687,-197.125,1432.500,-349.240,-1205.220
816,64600.932000,145.377,-144.696,37.560,463.982,-175.312,-176.872,1447.500,217.760,-975.220
817,64600.954000,153.208,-168.980,58.317,473.530,-164.767,-169.178,1376.500,604.760,-691.220
818,64600.972000,158.103,-199.336,75.120,485.858,-152.322,-153.659,1176.500,769.760,-415.220
819,64600.997000,155.166,-222.609,85.992,480.791,-146.480,-146.685,845.500,704.760,-193.220
820,64601.14000,150.272,-231.715,90.934,486.558,-144.603,-141.867,425.500,590.760,-5.220
821,64601.42000,144.398,-228.680,92.911,486.582,-139.763,-145.811,202.500,541.760,75.780
822,64601.75000,136.566,-212.490,90.934,482.755,-139.722,-150.666,-237.500,489.760,216.780
823,64601.87000,133.629,-193.265,90.934,475.196,-142.539,-164.311,-639.500,506.760,329.780
824,64601.109000,130.692,-169.992,87.969,472.460,-145.405,-174.104,-1018.500,587.760,413.780
825,64601.132000,130.692,-156.838,76.108,459.316,-149.121,-203.401,-1395.500,725.760,487.780
826,64601.141000,140.482,-142.672,66.224,446.811,-144.154,-217.952,-1840.500,875.760,551.780
827,64601.158000,152.229,-122.435,56.340,423.031,-142.925,-256.911,-2302.500,895.760,577.780
828,64601.181000,161.040,-95.115,27.676,386.584,-141.577,-298.599,-2731.500,798.760,583.780
829,64601.201000,159.082,-56.664,-12.849,369.300,-141.399,-316.998,-2988.500,765.760,591.780
830,64601.222000,162.019,-30.356,-44.479,324.989,-138.046,-357.565,-3051.500,910.760,600.780
831,64601.242000,186.493,-6.071,-77.097,295.927,-133.891,-375.760,-3131.500,1259.760,626.780
832,64601.263000,206.073,10.119,-110.703,245.500,-115.013,-410.331,-3084.500,1491.760,612.780
833,64601.286000,230.547,11.130,-135.413,227.114,-109.025,-424.779,-3089.500,1590.760,597.780
834,64601.309000,251.105,34.403,-166.054,167.628,-83.305,-448.368,-3194.500,1503.760,604.780
835,64601.348000,256.000,64.759,-200.649,148.160,-77.314,-456.891,-3259.500,1306.760,677.780
836,64601.362000,252.084,84.996,-233.266,91.508,-63.242,-468.703,-3233.500,1138.760,781.780
837,64601.376000,261.874,82.972,-226.347,32.699,-46.259,-470.636,-3249.500,1000.760,873.780
838,64601.396000,274.600,109.281,-217.452,6.244,-42.149,-470.172,-3312.500,913.760,915.780
839,64601.418000,264.811,157.850,-252.046,-61.517,-29.934,-461.112,-3462.500,680.760,1036.780
840,64601.436000,242.294,180.111,-278.734,-85.054,-25.852,-459.716,-3447.500,305.760,1221.780
841,64601.453000,230.547,186.182,-271.815,-141.148,-22.459,-441.992,-3349.500,-20.240,1396.780
842,64601.470000,205.094,203.383,-259.954,-167.688,-24.162,-433.645,-3294.500,-269.240,1520.780
843,64601.491000,169.851,223.621,-276.757,-209.244,-22.846,-407.315,-3240.500,-440.240,1579.780
844,64601.508000,142.440,230.704,-290.595,-258.653,-20.493,-379.864,-3146.500,-671.240,1600.780
845,64601.527000,111.113,249.929,-306.409,-283.384,-17.382,-365.647,-2972.500,-974.240,1593.780
846,64601.541000,69.017,260.047,-301.467,-315.215,-17.126,-335.551,-2713.500,-1075.240,1565.780
847,64601.573000,34.753,257.012,-289.606,-325.172,-20.918,-323.557,-2576.500,-1041.240,1524.780
848,64601.582000,5.384,256.000,-316.293,-352.155,-17.806,-292.565,-2281.500,-934.240,1386.780
849,64601.609000,-31.816,270.166,-364.726,-367.032,-12.845,-283.447,-1799.500,-786.240,1161.780
850,64601.632000,-66.080,270.166,-398.332,-377.060,-8.898,-271.461,-1147.500,-429.240,921.780
851,64601.663000,-59.228,260.047,-412.170,-380.223,0.795,-263.541,-513.500,22.760,717.780
852,64601.672000,-27.901,254.988,-414.147,-380.181,3.701,-267.483,70.500,220.760,501.780
853,64601.697000,-12.237,246.893,-432.927,-370.336,8.455,-273.569,656.500,133.760,223.780
854,64601.711000,-9.300,224.632,-436.880,-367.219,5.535,-282.481,1168.500,95.760,-107.220
855,64601.753000,6.363,213.502,-413.158,-354.247,6.401,-297.479,1560.500,103.760,-444.220
856,64601.765000,24.964,210.466,-392.402,-344.195,7.296,-313.409,1730.500,91.760,-598.220
857,64601.786000,51.396,212.490,-377.575,-323.185,-5.448,-333.455,2042.500,9.760,-877.220
858,64601.800000,72.933,212.490,-359.784,-301.040,-18.192,-362.381,2320.500,-180.240,-1141.220
859,64601.822000,93.491,214.514,-350.888,-272.438,-24.244,-372.724,2540.500,-402.240,-1406.220
860,64601.845000,112.092,212.490,-342.981,-233.629,-51.656,-396.021,2723.500,-665.240,-1683.220
861,64601.868000,127.755,206.419,-334.085,-207.883,-64.453,-407.291,2872.500,-884.240,-1962.220
862,64601.875000,132.650,207.431,-317.282,-157.393,-91.007,-427.842,3029.500,-934.240,-2192.220
863,64601.902000,129.713,203.383,-299.490,-134.609,-100.875,-439.062,3132.500,-773.240,-2329.220
864,64601.924000,155.166,193.265,-275.768,-74.605,-118.823,-448.963,3164.500,-720.240,-2416.220
865,64601.947000,193.346,181.123,-246.116,-41.256,-127.832,-449.543,3159.500,-853.240,-2426.220
866,64601.970000,205.094,165.945,-240.185,20.611,-152.577,-450.608,3115.500,-1163.240,-2395.220
867,64601.988000,204.115,144.696,-225.359,81.273,-169.584,-442.802,3023.500,-1388.240,-2302.220
868,64602.6000,197.262,120.411,-208.556,108.639,-179.514,-436.383,2893.500,-1413.240,-2182.220
869,64602.31000,200.199,100.174,-193.730,164.156,-187.778,-418.651,2788.500,-1418.240,-2044.220
870,64602.60000,213.904,81.960,-171.985,198.284,-197.776,-407.430,2713.500,-1533.240,-1922.220
871,64602.75000,211.946,66.783,-148.263,253.558,-206.054,-375.911,2674.500,-1577.240,-1777.220
872,64602.88000,189.430,48.569,-122.564,276.818,-210.152,-361.551,2616.500,-1319.240,-1592.220
873,64602.111000,145.377,4.047,-71.166,315.388,-214.412,-327.772,2583.500,-1104.240,-1480.220
874,64602.143000,129.713,-18.213,-44.479,359.807,-201.303,-301.993,2533.500,-614.240,-1273.220
875,64602.172000,137.545,-61.723,-13.838,384.866,-197.685,-282.752,2470.500,-131.240,-1074.220
876,64602.175000,160.061,-104.221,10.873,408.607,-185.365,-248.730,2323.500,53.760,-958.220
877,64602.202000,144.398,-132.553,25.699,424.003,-181.650,-236.209,2146.500,-140.240,-907.220
878,64602.206000,124.818,-146.719,29.653,449.796,-170.311,-207.145,1899.500,-225.240,-826.220
879,64602.228000,120.902,-157.850,39.537,454.358,-164.567,-191.481,1660.500,-52.240,-661.220
880,64602.251000,131.671,-169.992,53.375,469.597,-156.989,-172.071,1423.500,152.760,-440.220
881,64602.278000,138.524,-186.182,72.154,478.117,-152.246,-158.445,1124.500,331.760,-190.220
882,64602.293000,147.335,-197.312,82.039,485.805,-148.453,-152.679,949.500,389.760,-72.220
883,64602.311000,138.524,-205.407,84.015,488.663,-149.452,-147.806,580.500,358.760,120.780
884,64602.338000,128.734,-212.490,85.004,480.801,-153.255,-143.724,188.500,284.760,255.780
885,64602.367000,124.818,-219.573,81.050,478.075,-157.088,-153.516,-222.500,266.760,358.780
886,64602.388000,119.924,-213.502,73.143,475.269,-158.022,-160.357,-647.500,270.760,424.780
887,64602.398000,118.945,-199.336,63.259,465.814,-163.722,-175.934,-1065.500,330.760,485.780
888,64602.421000,125.797,-185.170,55.351,461.182,-165.598,-189.632,-1460.500,403.760,540.780
889,64602.443000,136.566,-165.945,41.514,441.232,-172.153,-219.789,-1843.500,419.760,594.780
890,64602.463000,144.398,-138.625,29.653,417.463,-175.763,-256.774,-2194.500,373.760,663.780
891,64602.486000,144.398,-106.245,11.861,397.174,-175.562,-271.182,-2357.500,356.760,703.780
892,64602.501000,140.482,-76.901,-9.884,356.788,-180.955,-307.870,-2618.500,417.760,795.780
893,64602.515000,154.187,-49.581,-32.618,345.428,-184.699,-327.354,-2852.500,560.760,880.780
894,64602.557000,162.019,-17.202,-67.212,299.005,-183.273,-358.037,-3007.500,620.760,959.780
895,64602.571000,166.914,5.059,-89.946,264.126,-184.869,-376.123,-3050.500,737.760,1019.780
896,64602.600000,185.514,22.261,-109.714,215.633,-180.528,-401.850,-3133.500,961.760,1085.780
897,64602.613000,206.073,53.628,-150.239,159.267,-169.344,-428.431,-3241.500,1062.760,1151.780
898,64602.631000,210.967,93.091,-181.869,134.924,-163.307,-437.851,-3225.500,1065.760,1230.780
899,64602.646000,208.031,121.423,-208.556,66.496,-149.130,-447.486,-3171.500,1064.760,1347.780
900,64602.668000,220.757,131.542,-205.591,41.088,-141.153,-452.953,-3162.500,1077.760,1416.780
901,64602.693000,230.547,162.909,-210.533,-21.626,-125.103,-454.815,-3214.500,1043.760,1549.780
902,64602.716000,221.736,196.300,-238.208,-54.049,-116.105,-451.299,-3266.500,950.760,1672.780
903,64602.725000,208.031,221.597,-271.815,-113.991,-102.994,-442.378,-3304.500,788.760,1804.780
904,64602.744000,198.241,230.704,-286.641,-166.375,-81.258,-422.772,-3224.500,526.760,1933.780
905,64602.767000,189.430,242.846,-263.907,-189.055,-75.256,-415.487,-3212.500,333.760,2025.780
906,64602.789000,168.872,272.190,-292.571,-242.511,-62.227,-386.007,-3227.500,11.760,2074.780
907,64602.812000,126.776,295.462,-346.934,-264.272,-59.141,-373.812,-3048.500,-418.240,2092.780
908,64602.830000,83.702,317.723,-392.402,-299.119,-48.217,-344.659,-2854.500,-638.240,2078.780
909,64602.843000,30.837,326.830,-387.459,-320.006,-41.274,-328.547,-2356.500,-865.240,1997.780
910,64602.869000,-28.880,316.711,-412.170,-344.955,-33.335,-304.488,-1930.500,-924.240,1917.780
911,64602.891000,-84.681,310.640,-471.475,-348.921,-35.238,-300.477,-1441.500,-1049.240,1698.780
912,64602.911000,-137.545,294.451,-480.371,-355.079,-28.426,-287.579,-810.500,-1077.240,1287.780
913,64602.945000,-168.872,275.225,-480.371,-361.000,-34.183,-281.560,-184.500,-999.240,795.780
914,64602.948000,-174.746,252.964,-479.382,-365.788,-36.068,-286.396,396.500,-872.240,194.780
915,64602.975000,-167.893,221.597,-447.753,-355.697,-50.659,-296.402,867.500,-678.240,-474.220
916,64602.992000,-149.293,198.324,-424.031,-342.863,-55.607,-300.561,1201.500,-408.240,-1151.220
917,64603.17000,-116.008,198.324,-406.239,-325.757,-73.154,-318.563,1344.500,-267.240,-1477.220
918,64603.37000,-76.849,205.407,-386.471,-315.735,-85.813,-325.617,1593.500,26.760,-2038.220
919,64603.75000,-30.837,215.526,-376.587,-282.860,-108.335,-347.830,1803.500,233.760,-2495.220
920,64603.96000,19.090,238.798,-372.633,-243.162,-124.146,-372.141,2058.500,286.760,-2842.220
921,64603.103000,67.059,263.083,-359.784,-222.309,-133.027,-385.297,2392.500,234.760,-3042.220
922,64603.122000,112.092,276.237,-342.981,-165.085,-150.939,-404.009,2736.500,106.760,-3080.220
923,64603.145000,152.229,269.154,-327.166,-135.433,-162.804,-415.349,3020.500,-111.240,-3005.220
924,64603.158000,165.935,256.000,-312.340,-72.531,-171.101,-428.265,3224.500,-184.240,-2865.220
925,64603.176000,152.229,238.798,-286.641,-44.059,-174.257,-432.703,3359.500,125.760,-2649.220
926,64603.190000,143.419,214.514,-249.081,24.547,-170.034,-442.782,3388.500,371.760,-2513.220
927,64603.217000,150.272,180.111,-224.371,92.899,-155.178,-444.009,3408.500,796.760,-2253.220
928,64603.240000,190.409,137.613,-181.869,125.031,-143.866,-441.637,3328.500,757.760,-2056.220
929,64603.259000,242.294,94.103,-157.158,186.406,-139.602,-429.930,3157.500,11.760,-1946.220
930,64603.282000,240.337,67.794,-140.355,216.568,-143.759,-418.645,2995.500,-795.240,-1899.220
931,64603.305000,204.115,68.806,-125.529,269.883,-144.277,-391.039,2837.500,-1082.240,-1776.220
932,64603.325000,181.598,62.735,-106.749,297.099,-145.504,-380.690,2708.500,-979.240,-1583.220
933,64603.345000,182.577,36.427,-87.969,339.520,-139.156,-348.961,2585.500,-830.240,-1339.220
934,64603.383000,168.872,-11.130,-40.525,358.795,-137.415,-333.553,2513.500,-749.240,-1076.220
935,64603.391000,156.145,-39.462,-15.815,394.427,-133.905,-303.669,2379.500,-604.240,-935.220
936,64603.413000,139.503,-70.830,6.919,423.098,-131.306,-266.770,2214.500,-434.240,-679.220
937,64603.433000,133.629,-101.186,22.734,431.704,-128.494,-257.081,2007.500,-268.240,-484.220
938,64603.461000,127.755,-127.494,33.606,453.681,-125.825,-228.924,1777.500,-179.240,-361.220
939,64603.481000,114.050,-146.719,42.502,462.211,-125.920,-213.324,1527.500,-149.240,-275.220
940,64603.493000,102.302,-165.945,49.421,473.570,-118.305,-195.813,1259.500,-71.240,-234.220
941,64603.510000,96.428,-179.099,52.386,479.321,-120.301,-188.037,983.500,101.760,-232.220
942,64603.527000,105.239,-196.300,54.363,491.753,-111.722,-176.454,703.500,331.760,-238.220
943,64603.550000,128.734,-207.431,55.351,493.527,-104.975,-169.602,542.500,413.760,-241.220
944,64603.572000,140.482,-206.419,54.363,488.608,-102.028,-169.518,206.500,436.760,-230.220
945,64603.590000,152.229,-203.383,51.398,494.546,-96.270,-176.521,-152.500,404.760,-156.220
946,64603.612000,171.809,-197.312,41.514,487.757,-95.237,-180.340,-530.500,368.760,-23.220
947,64603.635000,184.535,-187.194,33.606,479.244,-93.204,-197.912,-894.500,288.760,160.780
948,64603.652000,194.325,-171.004,31.629,478.579,-98.985,-212.660,-1241.500,209.760,399.780
949,64603.670000,198.241,-147.731,28.664,450.697,-105.475,-236.771,-1586.500,137.760,659.780
950,64603.700000,198.241,-123.447,21.745,428.784,-120.723,-261.961,-1912.500,77.760,924.780
951,64603.721000,195.304,-102.198,11.861,412.505,-123.456,-280.374,-2230.500,96.760,1188.780
952,64603.743000,197.262,-86.008,0.988,378.072,-141.481,-315.184,-2397.500,123.760,1302.780
953,64603.763000,192.367,-56.664,-16.803,356.919,-151.911,-330.549,-2701.500,169.760,1504.780
954,64603.778000,185.514,-25.296,-35.583,313.565,-163.087,-362.256,-2931.500,274.760,1660.780
955,64603.801000,185.514,-10.119,-61.282,275.734,-168.529,-377.332,-3114.500,433.760,1765.780
956,64603.821000,181.598,14.166,-87.969,215.579,-172.788,-402.843,-3262.500,539.760,1811.780
957,64603.843000,182.577,46.545,-115.645,192.537,-173.518,-427.045,-3362.500,648.760,1828.780
958,64603.866000,174.746,74.877,-154.193,124.215,-170.949,-436.669,-3379.500,734.760,1806.780
959,64603.893000,164.956,96.126,-185.822,55.735,-160.647,-441.376,-3291.500,851.760,1744.780
960,64603.907000,160.061,118.387,-214.486,27.479,-156.510,-449.741,-3230.500,1006.760,1670.780
961,64603.926000,162.998,138.625,-223.382,-32.378,-137.587,-448.704,-3225.500,1070.760,1637.780
962,64603.946000,151.250,176.063,-246.116,-66.706,-126.633,-449.094,-3196.500,1178.760,1538.780
963,64603.963000,153.208,190.229,-272.803,-120.866,-103.901,-440.287,-3147.500,1257.760,1441.780
964,64603.992000,176.704,203.383,-292.571,-139.676,-93.097,-433.075,-3161.500,1042.760,1365.780
965,64604.8000,186.493,230.704,-293.560,-193.039,-73.288,-412.465,-3092.500,641.760,1312.780
966,64604.40000,171.809,259.036,-290.595,-234.640,-61.328,-389.101,-2975.500,486.760,1314.780
967,64604.42000,156.145,284.332,-295.537,-262.283,-51.414,-379.763,-2751.500,569.760,1374.780
968,64604.68000,159.082,280.285,-290.595,-296.171,-30.820,-354.576,-2588.500,680.760,1483.780
969,64604.91000,166.914,279.273,-304.432,-313.198,-16.173,-339.525,-2467.500,617.760,1630.780
970,64604.113000,165.935,291.415,-324.201,-339.179,-0.485,-316.442,-2377.500,202.760,1693.780
971,64604.132000,136.566,297.486,-338.039,-347.293,2.473,-301.535,-2110.500,-469.240,1781.780
972,64604.165000,92.512,293.439,-357.807,-366.292,7.459,-280.531,-1795.500,-1223.240,1746.780
973,64604.178000,20.069,289.391,-389.436,-373.323,4.607,-268.590,-1321.500,-1932.240,1514.780
974,64604.211000,-97.407,257.012,-400.309,-384.198,3.731,-261.505,-749.500,-1966.240,1087.780
975,64604.212000,-196.283,223.621,-405.251,-379.216,-7.923,-260.595,-221.500,-1174.240,509.780
976,64604.237000,-219.778,204.395,-401.297,-377.260,-6.005,-261.617,239.500,-214.240,-248.220
977,64604.254000,-175.725,203.383,-400.309,-376.019,-17.614,-270.485,704.500,292.760,-1041.220
978,64604.277000,-113.071,220.585,-392.402,-373.974,-23.434,-272.483,928.500,396.760,-1678.220
979,64604.295000,-53.354,256.000,-379.552,-354.851,-38.092,-295.447,1351.500,561.760,-1898.220
980,64604.317000,1.468,292.427,-372.633,-343.556,-54.614,-317.285,1748.500,733.760,-2166.220
981,64604.336000,65.101,322.783,-369.668,-317.873,-54.832,-331.522,2162.500,789.760,-2260.220
982,64604.358000,130.692,336.949,-350.888,-281.104,-65.776,-358.740,2610.500,622.760,-2218.220
983,64604.376000,162.998,323.794,-330.131,-250.352,-77.644,-376.990,2980.500,373.760,-2033.220
984,64604.403000,177.683,294.451,-321.236,-204.795,-82.862,-406.339,3264.500,239.760,-1830.220
985,64604.421000,200.199,268.142,-303.444,-177.102,-90.837,-419.618,3466.500,64.760,-1668.220
986,64604.441000,212.925,242.846,-292.571,-122.824,-98.076,-443.212,3631.500,-202.240,-1566.220
987,64604.463000,208.031,224.632,-272.803,-86.498,-102.270,-448.772,3724.500,-313.240,-1526.220
988,64604.481000,192.367,206.419,-237.220,-21.682,-111.555,-458.768,3846.500,-322.240,-1445.220
989,64604.493000,183.556,179.099,-206.579,47.817,-113.153,-460.980,3877.500,-190.240,-1342.220
990,64604.521000,180.620,151.779,-193.730,88.906,-116.431,-459.735,3852.500,-142.240,-1248.220
991,64604.553000,188.451,121.423,-168.031,156.154,-118.028,-445.171,3727.500,-297.240,-1176.220
992,64604.581000,187.472,80.949,-138.378,178.460,-115.340,-435.724,3475.500,-582.240,-1162.220
993,64604.595000,168.872,25.296,-106.749,239.769,-120.759,-415.145,3184.500,-883.240,-1189.220
994,64604.608000,166.914,5.059,-82.039,264.986,-126.810,-399.833,2917.500,-1140.240,-1267.220
995,64604.628000,165.935,-9.107,-57.328,312.422,-128.243,-371.137,2677.500,-1403.240,-1404.220
996,64604.651000,159.082,-23.273,-41.514,353.963,-136.399,-337.406,2566.500,-1489.240,-1449.220
997,64604.666000,157.124,-48.569,-26.687,368.311,-136.551,-318.955,2346.500,-1477.240,-1501.220
998,64604.696000,169.851,-76.901,-19.768,407.822,-129.207,-289.145,2117.500,-1360.240,-1509.220
999,64604.698000,169.851,-90.055,-2.965,421.192,-127.414,-271.663,1953.500,-1145.240,-1487.220
1000,64604.724000,164.956,-91.067,23.722,445.910,-111.232,-239.633,1833.500,-657.240,-1355.220
