Sample, Time, ACCX, ACCY, ACCZ, MAGX, MAGY, MAGZ, GYRX, GYRY, GYRZ
0,64524.391000,-56.291,-20.237,-238.208,47.081,-381.304,-278.529,-6.500,-15.240,7.780
1,64524.411000,-56.291,-21.249,-237.220,49.056,-383.257,-278.562,-9.500,-15.240,7.780
2,64524.431000,-57.270,-21.249,-237.220,50.969,-382.309,-276.628,-5.500,-8.240,10.780
3,64524.451000,-57.270,-21.249,-237.220,52.027,-387.153,-278.610,-8.500,-9.240,9.780
4,64524.467000,-56.291,-21.249,-237.220,56.883,-381.392,-279.687,-9.500,-13.240,7.780
5,64524.487000,-56.291,-21.249,-236.232,53.922,-382.335,-277.665,-6.500,-11.240,7.780
6,64524.514000,-57.270,-20.237,-236.232,50.987,-382.308,-277.613,-4.500,-1.240,7.780
7,64524.546000,-56.291,-19.225,-238.208,45.176,-381.284,-281.449,-3.500,3.760,9.780
8,64524.581000,-57.270,-20.237,-236.232,47.082,-383.240,-277.543,-4.500,-2.240,8.780
9,64524.590000,-56.291,-21.249,-236.232,46.103,-381.296,-278.512,-4.500,-8.240,6.780
10,64524.604000,-57.270,-20.237,-235.243,52.882,-379.426,-275.681,-6.500,-8.240,1.780
11,64524.619000,-57.270,-21.249,-236.232,50.042,-380.362,-280.552,-8.500,0.760,2.780
12,64524.641000,-57.270,-20.237,-238.208,47.074,-386.144,-275.570,-7.500,-3.240,5.780
13,64524.659000,-56.291,-18.213,-238.208,51.056,-384.240,-280.565,-7.500,-4.240,6.780
14,64524.677000,-56.291,-19.225,-235.243,47.046,-379.371,-277.547,-5.500,-3.240,7.780
15,64524.697000,-56.291,-20.237,-234.255,46.094,-382.264,-277.526,-8.500,1.760,6.780
16,64524.715000,-56.291,-18.213,-234.255,44.171,-380.308,-280.448,-12.500,-5.240,4.780
17,64524.737000,-57.270,-19.225,-236.232,50.052,-383.265,-279.564,-16.500,-7.240,3.780
18,64524.761000,-58.249,-19.225,-236.232,50.978,-383.277,-276.627,-15.500,-3.240,3.780
19,64524.777000,-57.270,-19.225,-237.220,46.094,-382.264,-277.526,-14.500,-2.240,4.780
20,64524.800000,-58.249,-18.213,-238.208,42.224,-383.194,-279.426,-11.500,-1.240,4.780
21,64524.822000,-57.270,-19.225,-237.220,46.155,-383.228,-280.480,-13.500,-2.240,2.780
22,64524.865000,-58.249,-18.213,-238.208,45.090,-381.289,-276.525,-14.500,-2.240,0.780
23,64524.879000,-57.270,-19.225,-239.197,47.073,-384.209,-276.557,-13.500,-3.240,-3.220
24,64524.892000,-57.270,-18.213,-238.208,47.117,-387.110,-277.539,-14.500,-7.240,-6.220
25,64524.910000,-57.270,-19.225,-239.197,46.068,-381.297,-276.543,-12.500,-9.240,-6.220
26,64524.927000,-58.249,-18.213,-239.197,43.158,-380.301,-278.461,-9.500,-1.240,-5.220
27,64524.950000,-58.249,-19.225,-239.197,42.171,-381.261,-277.458,-4.500,6.760,-4.220
28,64524.972000,-55.312,-19.225,-238.208,45.185,-384.187,-280.461,-4.500,0.760,-4.220
29,64524.995000,-56.291,-18.213,-238.208,47.073,-382.273,-277.544,-3.500,-6.240,-3.220
30,64525.15000,-56.291,-18.213,-239.197,43.193,-382.235,-279.444,-2.500,-4.240,-1.220
31,64525.30000,-56.291,-18.213,-237.220,44.215,-383.210,-281.430,-1.500,-3.240,-2.220
32,64525.52000,-56.291,-18.213,-236.232,46.146,-382.261,-280.481,1.500,0.760,2.780
33,64525.70000,-56.291,-20.237,-237.220,46.112,-384.199,-277.524,2.500,0.760,2.780
34,64525.92000,-55.312,-20.237,-237.220,46.086,-385.168,-275.554,1.500,-0.240,3.780
35,64525.125000,-57.270,-19.225,-237.220,50.978,-381.341,-277.614,-3.500,-7.240,0.780
36,64525.144000,-57.270,-18.213,-236.232,48.051,-382.282,-277.561,-5.500,-5.240,0.780
37,64525.162000,-57.270,-18.213,-235.243,43.201,-379.331,-281.417,-3.500,2.760,2.780
38,64525.180000,-57.270,-20.237,-236.232,42.197,-380.292,-279.429,-5.500,0.760,1.780
39,64525.198000,-58.249,-17.202,-235.243,49.090,-381.319,-281.518,-6.500,-3.240,-1.220
40,64525.220000,-58.249,-18.213,-235.243,51.965,-380.381,-278.617,-13.500,-2.240,-5.220
41,64525.235000,-56.291,-18.213,-235.243,43.150,-383.206,-276.489,-18.500,-3.240,-5.220
42,64525.262000,-56.291,-17.202,-237.220,40.267,-383.176,-279.391,-16.500,-6.240,-4.220
43,64525.275000,-57.270,-18.213,-237.220,42.206,-383.195,-278.441,-17.500,-6.240,-2.220
44,64525.297000,-58.249,-17.202,-236.232,44.146,-381.278,-278.478,-13.500,0.760,-2.220
45,64525.320000,-56.291,-17.202,-237.220,41.271,-384.151,-280.392,-15.500,-0.240,-1.220
46,64525.342000,-57.270,-18.213,-236.232,45.203,-384.186,-281.446,-16.500,-8.240,-0.220
47,64525.365000,-57.270,-17.202,-237.220,48.121,-384.214,-280.513,-17.500,-11.240,-0.220
48,64525.385000,-57.270,-17.202,-238.208,49.108,-383.254,-281.516,-17.500,-9.240,-3.220
49,64525.405000,-57.270,-17.202,-238.208,45.184,-380.315,-282.435,-14.500,-4.240,-4.220
50,64525.422000,-57.270,-16.190,-237.220,47.046,-377.435,-278.533,-13.500,-5.240,-8.220
51,64525.440000,-57.270,-17.202,-238.208,47.064,-381.305,-277.545,-13.500,1.760,-10.220
52,64525.462000,-57.270,-17.202,-240.185,47.107,-380.335,-280.500,-12.500,5.760,-9.220
53,64525.480000,-57.270,-16.190,-237.220,42.188,-379.324,-279.430,-10.500,6.760,-14.220
54,64525.502000,-56.291,-16.190,-238.208,41.245,-383.185,-279.408,-11.500,-2.240,-14.220
55,64525.522000,-56.291,-17.202,-237.220,44.180,-381.276,-280.447,-11.500,-5.240,-13.220
56,64525.545000,-57.270,-15.178,-238.208,45.124,-381.287,-278.495,-5.500,-4.240,-9.220
57,64525.572000,-55.312,-16.190,-238.208,44.206,-382.242,-281.431,-3.500,-1.240,-8.220
58,64525.602000,-55.312,-17.202,-238.208,46.199,-384.194,-282.448,-3.500,3.760,-5.220
59,64525.606000,-55.312,-16.190,-239.197,46.120,-381.295,-279.497,-3.500,1.760,-4.220
60,64525.632000,-55.312,-17.202,-238.208,40.249,-381.241,-279.393,-2.500,-8.240,-6.220
61,64525.664000,-56.291,-17.202,-238.208,42.162,-378.358,-278.446,-1.500,-4.240,-2.220
62,64525.667000,-56.291,-15.178,-239.197,49.065,-384.224,-278.561,0.500,-2.240,-3.220
63,64525.695000,-56.291,-17.202,-239.197,47.125,-382.270,-280.498,1.500,-7.240,-5.220
64,64525.712000,-58.249,-17.202,-238.208,45.098,-380.320,-277.511,0.500,-1.240,-5.220
65,64525.732000,-56.291,-17.202,-236.232,42.223,-381.258,-280.413,-0.500,0.760,-5.220
66,64525.755000,-55.312,-17.202,-237.220,45.141,-381.286,-279.480,-0.500,-1.240,-4.220
67,64525.770000,-55.312,-16.190,-238.208,46.094,-380.328,-278.513,-2.500,-5.240,-4.220
68,64525.797000,-56.291,-17.202,-238.208,43.159,-382.237,-277.475,-1.500,-6.240,-4.220
69,64525.812000,-56.291,-17.202,-237.220,46.147,-384.197,-279.494,-1.500,-8.240,-5.220
70,64525.835000,-56.291,-17.202,-237.220,47.151,-383.236,-281.482,-2.500,-7.240,-6.220
71,64525.860000,-56.291,-17.202,-237.220,46.120,-381.295,-279.497,-1.500,-6.240,-7.220
72,64525.880000,-54.333,-17.202,-237.220,41.227,-381.250,-279.410,-1.500,-11.240,-7.220
73,64525.897000,-55.312,-17.202,-237.220,49.039,-383.258,-277.577,-1.500,-9.240,-6.220
74,64525.920000,-56.291,-16.190,-237.220,48.076,-379.377,-280.518,-2.500,-6.240,-6.220
75,64525.936000,-55.312,-17.202,-237.220,49.107,-381.318,-282.503,-3.500,-5.240,-6.220
76,64525.957000,-55.312,-17.202,-238.208,45.185,-382.251,-281.448,-8.500,-17.240,-5.220
77,64525.975000,-56.291,-17.202,-237.220,45.125,-383.222,-277.508,-4.500,-21.240,-4.220
78,64525.989000,-56.291,-16.190,-238.208,47.133,-381.301,-281.484,1.500,-12.240,-4.220
79,64526.36000,-55.312,-18.213,-237.220,41.244,-379.313,-281.382,0.500,-1.240,1.780
80,64526.59000,-55.312,-18.213,-237.220,49.038,-381.322,-278.564,0.500,-7.240,-0.220
81,64526.65000,-57.270,-17.202,-238.208,45.169,-386.124,-278.490,-2.500,-22.240,-1.220
82,64526.82000,-55.312,-16.190,-239.197,48.130,-385.181,-280.512,-1.500,-20.240,-1.220
83,64526.101000,-56.291,-17.202,-239.197,40.275,-382.208,-280.377,-1.500,-19.240,0.780
84,64526.124000,-7.342,-281.296,-180.880,47.064,-381.305,-277.545,-605.500,573.760,-167.220
85,64526.148000,-136.566,-69.818,-261.931,43.118,-392.886,-269.586,-431.500,-844.240,-46.220
86,64526.162000,-128.734,0.000,-247.104,44.027,-390.963,-266.651,18.500,-394.240,8.780
87,64526.195000,-61.185,-12.142,-230.301,41.141,-381.255,-274.487,74.500,593.760,49.780
88,64526.206000,-55.312,-22.261,-244.139,46.103,-381.296,-278.512,-9.500,547.760,-13.220
89,64526.230000,-20.069,-19.225,-255.012,41.305,-378.342,-285.322,-69.500,253.760,-45.220
90,64526.245000,-45.522,-7.083,-261.931,34.377,-377.316,-281.263,-48.500,-305.240,-23.220
91,64526.267000,-86.639,-7.083,-265.884,37.287,-380.248,-278.357,-5.500,-212.240,-49.220
92,64526.285000,-64.122,-11.130,-256.000,44.207,-386.114,-279.457,18.500,-51.240,-31.220
93,64526.305000,-55.312,-9.107,-252.046,44.155,-382.245,-278.477,46.500,100.760,-17.220
94,64526.325000,-43.564,-14.166,-245.127,46.162,-376.453,-284.426,73.500,104.760,-0.220
95,64526.345000,-48.459,-14.166,-242.162,43.158,-380.301,-278.461,81.500,-41.240,8.780
96,64526.367000,-58.249,-15.178,-238.208,39.279,-382.200,-279.375,77.500,-107.240,10.780
97,64526.385000,-59.228,-14.166,-235.243,45.106,-379.352,-278.497,74.500,-32.240,14.780
98,64526.407000,-54.333,-16.190,-232.278,41.183,-378.349,-278.429,71.500,20.760,14.780
99,64526.435000,-53.354,-18.213,-230.301,45.124,-381.287,-278.495,64.500,8.760,14.780
100,64526.449000,-52.375,-18.213,-229.313,45.125,-383.222,-277.508,51.500,-12.240,12.780
101,64526.486000,-55.312,-19.225,-230.301,49.090,-383.255,-280.532,42.500,-22.240,11.780
102,64526.495000,-54.333,-18.213,-230.301,42.224,-383.194,-279.426,28.500,-23.240,11.780
103,64526.513000,-55.312,-18.213,-230.301,41.244,-379.313,-281.382,15.500,-21.240,10.780
104,64526.534000,-55.312,-19.225,-231.290,48.051,-382.282,-277.561,0.500,-26.240,9.780
105,64526.554000,-55.312,-19.225,-235.243,49.004,-383.260,-275.608,-5.500,-25.240,12.780
106,64526.576000,140.482,-103.209,-308.386,47.141,-378.397,-283.456,-385.500,378.760,156.780
107,64526.599000,-30.837,34.403,-199.660,37.145,-398.646,-260.613,-321.500,-1348.240,10.780
108,64526.621000,-209.989,14.166,-243.151,35.196,-397.660,-261.564,11.500,-187.240,44.780
109,64526.639000,-103.281,-16.190,-243.151,37.187,-393.804,-265.542,149.500,809.760,96.780
110,64526.662000,-37.690,-26.308,-245.127,39.220,-385.107,-274.448,162.500,788.760,86.780
111,64526.680000,-21.048,-17.202,-247.104,46.113,-386.134,-276.538,-169.500,301.760,50.780
112,64526.700000,-68.038,-2.024,-266.873,39.211,-386.075,-273.462,-52.500,-160.240,-39.220
113,64526.722000,-76.849,-11.130,-267.861,34.258,-387.002,-269.436,-11.500,-100.240,-17.220
114,64526.750000,-81.744,-9.107,-261.931,32.370,-385.044,-274.327,23.500,63.760,-7.220
115,64526.752000,-64.122,-8.095,-253.035,41.141,-383.191,-273.500,58.500,176.760,1.780
116,64526.789000,-49.438,-10.119,-245.127,39.183,-379.301,-275.439,71.500,44.760,7.780
117,64526.826000,-56.291,-12.142,-242.162,42.190,-385.131,-276.470,79.500,-76.240,14.780
118,64526.830000,-63.143,-14.166,-238.208,37.219,-384.123,-272.445,75.500,-83.240,12.780
119,64526.846000,-66.080,-13.154,-236.232,43.178,-389.979,-274.512,73.500,-29.240,9.780
120,64526.869000,-61.185,-14.166,-231.290,38.250,-386.065,-274.430,66.500,37.760,1.780
121,64526.884000,-56.291,-16.190,-230.301,43.160,-386.109,-275.501,54.500,24.760,-6.220
122,64526.907000,-57.270,-16.190,-228.324,47.083,-387.112,-275.569,43.500,-10.240,-13.220
123,64526.929000,-58.249,-17.202,-230.301,43.212,-386.106,-278.455,30.500,-20.240,-15.220
124,64526.949000,-59.228,-17.202,-230.301,41.142,-385.126,-272.513,20.500,-13.240,-15.220
125,64526.961000,-57.270,-17.202,-232.278,38.250,-386.065,-274.430,-431.500,557.760,-199.220
126,64526.989000,-106.218,-519.083,-146.286,33.375,-386.020,-275.328,-1257.500,-351.240,-145.220
127,64527.6000,-119.924,-16.190,-193.730,31.426,-385.034,-276.279,-793.500,-457.240,-150.220
128,64527.29000,-187.472,45.534,-260.942,34.480,-373.439,-289.145,179.500,698.760,47.780
129,64527.49000,-0.489,20.237,-250.069,32.584,-374.385,-292.063,630.500,902.760,183.780
130,64527.69000,48.459,-53.628,-229.313,27.528,-379.190,-280.155,-165.500,-712.240,-104.220
131,64527.116000,-113.071,2.024,-268.849,36.309,-382.175,-277.353,-155.500,-491.240,-107.220
132,64527.125000,-76.849,-2.024,-282.687,31.409,-385.035,-275.294,-44.500,-139.240,-53.220
133,64527.125000,-79.786,-3.036,-279.722,38.318,-382.190,-280.342,5.500,98.760,-17.220
134,64527.139000,-73.912,-2.024,-270.826,36.344,-382.173,-279.323,72.500,271.760,5.780
135,64527.171000,-45.522,-7.083,-258.965,37.348,-379.277,-282.297,96.500,87.760,20.780
136,64527.191000,-46.501,-9.107,-251.058,31.433,-378.258,-280.225,103.500,-10.240,27.780
137,64527.212000,-58.249,-11.130,-245.127,33.408,-382.146,-279.271,114.500,-69.240,32.780
138,64527.234000,-60.207,-11.130,-240.185,40.258,-382.209,-279.392,111.500,-24.240,25.780
139,64527.256000,-58.249,-11.130,-235.243,39.287,-379.295,-281.347,101.500,43.760,19.780
140,64527.274000,-56.291,-13.154,-232.278,42.206,-381.259,-279.428,92.500,47.760,15.780
141,64527.287000,-53.354,-15.178,-228.324,37.339,-380.245,-281.312,75.500,-4.240,6.780
142,64527.306000,-56.291,-17.202,-229.313,35.408,-381.194,-282.261,54.500,-32.240,-6.220
143,64527.331000,-56.291,-17.202,-230.301,38.361,-381.219,-283.298,34.500,-27.240,-16.220
144,64527.354000,-55.312,-17.202,-234.255,37.321,-378.310,-281.314,17.500,-16.240,-24.220
145,64527.374000,-56.291,-17.202,-238.208,41.254,-382.216,-280.394,12.500,-12.240,-27.220
146,64527.394000,-56.291,-16.190,-241.174,45.159,-381.285,-280.464,9.500,-2.240,-24.220
147,64527.425000,-55.312,-17.202,-250.069,42.206,-381.259,-279.428,15.500,-5.240,-17.220
148,64527.440000,-54.333,-17.202,-256.988,38.317,-378.318,-282.316,24.500,-52.240,-19.220
149,64527.471000,-61.185,-16.190,-261.931,53.983,-383.300,-280.618,48.500,-116.240,-28.220
150,64527.499000,-67.059,-15.178,-263.907,48.077,-383.248,-278.545,90.500,-118.240,-32.220
151,64527.512000,-69.996,-14.166,-260.942,48.043,-385.186,-275.589,139.500,-44.240,-30.220
152,64527.521000,-65.101,-15.178,-255.012,45.142,-385.157,-277.506,184.500,29.760,-26.220
153,64527.546000,-60.207,-19.225,-249.081,49.030,-384.226,-276.592,215.500,38.760,-24.220
154,64527.571000,-58.249,-20.237,-239.197,52.009,-385.219,-278.612,226.500,29.760,-23.220
155,64527.591000,-60.207,-21.249,-228.324,51.975,-385.220,-276.643,239.500,20.760,-19.220
156,64527.609000,-58.249,-23.273,-219.429,56.823,-382.364,-275.747,236.500,50.760,-14.220
157,64527.637000,-54.333,-26.308,-207.568,59.819,-383.355,-278.752,216.500,85.760,-3.220
158,64527.646000,-53.354,-28.332,-198.672,59.793,-380.453,-278.755,178.500,111.760,5.780
159,64527.669000,-49.438,-31.368,-197.683,61.759,-383.374,-277.802,109.500,106.760,6.780
160,64527.691000,-47.480,-30.356,-195.707,56.926,-380.422,-282.643,29.500,41.760,-8.220
161,64527.711000,-52.375,-29.344,-193.730,62.815,-382.410,-282.744,-35.500,23.760,-22.220
162,64527.734000,-53.354,-29.344,-191.753,56.918,-381.390,-281.657,-90.500,57.760,-28.220
163,64527.754000,-48.459,-29.344,-188.788,53.946,-373.623,-283.582,-115.500,146.760,-27.220
164,64527.769000,-42.585,-26.308,-187.799,57.904,-376.559,-284.633,-180.500,191.760,-25.220
165,64527.786000,-41.606,-21.249,-179.892,54.076,-374.583,-290.475,-241.500,197.760,-20.220
166,64527.809000,-43.564,-12.142,-161.112,52.119,-374.565,-290.440,-280.500,288.760,-6.220
167,64527.817000,-47.480,-11.130,-132.448,44.357,-362.876,-300.161,-350.500,580.760,29.780
168,64527.851000,-34.753,-6.071,-118.610,45.396,-359.977,-305.105,-499.500,919.760,86.780
169,64527.890000,-3.426,-3.036,-112.680,36.819,-347.302,-324.657,-696.500,1009.760,106.780
170,64527.918000,14.195,5.059,-110.703,27.041,-338.501,-329.417,-918.500,783.760,99.780
171,64527.918000,8.321,18.213,-104.772,15.307,-333.554,-332.168,-1126.500,627.760,126.780
172,64527.931000,-5.384,34.403,-92.911,0.671,-326.643,-337.824,-1227.500,492.760,160.780
173,64527.954000,-4.405,51.605,-91.923,-16.952,-321.644,-339.487,-1454.500,568.760,259.780
174,64527.967000,21.048,72.854,-108.726,-44.317,-313.650,-344.919,-1724.500,573.760,322.780
175,64527.995000,29.859,101.186,-136.402,-55.116,-309.682,-344.732,-1927.500,285.760,311.780
176,64528.17000,15.174,118.387,-138.378,-83.614,-307.495,-338.324,-2058.500,72.760,309.780
177,64528.39000,6.363,135.589,-134.425,-115.127,-298.511,-330.886,-2210.500,162.760,390.780
178,64528.60000,12.237,160.885,-146.286,-125.952,-293.577,-329.716,-2401.500,352.760,429.780
179,64528.77000,21.048,190.229,-171.985,-167.406,-284.512,-313.242,-2526.500,398.760,399.780
180,64528.100000,23.006,202.372,-194.718,-182.118,-282.445,-311.999,-2536.500,381.760,370.780
181,64528.117000,28.880,217.549,-185.822,-210.843,-274.463,-295.749,-2565.500,446.760,369.780
182,64528.140000,31.816,241.834,-179.892,-234.518,-268.453,-287.462,-2676.500,511.760,375.780
183,64528.160000,38.669,270.166,-212.510,-265.347,-257.558,-264.287,-2787.500,526.760,342.780
184,64528.182000,55.312,282.308,-231.290,-291.413,-249.619,-232.332,-2778.500,395.760,246.780
185,64528.205000,58.249,289.391,-224.371,-299.597,-242.793,-215.460,-2753.500,227.760,155.780
186,64528.235000,52.375,308.617,-222.394,-318.822,-235.884,-182.641,-2712.500,169.760,140.780
187,64528.239000,33.774,319.747,-243.151,-326.043,-234.875,-161.841,-2558.500,187.760,181.780
188,64528.266000,35.732,323.794,-252.046,-336.594,-219.342,-126.232,-2328.500,266.760,191.780
189,64528.270000,24.964,325.818,-261.931,-345.826,-210.575,-106.390,-2195.500,341.760,181.780
190,64528.301000,16.153,312.664,-267.861,-344.801,-186.448,-66.073,-1881.500,515.760,186.780
191,64528.327000,18.111,303.557,-274.780,-338.395,-175.888,-46.510,-1592.500,644.760,220.780
192,64528.345000,20.069,292.427,-303.444,-335.432,-145.972,-8.204,-1276.500,579.760,253.780
193,64528.367000,17.132,288.379,-332.108,-334.234,-121.835,22.265,-861.500,359.760,264.780
194,64528.387000,10.279,281.296,-358.795,-337.465,-116.018,36.098,-374.500,103.760,281.780
195,64528.407000,-8.321,274.213,-375.598,-325.741,-112.254,34.901,136.500,23.760,279.780
196,64528.430000,-4.405,278.261,-379.552,-335.283,-116.023,23.261,649.500,-125.240,237.780
197,64528.447000,-5.384,275.225,-370.656,-339.356,-139.162,-11.096,1109.500,-131.240,93.780
198,64528.470000,-9.300,279.273,-358.795,-336.886,-151.734,-33.767,1319.500,-66.240,31.780
199,64528.492000,1.468,280.285,-345.946,-339.686,-176.801,-83.895,1695.500,79.760,-81.220
200,64528.512000,23.006,288.379,-323.212,-339.631,-193.188,-134.084,2011.500,131.760,-162.220
201,64528.540000,43.564,296.474,-303.444,-337.135,-202.854,-159.713,2272.500,38.760,-233.220
202,64528.570000,55.312,306.593,-291.583,-326.578,-211.611,-199.268,2485.500,-148.240,-303.220
203,64528.589000,57.270,314.688,-279.722,-306.609,-217.574,-219.303,2664.500,-250.240,-352.220
204,64528.597000,54.333,316.711,-264.896,-289.264,-223.493,-257.012,2787.500,-199.240,-358.220
205,64528.615000,65.101,306.593,-235.243,-272.316,-229.434,-272.072,2856.500,-121.240,-321.220
206,64528.629000,78.807,293.439,-228.324,-235.540,-235.538,-302.249,2890.500,-159.240,-254.220
207,64528.651000,76.849,281.296,-221.405,-205.699,-241.585,-327.381,2893.500,-243.240,-225.220
208,64528.665000,62.164,261.059,-215.475,-193.810,-242.651,-335.466,2899.500,-432.240,-164.220
209,64528.693000,61.185,238.798,-208.556,-159.249,-252.624,-348.864,2884.500,-440.240,-119.220
210,64528.714000,65.101,231.715,-200.649,-137.582,-256.684,-355.149,2828.500,-436.240,-53.220
211,64528.736000,50.417,198.324,-194.718,-100.146,-267.654,-364.659,2799.500,-529.240,30.780
212,64528.759000,46.501,182.134,-190.764,-83.425,-269.736,-368.890,2698.500,-580.240,83.780
213,64528.776000,43.564,162.909,-186.811,-48.119,-278.763,-369.504,2624.500,-687.240,148.780
214,64528.799000,29.859,139.636,-186.811,-30.355,-295.369,-369.799,2550.500,-815.240,183.780
215,64528.831000,22.027,119.399,-191.753,0.889,-301.465,-363.453,2502.500,-899.240,191.780
216,64528.859000,7.342,96.126,-193.730,33.044,-313.382,-350.226,2487.500,-947.240,188.780
217,64528.877000,-13.216,94.103,-193.730,50.625,-323.222,-343.634,2480.500,-963.240,156.780
218,64528.891000,-22.027,66.783,-192.741,80.866,-338.022,-331.354,2511.500,-821.240,208.780
219,64528.900000,-17.132,38.451,-185.822,88.556,-340.037,-322.628,2525.500,-624.240,212.780
220,64528.925000,-10.279,27.320,-170.996,114.779,-348.999,-307.330,2524.500,-530.240,241.780
221,64528.949000,-17.132,11.130,-158.147,138.221,-355.990,-301.830,2561.500,-495.240,301.780
222,64528.962000,-17.132,0.000,-137.390,161.429,-360.091,-284.515,2545.500,-409.240,349.780
223,64528.980000,-16.153,-31.368,-106.749,183.643,-369.991,-263.239,2516.500,-286.240,372.780
224,64529.6000,-8.321,-49.581,-82.039,186.441,-373.897,-253.439,2467.500,-247.240,395.780
225,64529.25000,-9.300,-67.794,-58.317,208.680,-380.892,-235.120,2342.500,-247.240,415.780
226,64529.46000,-0.489,-96.126,-21.745,212.490,-380.934,-229.280,2152.500,-271.240,445.780
227,64529.69000,-16.153,-132.553,21.745,221.013,-389.741,-208.747,1844.500,-419.240,376.780
228,64529.91000,-38.669,-158.862,48.432,228.730,-394.658,-200.018,1384.500,-440.240,267.780
229,64529.109000,-46.501,-174.040,64.247,234.490,-399.557,-191.254,863.500,-284.240,144.780
230,64529.131000,-51.396,-178.087,74.131,238.291,-398.631,-185.416,346.500,-138.240,-24.220
231,64529.154000,-51.396,-186.182,69.189,232.419,-396.642,-186.299,-161.500,45.760,-131.220
232,64529.171000,-38.669,-173.028,61.282,233.553,-394.706,-196.166,-658.500,159.760,-197.220
233,64529.189000,-28.880,-159.874,43.490,232.652,-393.725,-201.073,-890.500,159.760,-217.220
234,64529.211000,-23.985,-141.660,19.768,227.887,-384.962,-212.812,-1324.500,140.760,-247.220
235,64529.241000,-21.048,-121.423,-12.849,214.354,-387.732,-220.445,-1683.500,144.760,-270.220
236,64529.270000,-17.132,-101.186,-36.571,199.908,-382.746,-235.947,-1963.500,178.760,-295.220
237,64529.284000,-14.195,-79.937,-58.317,194.148,-375.911,-245.697,-2207.500,288.760,-306.220
238,64529.287000,-4.405,-58.688,-87.969,178.819,-368.007,-268.078,-2392.500,395.760,-280.220
239,64529.310000,8.321,-30.356,-118.610,148.796,-361.906,-288.227,-2512.500,392.760,-226.220
240,64529.332000,6.363,1.012,-150.239,141.063,-362.798,-293.012,-2510.500,367.760,-162.220
241,64529.355000,-0.489,19.225,-166.054,113.880,-353.825,-309.277,-2439.500,479.760,-67.220
242,64529.372000,-0.489,26.308,-182.857,93.382,-347.828,-314.828,-2418.500,550.760,-25.220
243,64529.395000,11.258,42.498,-190.764,66.154,-335.955,-330.112,-2386.500,681.760,20.780
244,64529.416000,14.195,65.771,-188.788,53.432,-330.032,-332.847,-2356.500,736.760,54.780
245,64529.431000,14.195,89.043,-189.776,23.261,-319.100,-347.093,-2378.500,809.760,95.780
246,64529.457000,17.132,95.115,-198.672,-15.893,-300.355,-355.282,-2481.500,845.760,124.780
247,64529.477000,30.837,107.257,-213.498,-34.432,-298.247,-358.894,-2621.500,776.760,57.780
248,64529.498000,23.985,129.518,-209.544,-67.860,-284.403,-356.350,-2705.500,768.760,-14.220
249,64529.520000,9.300,153.802,-211.521,-87.405,-279.384,-359.948,-2815.500,871.760,23.780
250,64529.537000,26.922,168.980,-226.347,-126.765,-264.522,-354.347,-2935.500,855.760,79.780
251,64529.560000,54.333,195.289,-236.232,-142.578,-260.516,-347.180,-2968.500,718.760,69.780
252,64529.589000,39.648,231.715,-245.127,-179.042,-256.330,-333.742,-2940.500,438.760,14.780
253,64529.590000,21.048,256.000,-233.266,-212.782,-240.568,-314.459,-2878.500,529.760,23.780
254,64529.620000,24.964,268.142,-227.336,-236.415,-233.587,-309.127,-2907.500,830.760,72.780
255,64529.641000,46.501,285.344,-250.069,-265.277,-227.549,-284.012,-2932.500,887.760,85.780
256,64529.661000,69.017,291.415,-256.000,-274.397,-219.744,-270.077,-2856.500,686.760,18.780
257,64529.684000,74.891,291.415,-235.243,-308.195,-212.696,-242.907,-2806.500,442.760,-24.220
258,64529.704000,57.270,298.498,-224.371,-317.365,-210.700,-223.058,-2769.500,460.760,20.780
259,64529.741000,42.585,307.605,-253.035,-338.677,-202.813,-183.312,-2604.500,565.760,94.780
260,64529.770000,61.185,322.783,-272.803,-345.373,-190.224,-142.846,-2449.500,582.760,87.780
261,64529.773000,66.080,315.700,-261.931,-347.677,-184.418,-126.076,-2102.500,511.760,63.780
262,64529.795000,60.207,307.605,-247.104,-350.503,-168.963,-84.698,-1824.500,577.760,47.780
263,64529.817000,54.333,297.486,-243.151,-343.197,-157.448,-61.213,-1592.500,811.760,112.780
264,64529.831000,68.038,280.285,-247.104,-340.154,-136.239,-22.898,-1378.500,874.760,186.780
265,64529.850000,89.576,268.142,-287.629,-335.627,-126.625,-7.238,-1014.500,336.760,270.780
266,64529.871000,94.470,254.988,-298.502,-335.389,-108.285,25.223,-594.500,-228.240,283.780
267,64529.889000,58.249,260.047,-335.073,-329.693,-98.670,30.033,-147.500,-525.240,234.780
268,64529.910000,26.922,264.095,-387.459,-329.553,-104.469,25.115,396.500,-652.240,145.780
269,64529.939000,12.237,280.285,-396.355,-339.664,-120.789,-3.236,652.500,-740.240,63.780
270,64529.969000,-15.174,290.403,-396.355,-341.997,-141.054,-26.798,1213.500,-838.240,-133.220
271,64529.984000,-8.321,321.771,-390.425,-347.690,-165.125,-79.830,1704.500,-392.240,-308.220
272,64529.997000,29.859,345.043,-371.645,-351.958,-170.852,-112.234,2175.500,100.760,-359.220
273,64530.30000,77.828,364.269,-344.958,-344.924,-184.391,-171.410,2601.500,332.760,-353.220
274,64530.44000,111.113,371.352,-330.131,-330.731,-191.263,-196.265,2950.500,131.760,-255.220
275,64530.62000,115.029,376.411,-314.317,-308.242,-198.180,-247.846,3201.500,-334.240,-135.220
276,64530.77000,103.281,375.399,-290.595,-270.383,-204.287,-283.949,3406.500,-612.240,-41.220
277,64530.95000,96.428,363.257,-269.838,-261.142,-212.086,-304.777,3564.500,-629.240,34.780
278,64530.122000,98.386,346.055,-252.046,-218.476,-222.114,-334.069,3619.500,-576.240,66.780
279,64530.145000,102.302,322.783,-228.324,-197.703,-222.288,-347.234,3697.500,-475.240,147.780
280,64530.165000,112.092,292.427,-212.510,-150.275,-231.401,-369.721,3708.500,-494.240,241.780
281,64530.185000,109.155,258.024,-197.683,-128.573,-239.330,-376.002,3644.500,-706.240,290.780
282,64530.202000,89.576,229.692,-173.961,-78.459,-251.387,-382.781,3513.500,-955.240,299.780
283,64530.225000,75.870,193.265,-166.054,-32.284,-268.249,-385.548,3343.500,-1097.240,264.780
284,64530.245000,61.185,165.945,-164.077,-11.777,-277.149,-379.009,3171.500,-1194.240,202.780
285,64530.254000,48.459,146.719,-164.077,22.354,-294.889,-363.841,3011.500,-1260.240,181.780
286,64530.272000,33.774,115.352,-165.066,44.879,-304.772,-360.290,2873.500,-1277.240,117.780
287,64530.300000,25.943,121.423,-162.100,81.919,-323.508,-343.203,2834.500,-1277.240,76.780
288,64530.314000,9.300,84.996,-152.216,94.478,-336.216,-327.659,2869.500,-1329.240,139.780
289,64530.336000,-13.216,51.605,-148.263,125.518,-353.938,-303.576,2825.500,-1200.240,98.780
290,64530.364000,-13.216,35.415,-154.193,144.924,-357.029,-293.087,2725.500,-1038.240,130.780
291,64530.386000,-12.237,3.036,-158.147,169.944,-367.931,-263.983,2689.500,-870.240,100.780
292,64530.409000,-11.258,-7.083,-128.494,196.064,-382.707,-239.817,2720.500,-715.240,110.780
293,64530.426000,-17.132,-35.415,-93.900,212.509,-388.676,-226.318,2708.500,-531.240,128.780
294,64530.447000,-2.447,-61.723,-78.085,232.617,-389.855,-201.077,2614.500,-472.240,206.780
295,64530.490000,3.426,-72.854,-68.201,245.122,-394.823,-186.526,2563.500,-527.240,261.780
296,64530.504000,-12.237,-83.984,-62.270,249.655,-408.438,-159.025,2446.500,-660.240,290.780
297,64530.512000,-26.922,-98.150,-40.525,263.077,-410.514,-142.524,2355.500,-611.240,329.780
298,64530.529000,-36.711,-114.340,-22.734,266.604,-417.347,-116.983,2234.500,-501.240,353.780
299,64530.552000,-47.480,-121.423,4.942,266.172,-421.243,-90.391,2146.500,-370.240,337.780
300,64530.575000,-62.164,-145.708,41.514,274.824,-425.203,-79.710,1985.500,-170.240,264.780
301,64530.597000,-71.954,-164.933,67.212,279.535,-426.226,-68.963,1714.500,85.760,164.780
302,64530.609000,-69.017,-184.158,85.004,280.418,-425.272,-64.058,1385.500,354.760,76.780
303,64530.631000,-56.291,-193.265,101.807,290.089,-422.464,-59.310,960.500,479.760,-8.220
304,64530.651000,-50.417,-191.241,121.575,289.111,-422.455,-59.292,724.500,489.760,-45.220
305,64530.674000,-44.543,-189.217,136.402,290.157,-414.717,-67.196,210.500,467.760,-87.220
306,64530.699000,-36.711,-188.206,143.320,286.443,-419.510,-75.984,-350.500,417.760,-88.220
307,64530.717000,-31.816,-189.217,142.332,283.680,-417.537,-86.767,-930.500,329.760,-67.220
308,64530.737000,-27.901,-186.182,131.459,280.094,-413.612,-107.382,-1558.500,262.760,-54.220
309,64530.761000,-21.048,-161.897,116.633,271.503,-410.616,-121.015,-2156.500,322.760,-61.220
310,64530.791000,-12.237,-134.577,96.865,255.247,-400.764,-147.320,-2698.500,432.760,-108.220
311,64530.805000,5.384,-111.304,66.224,248.709,-400.684,-164.924,-3212.500,446.760,-157.220
312,64530.820000,15.174,-76.901,33.606,227.769,-396.584,-199.999,-3635.500,337.760,-215.220
313,64530.840000,-2.447,-31.368,-13.838,203.504,-389.575,-214.344,-3780.500,315.760,-242.220
314,64530.871000,-18.111,7.083,-65.236,172.787,-380.546,-252.205,-3957.500,540.760,-303.220
315,64530.884000,3.426,52.617,-103.784,140.900,-365.711,-282.177,-4041.500,941.760,-369.220
316,64530.899000,36.711,94.103,-141.344,126.489,-360.723,-299.648,-4037.500,997.760,-426.220
317,64530.912000,32.795,128.506,-179.892,84.635,-344.841,-319.599,-3889.500,862.760,-466.220
318,64530.934000,14.195,152.791,-203.614,60.300,-335.900,-330.993,-3666.500,1135.760,-450.220
319,64530.964000,26.922,163.921,-209.544,16.453,-312.260,-352.887,-3585.500,1416.760,-378.220
320,64530.972000,59.228,177.075,-239.197,-4.107,-301.427,-357.458,-3533.500,1235.760,-286.220
321,64531.0,69.996,190.229,-271.815,-46.194,-288.462,-362.635,-3451.500,943.760,-245.220
322,64531.22000,56.291,205.407,-267.861,-90.360,-273.551,-361.871,-3423.500,862.760,-237.220
323,64531.45000,38.669,232.727,-260.942,-110.096,-264.671,-356.610,-3416.500,1001.760,-231.220
324,64531.70000,35.732,257.012,-292.571,-149.437,-253.679,-350.020,-3407.500,1055.760,-180.220
325,64531.85000,69.996,274.213,-312.340,-166.282,-243.861,-342.843,-3307.500,765.760,-163.220
326,64531.111000,64.122,287.368,-316.293,-208.695,-242.530,-323.389,-3160.500,402.760,-139.220
327,64531.134000,26.922,299.510,-309.375,-221.676,-236.621,-311.353,-3023.500,534.760,-69.220
328,64531.154000,23.985,299.510,-296.525,-256.375,-228.592,-289.091,-2965.500,853.760,-2.220
329,64531.179000,47.480,306.593,-293.560,-289.249,-213.813,-262.930,-2861.500,845.760,46.780
330,64531.189000,69.996,311.652,-309.375,-304.203,-211.759,-247.901,-2600.500,463.760,76.780
331,64531.211000,48.459,303.557,-278.734,-318.492,-205.860,-217.137,-2475.500,340.760,76.780
332,64531.229000,42.585,288.379,-311.351,-330.520,-202.866,-202.161,-2261.500,380.760,72.780
333,64531.267000,62.164,278.261,-346.934,-339.959,-197.982,-168.529,-1978.500,411.760,92.780
334,64531.284000,52.375,262.071,-342.981,-342.202,-197.012,-152.739,-1519.500,61.760,124.780
335,64531.312000,10.279,264.095,-327.166,-343.717,-195.098,-123.181,-1090.500,-196.240,107.780
336,64531.316000,6.363,257.012,-344.958,-346.040,-185.422,-107.400,-727.500,-34.240,119.780
337,64531.332000,23.985,247.905,-370.656,-344.109,-186.409,-105.464,-355.500,-12.240,99.780
338,64531.357000,19.090,250.941,-375.598,-348.014,-187.341,-105.394,82.500,-212.240,20.780
339,64531.375000,5.384,251.953,-380.541,-340.081,-193.213,-108.480,551.500,-303.240,-45.220
340,64531.391000,-5.384,265.107,-383.506,-344.609,-195.084,-128.087,788.500,-330.240,-91.220
341,64531.422000,-4.405,283.320,-383.506,-334.503,-199.995,-144.012,1266.500,-195.240,-176.220
342,64531.440000,10.279,305.581,-381.529,-334.779,-206.721,-180.424,1721.500,29.760,-208.220
343,64531.457000,31.816,324.806,-377.575,-331.542,-203.827,-199.189,2129.500,244.760,-188.220
344,64531.480000,69.996,336.949,-374.610,-300.472,-206.965,-240.097,2507.500,282.760,-102.220
345,64531.502000,94.470,340.996,-372.633,-286.124,-209.957,-275.788,2863.500,-42.240,5.780
346,64531.522000,79.786,345.043,-360.772,-263.308,-208.208,-294.898,3199.500,-428.240,90.780
347,64531.545000,69.017,339.984,-340.015,-227.457,-216.237,-327.026,3488.500,-532.240,153.780
348,64531.560000,73.912,320.759,-317.282,-210.649,-218.314,-336.181,3589.500,-540.240,176.780
349,64531.574000,83.702,299.510,-301.467,-166.130,-228.366,-359.599,3708.500,-604.240,178.780
350,64531.621000,94.470,273.202,-276.757,-139.528,-233.435,-367.940,3745.500,-742.240,110.780
351,64531.639000,101.323,250.941,-251.058,-85.316,-254.229,-380.688,3691.500,-967.240,63.780
352,64531.647000,84.681,230.704,-225.359,-35.323,-270.164,-378.600,3608.500,-1191.240,17.780
353,64531.670000,71.954,206.419,-192.741,-16.659,-281.944,-376.948,3526.500,-1184.240,-5.220
354,64531.687000,77.828,177.075,-164.077,35.144,-298.873,-366.031,3398.500,-1104.240,11.780
355,64531.710000,76.849,149.755,-154.193,49.746,-305.786,-358.406,3248.500,-1122.240,18.780
356,64531.730000,65.101,129.518,-134.425,93.583,-322.651,-339.473,3135.500,-1130.240,58.780
357,64531.747000,60.207,89.043,-117.622,115.017,-331.564,-329.997,3060.500,-1122.240,79.780
358,64531.770000,62.164,73.866,-101.807,149.910,-350.293,-302.043,2860.500,-1099.240,100.780
359,64531.790000,42.585,54.640,-96.865,157.656,-367.791,-288.377,2746.500,-1224.240,164.780
360,64531.810000,11.258,26.308,-96.865,194.347,-374.932,-257.516,2651.500,-1173.240,254.780
361,64531.832000,-10.279,5.059,-99.830,208.603,-385.736,-228.222,2662.500,-945.240,302.780
362,64531.850000,-18.111,-18.213,-85.992,217.203,-389.700,-214.587,2654.500,-595.240,339.780
363,64531.872000,-17.132,-41.486,-84.015,232.481,-399.542,-188.265,2642.500,-418.240,428.780
364,64531.892000,-24.964,-42.498,-87.969,244.059,-404.498,-176.651,2722.500,-420.240,481.780
365,64531.901000,-46.501,-39.462,-83.027,259.224,-411.443,-145.409,2900.500,-309.240,530.780
366,64531.920000,-53.354,-49.581,-67.212,255.112,-414.322,-132.534,2988.500,-214.240,558.780
367,64531.950000,-47.480,-69.818,-48.432,268.327,-418.346,-103.230,3094.500,-98.240,636.780
368,64531.972000,-38.669,-98.150,-26.687,265.923,-429.968,-71.671,3094.500,-144.240,676.780
369,64531.990000,-53.354,-129.518,-2.965,273.518,-432.956,-57.035,3035.500,-260.240,621.780
370,64532.13000,-69.017,-155.826,20.757,270.056,-435.863,-25.468,2865.500,-174.240,568.780
371,64532.40000,-75.870,-179.099,41.514,265.026,-439.698,-15.530,2627.500,-30.240,541.780
372,64532.72000,-72.933,-196.300,73.143,264.646,-443.591,8.108,2308.500,-83.240,496.780
373,64532.86000,-81.744,-200.348,90.934,267.443,-443.625,15.934,1964.500,-99.240,427.780
374,64532.100000,-82.723,-210.466,110.703,254.456,-448.364,33.890,1569.500,-66.240,350.780
375,64532.109000,-88.597,-224.632,136.402,250.414,-453.175,43.811,1348.500,-51.240,315.780
376,64532.136000,-88.597,-231.715,148.263,252.353,-451.258,43.775,856.500,-26.240,259.780
377,64532.159000,-100.344,-228.680,155.181,251.322,-451.252,46.746,333.500,20.760,156.780
378,64532.176000,-111.113,-228.680,166.054,249.426,-452.199,43.828,-207.500,204.760,-0.220
379,64532.199000,-119.924,-224.632,173.961,249.668,-448.314,28.068,-742.500,482.760,-199.220
380,64532.221000,-112.092,-216.538,175.938,258.603,-445.483,19.046,-1272.500,710.760,-414.220
381,64532.247000,-85.660,-202.372,165.066,259.077,-438.681,-11.488,-1808.500,760.760,-595.220
382,64532.265000,-66.080,-185.170,147.274,265.181,-435.817,-26.366,-2317.500,757.760,-730.220
383,64532.283000,-51.396,-159.874,124.541,271.585,-424.226,-62.918,-2554.500,774.760,-841.220
384,64532.309000,-39.648,-127.494,96.865,272.257,-414.509,-106.257,-2977.500,855.760,-890.220
385,64532.326000,-23.985,-97.138,76.108,274.559,-408.700,-128.947,-3334.500,1028.760,-958.220
386,64532.346000,-2.447,-90.055,54.363,261.582,-389.177,-179.932,-3721.500,1158.760,-961.220
387,64532.364000,29.859,-74.877,25.699,247.240,-380.313,-203.316,-4123.500,1094.760,-954.220
388,64532.386000,50.417,-17.202,-32.618,221.464,-361.646,-249.151,-4353.500,836.760,-915.220
389,64532.409000,68.038,27.320,-74.131,201.139,-353.704,-265.536,-4450.500,636.760,-808.220
390,64532.433000,78.807,39.462,-98.842,160.620,-346.522,-301.253,-4565.500,337.760,-661.220
391,64532.455000,76.849,59.700,-149.251,122.726,-339.385,-319.295,-4512.500,-105.240,-569.220
392,64532.474000,43.564,95.115,-194.718,92.495,-335.231,-326.641,-4398.500,-154.240,-527.220
393,64532.512000,7.342,120.411,-216.463,49.595,-327.088,-338.689,-4125.500,216.760,-471.220
394,64532.515000,10.279,162.909,-267.861,29.150,-324.960,-345.221,-3871.500,699.760,-490.220
395,64532.545000,16.153,172.016,-276.757,-11.959,-308.132,-352.389,-3579.500,872.760,-492.220
396,64532.548000,18.111,187.194,-276.757,-36.450,-299.200,-354.920,-3348.500,1006.760,-502.220
397,64532.574000,21.048,205.407,-290.595,-69.766,-280.510,-361.243,-3229.500,1154.760,-527.220
398,64532.596000,30.837,211.478,-301.467,-106.113,-264.703,-360.619,-3107.500,1213.760,-552.220
399,64532.614000,46.501,221.597,-287.629,-124.819,-255.829,-358.329,-2999.500,1181.760,-576.220
400,64532.640000,54.333,245.881,-284.664,-152.462,-243.979,-349.978,-2982.500,980.760,-607.220
401,64532.660000,57.270,270.166,-292.571,-175.011,-242.809,-347.612,-2967.500,837.760,-636.220
402,64532.677000,37.690,272.190,-289.606,-204.757,-235.788,-328.389,-2829.500,484.760,-613.220
403,64532.695000,26.922,269.154,-272.803,-214.688,-236.676,-319.352,-2648.500,319.760,-495.220
404,64532.718000,38.669,282.308,-256.000,-238.518,-236.482,-299.242,-2516.500,342.760,-350.220
405,64532.737000,52.375,284.332,-259.954,-248.702,-232.543,-278.393,-2409.500,251.760,-207.220
406,64532.770000,40.627,282.308,-260.942,-269.492,-234.306,-263.256,-2257.500,-53.240,-51.220
407,64532.789000,-3.426,271.178,-248.093,-289.460,-234.151,-240.260,-2024.500,-83.240,60.780
408,64532.802000,-7.342,272.190,-235.243,-295.582,-233.143,-226.371,-1838.500,351.760,86.780
409,64532.822000,28.880,266.119,-226.347,-315.544,-222.341,-209.295,-1712.500,663.760,38.780
410,64532.842000,69.017,258.024,-248.093,-320.661,-222.309,-196.406,-1682.500,588.760,16.780
411,64532.865000,59.228,243.858,-278.734,-325.095,-220.367,-167.781,-1560.500,-37.240,12.780
412,64532.882000,3.426,249.929,-284.664,-333.129,-224.179,-153.852,-1333.500,-484.240,-13.220
413,64532.897000,-31.816,250.941,-302.456,-333.605,-223.238,-127.264,-1034.500,-283.240,-33.220
414,64532.916000,-15.174,257.012,-331.120,-332.818,-221.322,-117.436,-677.500,138.760,-60.220
415,64532.939000,0.489,252.964,-353.853,-335.814,-220.330,-114.431,-240.500,294.760,-91.220
416,64532.961000,13.216,258.024,-372.633,-336.715,-219.349,-119.338,194.500,225.760,-119.220
417,64532.982000,9.300,272.190,-391.413,-332.645,-219.376,-128.270,657.500,139.760,-104.220
418,64533.4000,-2.447,285.344,-405.251,-325.398,-217.480,-152.028,1167.500,175.760,-55.220
419,64533.21000,10.279,299.510,-397.344,-326.030,-221.323,-169.732,1425.500,374.760,-31.220
420,64533.44000,47.480,312.664,-383.506,-317.580,-215.552,-208.282,1892.500,453.760,36.780
421,64533.61000,68.038,324.806,-374.610,-301.379,-216.632,-239.086,2289.500,165.760,122.780
422,64533.89000,60.207,335.937,-357.807,-284.390,-217.731,-259.074,2639.500,-170.240,196.780
423,64533.111000,50.417,346.055,-335.073,-260.292,-216.942,-294.942,2935.500,-297.240,263.780
424,64533.144000,49.438,345.043,-319.259,-244.350,-219.972,-309.987,3186.500,-275.240,317.780
425,64533.171000,63.143,334.925,-298.502,-206.655,-227.056,-336.241,3357.500,-260.240,350.780
426,64533.171000,75.870,322.783,-277.745,-184.983,-220.468,-348.446,3462.500,-424.240,360.780
427,64533.190000,69.017,296.474,-261.931,-144.464,-230.490,-366.871,3491.500,-497.240,349.780
428,64533.207000,69.017,275.225,-246.116,-124.572,-239.361,-380.995,3502.500,-538.240,314.780
429,64533.234000,70.975,256.000,-230.301,-77.500,-243.653,-385.761,3501.500,-566.240,298.780
430,64533.247000,72.933,232.727,-213.498,-28.434,-253.769,-389.570,3455.500,-648.240,315.780
431,64533.265000,75.870,197.312,-204.602,-11.824,-260.697,-384.934,3326.500,-851.240,302.780
432,64533.295000,69.996,177.075,-202.625,30.316,-279.466,-379.751,3243.500,-1100.240,227.780
433,64533.315000,39.648,168.980,-185.822,62.540,-291.379,-370.462,3243.500,-1101.240,191.780
434,64533.335000,22.027,155.826,-167.042,98.574,-303.332,-355.335,3264.500,-828.240,249.780
435,64533.352000,21.048,117.375,-146.286,117.047,-313.187,-343.837,3312.500,-572.240,282.780
436,64533.370000,10.279,128.506,-121.575,154.985,-319.354,-328.749,3355.500,-414.240,400.780
437,64533.392000,18.111,73.866,-106.749,193.789,-326.504,-306.785,3399.500,-120.240,612.780
438,64533.416000,49.438,19.225,-99.830,201.505,-331.421,-298.056,3324.500,-210.240,797.780
439,64533.433000,50.417,8.095,-92.911,224.518,-348.116,-263.003,3172.500,-689.240,859.780
440,64533.459000,15.174,-1.012,-89.946,241.873,-357.969,-243.610,3098.500,-945.240,840.780
441,64533.481000,-23.985,-14.166,-82.039,258.052,-370.729,-211.394,3152.500,-706.240,798.780
442,64533.496000,-37.690,-39.462,-70.178,262.669,-374.661,-193.751,3146.500,-358.240,782.780
443,64533.519000,-17.132,-79.937,-47.444,282.850,-391.323,-164.555,3025.500,-350.240,750.780
444,64533.541000,-13.216,-109.281,-31.629,283.276,-399.106,-129.113,2848.500,-581.240,704.780
445,64533.561000,-28.880,-128.506,-15.815,289.815,-403.057,-109.535,2758.500,-697.240,667.780
446,64533.584000,-56.291,-156.838,15.815,291.264,-411.815,-76.079,2558.500,-704.240,548.780
447,64533.616000,-68.038,-192.253,44.479,292.037,-417.643,-61.319,2229.500,-476.240,415.780
448,64533.636000,-90.554,-232.727,85.992,295.622,-417.697,-42.678,1773.500,-264.240,191.780
449,64533.646000,-99.365,-248.917,116.633,298.427,-416.763,-35.837,1216.500,13.760,-19.220
450,64533.666000,-77.828,-242.846,132.448,299.336,-414.840,-32.902,644.500,93.760,-203.220
451,64533.689000,-60.207,-227.668,138.378,306.072,-410.069,-29.089,96.500,98.760,-324.220
452,64533.711000,-47.480,-204.395,142.332,311.051,-410.109,-34.099,-408.500,119.760,-377.220
453,64533.726000,-35.732,-189.217,139.367,318.116,-409.191,-47.023,-865.500,131.760,-366.220
454,64533.749000,-25.943,-179.099,131.459,314.227,-404.314,-50.898,-1071.500,172.760,-352.220
455,64533.769000,-17.132,-177.075,119.598,310.658,-400.388,-72.497,-1465.500,209.760,-306.220
456,64533.791000,-3.426,-177.075,101.807,308.891,-400.359,-83.295,-1854.500,180.760,-275.220
457,64533.806000,2.447,-164.933,82.039,301.459,-392.523,-109.753,-2205.500,164.760,-262.220
458,64533.829000,1.468,-138.625,34.595,297.831,-393.439,-125.439,-2506.500,224.760,-261.220
459,64533.847000,10.279,-126.482,13.838,287.542,-388.475,-154.797,-2798.500,331.760,-253.220
460,64533.867000,16.153,-94.103,-22.734,270.490,-381.508,-189.943,-3098.500,363.760,-247.220
461,64533.894000,17.132,-58.688,-56.340,252.078,-372.617,-204.395,-3298.500,335.760,-252.220
462,64533.919000,20.069,-29.344,-81.050,230.161,-372.379,-237.479,-3360.500,343.760,-238.220
463,64533.935000,21.048,-3.036,-108.726,214.642,-364.486,-249.027,-3461.500,377.760,-228.220
464,64533.956000,14.195,25.296,-141.344,181.865,-359.316,-278.971,-3547.500,305.760,-226.220
465,64533.974000,6.363,58.688,-169.019,157.566,-354.245,-290.360,-3526.500,249.760,-200.220
466,64533.996000,-5.384,89.043,-181.869,119.671,-349.044,-307.416,-3421.500,387.760,-190.220
467,64534.16000,-2.447,97.138,-196.695,83.750,-336.116,-329.438,-3355.500,699.760,-192.220
468,64534.39000,16.153,110.292,-234.255,65.234,-327.231,-337.981,-3386.500,808.760,-190.220
469,64534.54000,15.174,139.636,-247.104,24.177,-314.273,-346.130,-3306.500,689.760,-211.220
470,64534.76000,-4.405,164.933,-238.208,4.693,-310.218,-352.681,-3202.500,763.760,-199.220
471,64534.115000,12.237,191.241,-227.336,-35.437,-297.271,-357.893,-3183.500,919.760,-201.220
472,64534.128000,50.417,202.372,-266.873,-55.070,-286.450,-359.527,-3242.500,1063.760,-142.220
473,64534.150000,49.438,219.573,-286.641,-101.210,-273.458,-356.757,-3207.500,685.760,-55.220
474,64534.164000,11.258,229.692,-263.907,-139.580,-265.379,-348.212,-3021.500,420.760,-1.220
475,64534.184000,4.405,249.929,-246.116,-154.424,-258.480,-342.051,-2927.500,720.760,43.780
476,64534.199000,42.585,258.024,-245.127,-190.951,-245.586,-329.606,-2942.500,1055.760,116.780
477,64534.212000,86.639,268.142,-256.000,-214.609,-241.511,-321.317,-3008.500,848.760,158.780
478,64534.231000,75.870,282.308,-260.942,-251.317,-233.467,-296.066,-2974.500,294.760,157.780
479,64534.261000,42.585,276.237,-267.861,-261.337,-228.551,-285.065,-2818.500,49.760,185.780
480,64534.284000,47.480,286.356,-261.931,-292.198,-227.337,-254.987,-2775.500,94.760,182.780
481,64534.301000,71.954,309.628,-266.873,-302.286,-226.298,-238.074,-2703.500,102.760,149.780
482,64534.319000,69.996,311.652,-317.282,-321.508,-229.068,-200.321,-2571.500,-358.240,175.780
483,64534.340000,-2.447,280.285,-333.097,-332.947,-227.072,-162.712,-2144.500,-788.240,250.780
484,64534.361000,-57.270,287.368,-332.108,-344.074,-223.123,-143.815,-1748.500,-392.240,279.780
485,64534.384000,-57.270,294.451,-349.900,-350.404,-224.064,-117.122,-1343.500,260.760,218.780
486,64534.406000,-13.216,278.261,-359.784,-347.676,-222.166,-106.343,-990.500,401.760,91.780
487,64534.424000,-10.279,261.059,-370.656,-342.188,-216.434,-87.742,-609.500,-9.240,-29.220
488,64534.446000,-33.774,242.846,-364.726,-352.068,-215.382,-82.647,-228.500,-181.240,-188.220
489,64534.469000,-55.312,254.988,-358.795,-349.053,-220.244,-84.663,-27.500,-263.240,-260.220
490,64534.491000,-54.333,262.071,-359.784,-335.033,-225.190,-100.657,392.500,-114.240,-366.220
491,64534.511000,-52.375,273.202,-366.703,-340.686,-229.964,-110.396,830.500,9.760,-474.220
492,64534.526000,-37.690,288.379,-377.575,-329.280,-239.704,-142.089,1240.500,67.760,-561.220
493,64534.584000,-16.153,309.628,-388.448,-327.073,-238.740,-156.896,1616.500,-52.240,-612.220
494,64534.584000,-12.237,336.949,-403.274,-310.748,-251.428,-188.672,2005.500,-274.240,-673.220
495,64534.602000,-23.985,356.174,-405.251,-301.629,-255.362,-204.580,2438.500,-346.240,-711.220
496,64534.611000,-17.132,375.399,-388.448,-274.558,-266.212,-236.549,2837.500,-266.240,-723.220
497,64534.634000,-14.195,386.530,-367.691,-241.599,-277.115,-269.606,3024.500,-179.240,-650.220
498,64534.656000,4.405,386.530,-341.992,-217.847,-278.281,-284.792,3365.500,24.760,-601.220
499,64534.676000,27.901,370.340,-303.444,-171.356,-278.671,-314.163,3615.500,151.760,-473.220
500,64534.694000,61.185,349.091,-281.699,-156.443,-285.567,-324.263,3737.500,43.760,-351.220
501,64534.711000,69.017,317.723,-257.977,-99.281,-296.707,-342.982,3809.500,-287.240,-256.220
502,64534.731000,65.101,294.451,-231.290,-77.695,-293.995,-348.289,3803.500,-497.240,-240.220
503,64534.759000,66.080,264.095,-210.533,-25.684,-307.041,-351.163,3733.500,-675.240,-198.220
504,64534.774000,56.291,236.775,-192.741,3.664,-317.955,-345.763,3648.500,-765.240,-180.220
505,64534.796000,50.417,203.383,-181.869,49.623,-333.862,-336.713,3556.500,-812.240,-160.220
506,64534.819000,46.501,191.241,-164.077,97.372,-343.020,-321.796,3505.500,-824.240,-124.220
507,64534.836000,45.522,153.802,-145.297,122.616,-351.974,-306.480,3473.500,-947.240,-71.220
508,64534.853000,30.837,145.708,-128.494,151.620,-364.843,-280.398,3316.500,-1007.240,31.780
509,64534.884000,12.237,110.292,-118.610,170.040,-372.765,-266.933,3304.500,-934.240,108.780
510,64534.919000,-3.426,71.842,-104.772,197.952,-384.664,-234.926,3311.500,-714.240,189.780
511,64534.938000,-8.321,37.439,-98.842,212.413,-385.778,-222.382,3323.500,-472.240,234.780
512,64534.944000,-7.342,22.261,-87.969,249.131,-393.885,-192.504,3328.500,-267.240,345.780
513,64534.961000,-0.489,4.047,-78.085,258.460,-402.711,-162.141,3324.500,-268.240,465.780
514,64534.985000,-6.363,-4.047,-63.259,264.911,-404.732,-138.626,3362.500,-264.240,543.780
515,64535.1000,-30.837,-15.178,-49.421,274.205,-411.623,-107.280,3397.500,-201.240,582.780
516,64535.20000,-31.816,-34.403,-32.618,281.835,-416.545,-93.627,3435.500,-11.240,625.780
517,64535.42000,-16.153,-60.711,-3.954,288.132,-420.510,-60.262,3385.500,-53.240,634.780
518,64535.69000,-3.426,-89.043,29.653,285.935,-428.249,-42.494,3221.500,-342.240,613.780
519,64535.89000,-18.111,-111.304,65.236,281.417,-435.991,-4.011,2969.500,-564.240,586.780
520,64535.104000,-53.354,-153.802,110.703,275.980,-438.881,28.575,2553.500,-589.240,508.780
521,64535.125000,-128.734,-256.000,190.764,277.782,-438.908,37.404,1951.500,-269.240,344.780
522,64535.145000,-122.860,-265.107,200.649,274.700,-443.729,48.293,1204.500,165.760,93.780
523,64535.162000,-102.302,-254.988,195.707,276.701,-444.712,46.290,477.500,418.760,-140.220
524,64535.185000,-78.807,-237.787,193.730,282.605,-438.956,41.256,149.500,454.760,-238.220
525,64535.216000,-73.912,-219.573,182.857,281.765,-438.939,33.395,-465.500,350.760,-411.220
526,64535.237000,-66.080,-199.336,158.147,288.733,-427.380,20.461,-1014.500,241.760,-527.220
527,64535.251000,-55.312,-181.123,135.413,298.854,-422.610,-1.382,-1495.500,281.760,-586.220
528,64535.269000,-39.648,-158.862,111.691,302.966,-419.731,-14.256,-1901.500,404.760,-643.220
529,64535.311000,-25.943,-143.684,89.946,310.384,-412.018,-50.821,-2236.500,515.760,-706.220
530,64535.321000,-11.258,-139.636,71.166,310.600,-409.102,-64.611,-2554.500,583.760,-752.220
531,64535.339000,6.363,-119.399,53.375,306.258,-397.412,-101.957,-2898.500,562.760,-760.220
532,64535.354000,10.279,-86.008,30.641,310.482,-391.623,-122.712,-3202.500,543.760,-747.220
533,64535.371000,16.153,-63.747,-0.988,288.596,-377.832,-164.672,-3334.500,579.760,-745.220
534,64535.394000,26.922,-33.391,-32.618,279.190,-371.915,-189.124,-3580.500,627.760,-738.220
535,64535.416000,45.522,0.000,-54.363,261.175,-359.130,-228.198,-3774.500,635.760,-720.220
536,64535.439000,54.333,44.522,-81.050,229.418,-345.256,-265.062,-3906.500,532.760,-652.220
537,64535.461000,50.417,84.996,-118.610,210.116,-342.159,-281.460,-3928.500,407.760,-557.220
538,64535.484000,62.164,99.162,-144.309,168.426,-327.236,-310.273,-3903.500,380.760,-433.220
539,64535.499000,51.396,130.530,-177.915,152.960,-327.083,-320.829,-3862.500,219.760,-318.220
540,64535.516000,14.195,159.874,-195.707,106.258,-315.994,-340.689,-3702.500,330.760,-199.220
541,64535.530000,11.258,154.814,-212.510,79.933,-310.909,-348.105,-3628.500,503.760,-90.220
542,64535.549000,46.501,169.992,-227.336,29.213,-299.791,-361.987,-3658.500,853.760,-76.220
543,64535.579000,46.501,220.585,-263.907,-18.658,-286.768,-371.985,-3689.500,706.760,-82.220
544,64535.601000,16.153,245.881,-263.907,-42.196,-280.750,-371.575,-3547.500,561.760,-72.220
545,64535.624000,23.985,253.976,-260.942,-88.378,-270.663,-364.863,-3502.500,703.760,-23.220
546,64535.646000,45.522,269.154,-279.722,-108.079,-263.717,-360.585,-3535.500,631.760,-9.220
547,64535.661000,37.690,286.356,-298.502,-154.398,-257.510,-344.021,-3467.500,314.760,-8.220
548,64535.684000,13.216,299.510,-292.571,-174.220,-252.507,-331.863,-3314.500,199.760,26.780
549,64535.704000,4.405,309.628,-287.629,-213.767,-249.271,-309.509,-3208.500,286.760,60.780
550,64535.726000,15.174,321.771,-287.629,-228.879,-243.354,-287.591,-3179.500,342.760,10.780
551,64535.749000,12.237,325.818,-293.560,-259.585,-240.196,-267.362,-3106.500,375.760,-51.220
552,64535.767000,10.279,328.854,-282.687,-287.608,-230.303,-236.360,-2977.500,541.760,-191.220
553,64535.799000,22.027,330.877,-262.919,-300.553,-230.200,-223.333,-2829.500,716.760,-253.220
554,64535.817000,46.501,329.866,-265.884,-317.881,-222.344,-187.595,-2676.500,742.760,-243.220
555,64535.840000,62.164,326.830,-311.351,-320.219,-220.412,-166.883,-2377.500,315.760,-223.220
556,64535.846000,28.880,307.605,-347.923,-318.981,-217.567,-127.530,-1893.500,-132.240,-188.220
557,64535.877000,-10.279,293.439,-375.598,-327.226,-209.776,-107.704,-1438.500,-62.240,-135.220
558,64535.884000,-21.048,292.427,-424.031,-325.800,-199.177,-83.130,-879.500,95.760,-58.220
559,64535.909000,-13.216,294.451,-452.695,-323.091,-193.409,-73.340,-551.500,111.760,-0.220
560,64535.936000,-3.426,285.344,-458.625,-330.832,-193.332,-78.126,112.500,47.760,54.780
561,64535.951000,-0.489,285.344,-451.707,-329.393,-200.091,-100.786,752.500,-84.240,56.780
562,64535.974000,-4.405,293.439,-443.799,-324.058,-206.886,-122.530,1350.500,-77.240,15.780
563,64535.999000,3.426,315.700,-431.938,-317.389,-214.637,-163.986,1883.500,75.760,-3.220
564,64536.19000,39.648,338.972,-420.077,-317.925,-221.379,-185.627,2361.500,35.760,72.780
565,64536.34000,79.786,369.328,-407.228,-302.449,-231.146,-226.252,2807.500,-475.240,164.780
566,64536.56000,65.101,397.660,-396.355,-268.564,-238.189,-258.346,3223.500,-910.240,214.780
567,64536.74000,34.753,409.802,-374.610,-257.489,-240.206,-275.275,3599.500,-852.240,231.780
568,64536.96000,15.174,406.767,-351.876,-218.694,-249.228,-307.453,3758.500,-692.240,244.780
569,64536.119000,46.501,394.625,-314.317,-188.022,-254.324,-324.726,3990.500,-428.240,257.780
570,64536.151000,68.038,369.328,-280.710,-146.517,-263.386,-344.154,4106.500,-536.240,254.780
571,64536.171000,71.954,336.949,-249.081,-123.803,-267.451,-354.396,4098.500,-767.240,222.780
572,64536.184000,69.996,293.439,-224.371,-73.732,-280.478,-358.220,3974.500,-1002.240,141.780
573,64536.206000,63.143,262.071,-198.672,-26.639,-300.256,-356.076,3801.500,-1184.240,34.780
574,64536.210000,53.354,230.704,-176.927,2.779,-311.166,-354.615,3601.500,-1261.240,-84.220
575,64536.238000,42.585,197.312,-163.089,53.510,-329.059,-337.772,3391.500,-1253.240,-204.220
576,64536.262000,30.837,168.980,-149.251,69.099,-340.820,-328.189,3196.500,-1142.240,-299.220
577,64536.282000,24.964,151.779,-137.390,109.871,-354.763,-303.298,3113.500,-1090.240,-325.220
578,64536.300000,35.732,136.601,-126.517,131.260,-358.838,-293.827,2960.500,-1122.240,-349.220
579,64536.317000,23.985,119.399,-117.622,168.983,-371.793,-262.977,2849.500,-1241.240,-368.220
580,64536.339000,-3.426,96.126,-104.772,186.426,-381.641,-248.507,2828.500,-1084.240,-266.220
581,64536.360000,-29.859,57.676,-97.853,217.281,-388.727,-219.512,2806.500,-653.240,-192.220
582,64536.385000,-18.111,14.166,-85.992,244.334,-396.739,-196.354,2778.500,-388.240,-97.220
583,64536.401000,-5.384,-2.024,-81.050,247.893,-395.827,-176.729,2772.500,-371.240,38.780
584,64536.424000,-20.069,-33.391,-53.375,265.067,-402.787,-148.475,2777.500,-410.240,178.780
585,64536.446000,-41.606,-46.545,-36.571,273.571,-403.852,-130.904,2784.500,-320.240,301.780
586,64536.468000,-45.522,-79.937,-11.861,283.895,-410.750,-102.530,2792.500,-219.240,333.780
587,64536.491000,-17.132,-117.375,10.873,284.658,-415.610,-87.771,2718.500,1.760,366.780
588,64536.506000,-9.300,-139.636,21.745,292.071,-417.641,-63.288,2506.500,-129.240,361.780
589,64536.529000,-41.606,-158.862,38.548,295.502,-421.575,-33.811,2275.500,-412.240,321.780
590,64536.551000,-56.291,-179.099,59.305,297.287,-425.474,-22.024,2012.500,-302.240,285.780
591,64536.583000,-53.354,-197.312,82.039,294.083,-426.431,-6.215,1705.500,-55.240,239.780
592,64536.593000,-56.291,-204.395,97.853,296.907,-429.367,1.614,1358.500,83.760,185.780
593,64536.615000,-64.122,-220.585,109.714,299.678,-430.371,11.411,981.500,210.760,146.780
594,64536.637000,-71.954,-230.704,119.598,295.764,-428.400,10.493,575.500,289.760,78.780
595,64536.657000,-64.122,-243.858,123.552,293.911,-428.376,4.619,354.500,476.760,30.780
596,64536.675000,-45.522,-251.953,121.575,296.023,-426.449,-5.265,-142.500,614.760,-60.220
597,64536.692000,-39.648,-239.810,106.749,301.079,-423.581,-16.187,-672.500,523.760,-157.220
598,64536.729000,-37.690,-216.538,91.923,296.576,-422.547,-38.751,-1169.500,454.760,-215.220
599,64536.740000,-32.795,-195.289,78.085,298.644,-419.654,-46.667,-1609.500,474.760,-250.220
600,64536.756000,-24.964,-176.063,57.328,293.247,-412.799,-77.097,-2012.500,508.760,-268.220
601,64536.779000,-14.195,-152.791,34.595,292.493,-410.842,-90.868,-2383.500,511.760,-289.220
602,64536.796000,-8.321,-117.375,11.861,279.319,-400.041,-126.088,-2667.500,507.760,-335.220
603,64536.824000,-7.342,-86.008,-20.757,276.044,-394.162,-165.415,-2772.500,513.760,-395.220
604,64536.839000,-8.321,-59.700,-45.467,265.487,-390.180,-179.016,-2931.500,584.760,-414.220
605,64536.848000,0.489,-39.462,-71.166,244.468,-377.373,-214.099,-3035.500,725.760,-434.220
606,64536.882000,10.279,-18.213,-105.761,227.148,-371.389,-233.489,-3125.500,803.760,-413.220
607,64536.900000,17.132,14.166,-140.355,209.991,-360.557,-264.700,-3165.500,830.760,-417.220
608,64536.923000,24.964,42.498,-165.066,194.601,-351.688,-284.128,-3145.500,845.760,-389.220
609,64536.940000,31.816,61.723,-178.903,159.727,-340.701,-309.119,-3100.500,784.760,-343.220
610,64536.962000,17.132,75.889,-193.730,137.323,-330.812,-319.563,-3049.500,744.760,-273.220
611,64536.985000,22.027,83.984,-208.556,106.268,-318.897,-339.701,-3063.500,750.760,-208.220
612,64537.7000,25.943,100.174,-224.371,68.398,-306.919,-361.688,-3094.500,725.760,-183.220
613,64537.26000,20.069,128.506,-232.278,47.786,-296.089,-363.305,-3114.500,724.760,-199.220
614,64537.45000,19.090,138.625,-241.174,13.623,-288.030,-371.570,-3133.500,757.760,-180.220
615,64537.77000,34.753,148.743,-248.093,-14.771,-283.901,-372.057,-3202.500,697.760,-159.220
616,64537.93000,27.901,191.241,-246.116,-53.013,-270.976,-373.364,-3204.500,542.760,-208.220
617,64537.107000,14.195,224.632,-236.232,-78.550,-267.846,-368.978,-3178.500,603.760,-249.220
618,64537.125000,26.922,250.941,-227.336,-117.900,-255.887,-362.389,-3228.500,771.760,-241.220
619,64537.147000,53.354,261.059,-217.452,-163.216,-244.848,-349.787,-3340.500,697.760,-151.220
620,64537.170000,54.333,282.308,-239.197,-181.055,-240.829,-338.647,-3358.500,405.760,-89.220
621,64537.185000,31.816,286.356,-258.965,-220.629,-232.755,-317.283,-3286.500,317.760,-93.220
622,64537.201000,15.174,290.403,-238.208,-237.428,-233.580,-307.140,-3171.500,450.760,-154.220
623,64537.229000,28.880,311.652,-233.266,-269.347,-225.587,-276.067,-3166.500,696.760,-162.220
624,64537.249000,71.954,329.866,-252.046,-283.367,-220.641,-260.073,-3170.500,663.760,-126.220
625,64537.269000,95.449,350.103,-282.687,-309.563,-213.677,-220.240,-2977.500,193.760,-63.220
626,64537.291000,75.870,336.949,-284.664,-329.859,-211.604,-179.520,-2658.500,-195.240,0.780
627,64537.311000,41.606,325.818,-272.803,-324.474,-207.813,-154.024,-2404.500,-106.240,107.780
628,64537.334000,34.753,327.842,-284.664,-335.180,-190.354,-110.539,-2147.500,140.760,228.780
629,64537.349000,34.753,311.652,-317.282,-333.693,-182.655,-87.932,-1799.500,279.760,324.780
630,64537.375000,44.543,301.534,-322.224,-328.744,-159.530,-47.684,-1587.500,260.760,326.780
631,64537.396000,43.564,280.285,-327.166,-331.120,-147.921,-29.936,-1110.500,90.760,334.780
632,64537.411000,33.774,262.071,-350.888,-335.520,-140.170,-6.240,-659.500,-131.240,302.780
633,64537.432000,14.195,261.059,-372.633,-332.716,-133.429,-2.360,-151.500,-232.240,220.780
634,64537.460000,11.258,266.119,-375.598,-335.372,-145.001,-12.144,382.500,-297.240,145.780
635,64537.492000,3.426,267.130,-376.587,-334.755,-155.613,-41.676,908.500,-248.240,29.780
636,64537.506000,-6.363,288.379,-383.506,-336.243,-163.312,-64.283,1440.500,17.760,-37.220
637,64537.525000,7.342,305.581,-380.541,-343.028,-180.604,-114.350,1931.500,212.760,-38.220
638,64537.531000,41.606,321.771,-366.703,-337.562,-190.296,-142.000,2354.500,144.760,-11.220
639,64537.561000,60.207,339.984,-360.772,-327.847,-193.228,-192.375,2552.500,48.760,12.780
640,64537.580000,72.933,350.103,-350.888,-325.351,-200.959,-218.991,2891.500,-164.240,42.780
641,64537.597000,80.765,360.221,-342.981,-292.307,-207.985,-258.945,3159.500,-387.240,58.780
642,64537.617000,73.912,375.399,-328.154,-266.234,-211.085,-293.859,3432.500,-484.240,68.780
643,64537.635000,71.954,380.459,-301.467,-239.407,-214.206,-315.988,3638.500,-413.240,97.780
644,64537.665000,78.807,361.233,-290.595,-201.617,-222.253,-347.165,3752.500,-406.240,134.780
645,64537.679000,90.554,338.972,-273.792,-177.880,-229.228,-358.406,3809.500,-546.240,159.780
646,64537.704000,84.681,293.439,-228.324,-116.875,-236.535,-375.228,3793.500,-719.240,188.780
647,64537.725000,79.786,266.119,-207.568,-100.118,-240.551,-380.442,3725.500,-779.240,171.780
648,64537.742000,74.891,234.751,-188.788,-52.983,-255.488,-383.227,3658.500,-871.240,167.780
649,64537.765000,72.933,198.324,-175.938,-8.843,-271.368,-382.021,3497.500,-962.240,149.780
650,64537.803000,65.101,175.051,-165.066,20.488,-280.348,-376.622,3308.500,-1108.240,126.780
651,64537.816000,51.396,147.731,-153.205,64.448,-303.014,-361.622,3122.500,-1269.240,99.780
652,64537.835000,32.795,110.292,-149.251,82.964,-311.898,-353.080,2934.500,-1360.240,48.780
653,64537.856000,29.859,99.162,-141.344,112.125,-332.502,-331.913,2751.500,-1364.240,-22.220
654,64537.870000,15.174,82.972,-140.355,137.352,-341.457,-315.614,2640.500,-1438.240,-24.220
655,64537.888000,6.363,45.534,-131.459,162.417,-361.067,-284.532,2548.500,-1432.240,-35.220
656,64537.915000,-11.258,33.391,-133.436,178.631,-375.761,-253.299,2455.500,-1447.240,-72.220
657,64537.940000,-38.669,11.130,-135.413,206.750,-385.713,-234.096,2471.500,-1375.240,-82.220
658,64537.955000,-59.228,-10.119,-127.506,227.794,-391.743,-203.943,2554.500,-956.240,-81.220
659,64537.972000,-39.648,-34.403,-103.784,235.440,-392.792,-193.248,2629.500,-355.240,-30.220
660,64537.989000,-16.153,-49.581,-80.062,262.458,-396.934,-170.094,2667.500,-89.240,39.780
661,64538.10000,-9.300,-68.806,-46.456,266.122,-399.888,-154.404,2650.500,-125.240,89.780
662,64538.43000,-19.090,-88.032,-7.907,281.407,-404.891,-131.042,2543.500,-200.240,132.780
663,64538.61000,-39.648,-117.375,28.664,283.148,-403.953,-119.260,2336.500,-125.240,158.780
664,64538.89000,-35.732,-143.684,61.282,294.502,-408.921,-94.844,2026.500,18.760,136.780
665,64538.98000,-41.606,-171.004,81.050,306.028,-411.943,-81.262,1618.500,39.760,84.780
666,64538.120000,-33.774,-182.134,91.923,308.834,-411.010,-74.422,1391.500,83.760,62.780
667,64538.140000,-31.816,-185.170,106.749,307.707,-408.105,-67.514,940.500,64.760,3.780
668,64538.160000,-40.627,-197.312,114.656,309.683,-411.994,-66.560,508.500,15.760,-33.220
669,64538.186000,-40.627,-207.431,114.656,311.578,-409.111,-64.628,59.500,31.760,-24.220
670,64538.200000,-44.543,-202.372,106.749,304.798,-407.109,-69.433,-392.500,88.760,-39.220
671,64538.218000,-34.753,-195.289,90.934,305.967,-409.043,-79.295,-800.500,261.760,-45.220
672,64538.240000,-19.090,-187.194,77.097,301.324,-402.209,-96.941,-1180.500,339.760,-63.220
673,64538.266000,-14.195,-167.968,63.259,299.575,-404.116,-107.737,-1532.500,354.760,-75.220
674,64538.281000,-15.174,-149.755,42.502,292.143,-396.279,-134.195,-1695.500,403.760,-60.220
675,64538.304000,3.426,-131.542,21.745,281.638,-394.231,-149.763,-2025.500,511.760,-47.220
676,64538.324000,16.153,-104.221,-2.965,261.573,-390.145,-178.946,-2315.500,504.760,-26.220
677,64538.351000,16.153,-76.901,-32.618,257.779,-382.359,-189.717,-2544.500,453.760,10.780
678,64538.366000,16.153,-53.628,-58.317,233.827,-383.076,-217.842,-2733.500,463.760,44.780
679,64538.384000,17.132,-23.273,-83.027,202.911,-375.026,-243.885,-2897.500,481.760,76.780
680,64538.406000,18.111,1.012,-105.761,189.505,-371.013,-262.357,-3009.500,519.760,109.780
681,64538.424000,20.069,23.273,-132.448,157.541,-359.086,-286.417,-3121.500,593.760,110.780
682,64538.444000,12.237,49.581,-161.112,134.229,-354.991,-297.822,-3194.500,684.760,86.780
683,64538.466000,14.195,63.747,-188.788,94.385,-342.996,-318.789,-3233.500,709.760,75.780
684,64538.502000,11.258,91.067,-209.544,74.979,-339.905,-329.279,-3271.500,754.760,13.780
685,64538.513000,-2.447,121.423,-224.371,41.809,-322.175,-343.479,-3267.500,932.760,-77.220
686,64538.541000,3.426,141.660,-245.127,8.617,-315.093,-350.776,-3285.500,1174.760,-165.220
687,64538.551000,38.669,153.802,-269.838,-30.475,-297.312,-361.919,-3324.500,1085.760,-219.220
688,64538.574000,44.543,187.194,-278.734,-67.921,-285.374,-352.410,-3290.500,787.760,-273.220
689,64538.591000,17.132,219.573,-277.745,-88.410,-280.344,-357.960,-3200.500,768.760,-310.220
690,64538.611000,16.153,242.846,-270.826,-122.894,-265.528,-351.461,-3183.500,1010.760,-360.220
691,64538.628000,41.606,259.036,-271.815,-145.505,-257.586,-349.101,-3196.500,992.760,-340.220
692,64538.649000,63.143,267.130,-285.652,-179.062,-248.588,-336.704,-3165.500,848.760,-326.220
693,64538.671000,50.417,266.119,-283.676,-197.879,-244.560,-325.547,-3050.500,502.760,-268.220
694,64538.701000,25.943,275.225,-278.734,-231.512,-238.471,-307.239,-2933.500,463.760,-239.220
695,64538.721000,23.006,293.439,-271.815,-259.406,-229.539,-283.129,-2825.500,706.760,-244.220
696,64538.730000,52.375,306.593,-257.977,-266.455,-226.584,-273.163,-2738.500,806.760,-211.220
697,64538.752000,82.723,299.510,-280.710,-292.476,-221.546,-242.191,-2584.500,359.760,-146.220
698,64538.772000,75.870,295.462,-268.849,-305.534,-222.417,-222.270,-2377.500,-100.240,-95.220
699,64538.795000,20.069,299.510,-274.780,-314.920,-221.402,-189.618,-2112.500,40.760,-45.220
700,64538.817000,5.384,291.415,-277.745,-324.092,-213.599,-172.729,-1884.500,351.760,-1.220
701,64538.829000,20.069,282.308,-311.351,-326.761,-202.006,-138.239,-1745.500,399.760,25.780
702,64538.858000,26.922,281.296,-348.911,-329.274,-192.341,-111.626,-1348.500,223.760,87.780
703,64538.890000,5.384,269.154,-377.575,-325.551,-190.451,-101.850,-843.500,139.760,128.780
704,64538.912000,-1.468,271.178,-396.355,-323.656,-183.697,-101.891,-314.500,128.760,154.780
705,64538.925000,-2.447,267.130,-423.042,-323.613,-184.663,-103.860,248.500,109.760,172.780
706,64538.948000,9.300,269.154,-429.961,-328.167,-187.503,-121.496,821.500,68.760,186.780
707,64538.961000,13.216,279.273,-423.042,-325.889,-190.406,-138.268,1384.500,96.760,193.780
708,64538.979000,52.375,300.522,-401.297,-323.214,-193.287,-177.691,1882.500,90.760,234.780
709,64539.6000,68.038,313.676,-383.506,-321.464,-200.028,-218.076,2331.500,-78.240,322.780
710,64539.23000,71.954,324.806,-368.680,-306.458,-198.207,-238.033,2531.500,-194.240,360.780
711,64539.44000,72.933,331.889,-350.888,-281.251,-202.259,-278.837,2882.500,-429.240,406.780
712,64539.66000,72.933,331.889,-333.097,-266.356,-205.284,-289.926,3163.500,-608.240,397.780
713,64539.84000,67.059,326.830,-312.340,-234.420,-213.277,-321.984,3391.500,-723.240,349.780
714,64539.100000,72.933,316.711,-292.571,-209.670,-220.259,-335.212,3566.500,-717.240,296.780
715,64539.124000,87.618,297.486,-269.838,-166.183,-224.497,-358.618,3659.500,-697.240,262.780
716,64539.141000,85.660,269.154,-248.093,-142.455,-234.376,-367.887,3689.500,-780.240,249.780
717,64539.167000,86.639,241.834,-230.301,-97.147,-244.448,-380.490,3660.500,-838.240,249.780
718,64539.181000,90.554,218.561,-216.463,-54.947,-260.310,-380.234,3566.500,-872.240,233.780
719,64539.203000,73.912,191.241,-195.707,-23.538,-271.236,-380.777,3514.500,-1059.240,221.780
720,64539.226000,59.228,161.897,-179.892,18.516,-288.074,-371.656,3392.500,-1137.240,175.780
721,64539.244000,45.522,133.565,-170.996,39.058,-298.908,-366.100,3246.500,-1164.240,125.780
722,64539.266000,33.774,104.221,-159.135,83.917,-314.812,-350.140,3096.500,-1116.240,66.780
723,64539.286000,29.859,76.901,-151.228,99.428,-321.738,-338.593,2914.500,-1056.240,4.780
724,64539.309000,23.006,60.711,-148.263,135.384,-334.664,-318.540,2753.500,-1053.240,-28.220
725,64539.329000,23.985,52.617,-137.390,164.397,-352.373,-290.484,2624.500,-1088.240,-22.220
726,64539.349000,-1.468,44.522,-133.436,185.700,-356.453,-276.089,2557.500,-1112.240,-34.220
727,64539.371000,-18.111,12.142,-124.541,212.686,-368.340,-247.019,2541.500,-1020.240,4.780
728,64539.391000,-12.237,-35.415,-113.668,219.364,-374.219,-234.332,2493.500,-785.240,17.780
729,64539.411000,2.447,-62.735,-110.703,238.547,-387.002,-206.107,2350.500,-726.240,42.780
730,64539.434000,3.426,-82.972,-104.772,253.909,-387.161,-189.643,2200.500,-914.240,59.780
731,64539.456000,-16.153,-82.972,-96.865,261.316,-397.903,-160.228,2100.500,-1043.240,55.780
732,64539.474000,-39.648,-89.043,-84.015,274.506,-404.831,-127.966,2070.500,-948.240,78.780
733,64539.494000,-45.522,-96.126,-62.270,285.020,-409.783,-111.411,2061.500,-709.240,132.780
734,64539.508000,-37.690,-123.447,-44.479,290.469,-416.635,-83.935,1977.500,-561.240,203.780
735,64539.535000,-29.859,-124.459,-28.664,287.317,-417.589,-71.080,1867.500,-588.240,221.780
736,64539.553000,-48.459,-133.565,-9.884,300.594,-426.448,-42.755,1820.500,-595.240,216.780
737,64539.575000,-54.333,-158.862,2.965,296.411,-421.588,-29.889,1682.500,-476.240,219.780
738,64539.595000,-59.228,-167.968,27.676,297.140,-428.386,-12.174,1522.500,-363.240,167.780
739,64539.618000,-70.975,-178.087,47.444,298.942,-428.413,-3.346,1360.500,-131.240,100.780
740,64539.637000,-57.270,-198.324,57.328,291.919,-428.360,6.623,1137.500,143.760,60.780
741,64539.655000,-44.543,-199.336,70.178,293.763,-427.417,12.496,860.500,196.760,8.780
742,64539.678000,-55.312,-199.336,84.015,295.720,-427.434,12.462,567.500,268.760,-30.220
743,64539.705000,-62.164,-205.407,96.865,297.789,-424.542,4.546,250.500,483.760,-60.220
744,64539.740000,-56.291,-213.502,108.726,301.764,-427.478,2.510,-110.500,683.760,-114.220
745,64539.754000,-46.501,-218.561,113.668,302.040,-423.591,-15.219,-316.500,733.760,-150.220
746,64539.786000,-36.711,-213.502,106.749,302.177,-417.776,-26.058,-780.500,790.760,-240.220
747,64539.789000,-22.027,-193.265,98.842,303.587,-411.953,-53.654,-1254.500,854.760,-308.220
748,64539.806000,-10.279,-171.004,93.900,299.177,-404.138,-85.088,-1725.500,925.760,-347.220
749,64539.829000,5.384,-153.802,82.039,299.479,-401.217,-103.801,-2217.500,923.760,-356.220
750,64539.835000,23.985,-135.589,63.259,290.245,-389.482,-141.061,-2727.500,786.760,-341.220
751,64539.863000,28.880,-104.221,39.537,274.926,-388.353,-160.480,-3191.500,657.760,-326.220
752,64539.885000,23.006,-61.723,9.884,256.989,-376.532,-203.493,-3569.500,684.760,-333.220
753,64539.907000,28.880,-18.213,-30.641,243.679,-373.482,-226.888,-3871.500,648.760,-337.220
754,64539.925000,46.501,13.154,-64.247,206.960,-359.567,-259.726,-3995.500,570.760,-333.220
755,64539.945000,43.564,50.593,-98.842,165.350,-351.415,-289.517,-4212.500,336.760,-324.220
756,64539.965000,15.174,99.162,-148.263,145.960,-346.388,-301.978,-4249.500,279.760,-335.220
757,64539.993000,8.321,129.518,-189.776,100.263,-338.210,-321.852,-4172.500,386.760,-316.220
758,64540.16000,13.216,155.826,-213.498,75.021,-335.064,-334.207,-4056.500,442.760,-324.220
759,64540.36000,-1.468,190.229,-231.290,30.085,-324.003,-343.270,-3855.500,534.760,-337.220
760,64540.54000,-23.985,211.478,-267.861,10.575,-318.982,-348.837,-3594.500,840.760,-324.220
761,64540.71000,-19.090,208.443,-276.757,-33.515,-295.355,-356.945,-3414.500,1155.760,-282.220
762,64540.91000,10.279,211.478,-275.768,-71.714,-283.396,-360.221,-3308.500,1167.760,-245.220
763,64540.114000,33.774,239.810,-275.768,-99.210,-272.505,-359.747,-3262.500,1102.760,-239.220
764,64540.136000,37.690,260.047,-274.780,-139.520,-264.408,-352.152,-3177.500,917.760,-221.220
765,64540.190000,44.543,278.261,-275.768,-154.345,-261.379,-345.002,-3111.500,697.760,-204.220
766,64540.190000,33.774,289.391,-272.803,-186.993,-250.459,-329.671,-3080.500,577.760,-205.220
767,64540.210000,35.732,294.451,-258.965,-205.828,-244.496,-318.515,-3106.500,546.760,-236.220
768,64540.224000,44.543,305.581,-266.873,-236.621,-239.406,-294.350,-3057.500,419.760,-240.220
769,64540.232000,33.774,312.664,-255.012,-254.511,-237.326,-279.269,-2935.500,392.760,-187.220
770,64540.252000,28.880,322.783,-272.803,-282.412,-231.298,-253.186,-2826.500,441.760,-189.220
771,64540.278000,35.732,315.700,-293.560,-298.692,-227.319,-219.432,-2610.500,477.760,-181.220
772,64540.295000,41.606,305.581,-312.340,-303.880,-219.548,-206.551,-2465.500,404.760,-145.220
773,64540.315000,16.153,306.593,-336.062,-316.245,-219.476,-170.892,-2122.500,259.760,-88.220
774,64540.341000,8.321,297.486,-363.737,-325.338,-216.509,-155.968,-1724.500,224.760,5.780
775,64540.350000,10.279,292.427,-387.459,-330.795,-207.785,-128.317,-1294.500,229.760,59.780
776,64540.377000,2.447,276.237,-400.309,-332.017,-200.047,-118.460,-780.500,126.760,122.780
777,64540.400000,-2.447,263.083,-405.251,-331.169,-197.159,-112.571,-232.500,49.760,161.780
778,64540.422000,-0.489,261.059,-399.320,-331.022,-198.119,-120.448,304.500,22.760,154.780
779,64540.445000,1.468,264.095,-384.494,-327.930,-200.072,-128.376,809.500,11.760,108.780
780,64540.460000,5.384,271.178,-371.645,-323.513,-205.887,-154.044,1264.500,38.760,58.780
781,64540.491000,19.090,283.320,-363.737,-325.142,-205.851,-172.719,1477.500,90.760,50.780
782,64540.508000,35.732,302.545,-349.900,-314.690,-208.806,-209.326,1878.500,75.760,56.780
783,64540.529000,46.501,321.771,-347.923,-302.671,-208.897,-225.289,2239.500,-11.240,114.780
784,64540.551000,64.122,339.984,-351.876,-282.425,-214.844,-261.081,2547.500,-177.240,190.780
785,64540.579000,63.143,354.150,-343.969,-256.404,-217.947,-293.040,2871.500,-399.240,226.780
786,64540.598000,47.480,351.115,-327.166,-243.405,-223.854,-306.061,3185.500,-465.240,270.780
787,64540.619000,61.185,336.949,-304.432,-207.625,-226.079,-337.210,3409.500,-360.240,354.780
788,64540.626000,82.723,323.794,-292.571,-182.982,-225.323,-348.476,3545.500,-491.240,443.780
789,64540.649000,88.597,299.510,-276.757,-143.485,-234.370,-364.915,3619.500,-640.240,474.780
790,64540.671000,74.891,275.225,-260.942,-117.895,-241.368,-370.282,3641.500,-936.240,455.780
791,64540.694000,61.185,244.870,-241.174,-71.633,-260.161,-376.985,3647.500,-1073.240,390.780
792,64540.716000,54.333,215.526,-226.347,-53.921,-276.770,-374.326,3589.500,-1063.240,291.780
793,64540.734000,60.207,191.241,-219.429,-1.981,-285.949,-375.234,3458.500,-1095.240,199.780
794,64540.757000,54.333,162.909,-211.521,42.931,-307.657,-359.267,3338.500,-1236.240,117.780
795,64540.774000,31.816,145.708,-191.753,65.351,-311.738,-352.768,3259.500,-1249.240,27.780
796,64540.796000,26.922,116.364,-176.927,106.262,-331.481,-332.795,3149.500,-1156.240,-36.220
797,64540.811000,18.111,90.055,-172.973,121.747,-339.376,-319.278,3024.500,-1086.240,-148.220
798,64540.828000,14.195,79.937,-163.089,160.518,-352.335,-292.384,3001.500,-1046.240,-211.220
799,64540.850000,11.258,93.091,-133.436,180.912,-358.338,-280.924,2921.500,-986.240,-254.220
800,64540.872000,-4.405,42.498,-118.610,211.689,-366.396,-247.003,2846.500,-935.240,-185.220
801,64540.895000,-2.447,7.083,-112.680,242.607,-380.254,-218.001,2720.500,-756.240,-128.220
802,64540.912000,2.447,-8.095,-109.714,253.137,-383.269,-203.417,2655.500,-712.240,-72.220
803,64540.935000,-4.405,-24.285,-98.842,278.025,-387.403,-170.381,2657.500,-672.240,-34.220
804,64540.957000,-21.048,-33.391,-81.050,283.586,-391.345,-150.785,2704.500,-502.240,36.780
805,64540.980000,-25.943,-55.652,-57.328,296.819,-395.368,-122.466,2718.500,-273.240,128.780
806,64541.0,-10.279,-80.949,-34.595,304.352,-395.455,-105.863,2628.500,-191.240,217.780
807,64541.38000,-0.489,-100.174,2.965,317.568,-399.479,-76.559,2560.500,-251.240,273.780
808,64541.65000,-20.069,-118.387,33.606,318.090,-408.225,-46.039,2386.500,-319.240,289.780
809,64541.79000,-33.774,-146.719,65.236,315.008,-411.110,-36.137,2135.500,-153.240,305.780
810,64541.82000,-35.732,-177.075,87.969,317.667,-413.088,-19.446,1780.500,5.760,277.780
811,64541.105000,-34.753,-195.289,104.772,322.335,-413.145,-6.731,1368.500,15.760,209.780
812,64541.123000,-44.543,-206.419,119.598,316.308,-413.100,2.236,936.500,18.760,144.780
813,64541.144000,-56.291,-227.668,133.436,318.266,-416.990,4.175,456.500,93.760,74.780
814,64541.156000,-59.228,-237.787,136.402,318.265,-413.118,2.201,-39.500,216.760,-5.220
815,64541.186000,-52.375,-235.763,129.483,319.460,-412.147,-10.619,-529.500,274.760,-93.220
816,64541.204000,-44.543,-223.621,115.645,314.688,-410.160,-18.412,-769.500,296.760,-126.220
817,64541.226000,-30.837,-207.431,100.819,311.059,-407.205,-36.072,-1220.500,292.760,-162.220
818,64541.247000,-22.027,-194.277,84.015,317.163,-406.277,-49.963,-1637.500,269.760,-168.220
819,64541.269000,-13.216,-173.028,65.236,308.745,-401.336,-74.431,-2019.500,257.760,-154.220
820,64541.296000,-10.279,-144.696,48.432,310.044,-406.166,-90.200,-2341.500,327.760,-132.220
821,64541.315000,-5.384,-117.375,29.653,291.961,-397.257,-123.362,-2617.500,453.760,-113.220
822,64541.344000,6.363,-97.138,8.896,286.747,-393.295,-162.652,-2903.500,484.760,-81.220
823,64541.346000,24.964,-74.877,-14.826,267.374,-386.331,-177.085,-3162.500,294.760,-40.220
824,64541.372000,29.859,-38.451,-42.502,237.542,-384.091,-206.093,-3308.500,119.760,-10.220
825,64541.392000,1.468,5.059,-70.178,228.969,-383.030,-219.725,-3342.500,169.760,12.780
826,64541.412000,-19.090,21.249,-88.958,192.330,-375.886,-253.541,-3426.500,550.760,56.780
827,64541.435000,16.153,34.403,-104.772,170.083,-371.795,-269.888,-3605.500,721.760,63.780
828,64541.453000,47.480,75.889,-130.471,126.307,-357.829,-290.788,-3704.500,500.760,42.780
829,64541.466000,-13.216,144.696,-168.031,109.905,-354.761,-305.268,-3667.500,521.760,40.780
830,64541.492000,15.174,153.802,-190.764,63.176,-340.770,-325.131,-3695.500,945.760,52.780
831,64541.513000,44.543,188.206,-220.417,13.339,-326.762,-335.095,-3774.500,1017.760,11.780
832,64541.538000,23.006,230.704,-242.162,-9.064,-320.744,-343.565,-3714.500,738.760,-9.220
833,64541.560000,1.468,245.881,-247.104,-50.267,-308.761,-342.850,-3594.500,794.760,-24.220
834,64541.582000,23.985,266.119,-262.919,-79.667,-299.786,-344.310,-3597.500,928.760,-44.220
835,64541.598000,38.669,304.569,-288.618,-124.863,-286.804,-339.587,-3645.500,1039.760,-132.220
836,64541.630000,29.859,318.735,-289.606,-142.677,-279.880,-331.405,-3581.500,883.760,-202.220
837,64541.644000,17.132,323.794,-287.629,-180.156,-267.944,-319.927,-3440.500,736.760,-193.220
838,64541.663000,21.048,337.960,-290.595,-210.932,-260.918,-297.732,-3304.500,755.760,-147.220
839,64541.685000,25.943,342.008,-302.456,-235.578,-255.866,-289.427,-3158.500,712.760,-107.220
840,64541.707000,27.901,346.055,-302.456,-264.483,-248.863,-262.343,-2936.500,577.760,-80.220
841,64541.725000,9.300,339.984,-290.595,-276.512,-243.932,-248.354,-2654.500,537.760,-34.220
842,64541.747000,22.027,327.842,-284.664,-296.629,-235.074,-221.428,-2422.500,603.760,42.780
843,64541.770000,50.417,322.783,-287.629,-303.783,-230.190,-206.540,-2334.500,577.760,72.780
844,64541.776000,37.690,313.676,-318.270,-318.149,-223.327,-171.838,-2158.500,152.760,122.780
845,64541.798000,-23.985,295.462,-343.969,-325.710,-217.498,-134.302,-1798.500,-243.240,163.780
846,64541.815000,-55.312,281.296,-365.714,-329.972,-207.803,-119.471,-1354.500,-10.240,211.780
847,64541.843000,-45.522,273.202,-393.390,-330.399,-195.244,-101.758,-872.500,347.760,189.780
848,64541.865000,-21.048,274.213,-414.147,-328.538,-192.363,-97.857,-333.500,369.760,140.780
849,64541.890000,-16.153,264.095,-419.089,-323.489,-196.271,-104.833,208.500,186.760,42.780
850,64541.922000,-19.090,269.154,-405.251,-324.355,-195.288,-111.710,731.500,123.760,-50.220
851,64541.939000,-20.069,278.261,-388.448,-325.730,-203.948,-140.224,985.500,179.760,-90.220
852,64541.959000,-0.489,291.415,-365.714,-326.363,-203.920,-159.902,1459.500,432.760,-151.220
853,64541.968000,37.690,304.569,-345.946,-313.885,-206.889,-200.482,1878.500,583.760,-117.220
854,64541.990000,69.017,317.723,-332.108,-297.597,-209.899,-235.223,2220.500,389.760,-7.220
855,64542.8000,73.912,331.889,-321.236,-285.465,-210.952,-257.094,2499.500,-0.240,122.780
856,64542.35000,69.017,334.925,-318.270,-256.518,-213.113,-289.106,2760.500,-288.240,237.780
857,64542.50000,63.143,333.913,-311.351,-249.400,-212.193,-304.984,3017.500,-372.240,314.780
858,64542.67000,65.101,330.877,-298.502,-209.757,-218.328,-331.274,3241.500,-383.240,371.780
859,64542.90000,70.975,316.711,-288.618,-189.901,-223.329,-345.402,3398.500,-452.240,419.780
860,64542.110000,79.786,303.557,-278.734,-150.440,-226.571,-362.832,3443.500,-520.240,419.780
861,64542.138000,70.975,286.356,-264.896,-112.892,-236.567,-379.236,3520.500,-667.240,415.780
862,64542.158000,68.038,259.036,-250.069,-83.397,-242.634,-384.673,3551.500,-719.240,403.780
863,64542.180000,71.954,230.704,-233.266,-39.153,-258.508,-389.375,3504.500,-782.240,354.780
864,64542.197000,63.143,207.431,-218.440,-18.656,-262.570,-384.811,3421.500,-914.240,283.780
865,64542.233000,48.459,185.170,-202.625,32.274,-281.420,-378.799,3343.500,-895.240,222.780
866,64542.251000,41.606,151.779,-182.857,51.793,-287.408,-373.230,3227.500,-814.240,184.780
867,64542.270000,51.396,121.423,-169.019,95.768,-302.330,-363.162,3050.500,-880.240,150.780
868,64542.274000,46.501,96.126,-164.077,117.106,-308.344,-349.750,2873.500,-1088.240,82.780
869,64542.299000,30.837,78.925,-156.170,143.288,-326.020,-327.550,2798.500,-1132.240,49.780
870,64542.320000,13.216,50.593,-149.251,176.206,-340.861,-300.550,2708.500,-1144.240,-33.220
871,64542.343000,-4.405,43.510,-145.297,200.497,-350.772,-286.202,2609.500,-1022.240,-99.220
872,64542.365000,1.468,37.439,-134.425,221.532,-355.835,-256.050,2569.500,-938.240,-51.220
873,64542.388000,-7.342,0.000,-125.529,233.060,-364.665,-239.508,2522.500,-902.240,-50.220
874,64542.400000,7.342,-22.261,-112.680,262.885,-373.681,-206.554,2551.500,-971.240,-28.220
875,64542.420000,3.426,-37.439,-97.853,272.403,-378.624,-188.996,2570.500,-1128.240,-20.220
876,64542.443000,-35.732,-56.664,-85.992,288.425,-385.585,-150.878,2541.500,-869.240,5.780
877,64542.451000,-42.585,-75.889,-63.259,300.575,-387.669,-117.619,2462.500,-659.240,54.780
878,64542.483000,-29.859,-86.008,-40.525,311.098,-393.588,-101.062,2420.500,-361.240,82.780
879,64542.504000,-16.153,-104.221,-18.780,320.451,-397.573,-74.643,2307.500,-232.240,163.780
880,64542.526000,-2.447,-133.565,9.884,327.075,-397.648,-61.962,2081.500,-341.240,223.780
881,64542.549000,-13.216,-161.897,38.548,320.765,-402.459,-34.280,1757.500,-486.240,238.780
882,64542.574000,-39.648,-186.182,62.270,321.658,-408.280,-26.413,1374.500,-363.240,201.780
883,64542.603000,-42.585,-199.336,81.050,329.210,-410.302,-9.809,953.500,-182.240,131.780
884,64542.616000,-42.585,-213.502,97.853,325.174,-408.338,-3.833,494.500,-43.240,42.780
885,64542.625000,-48.459,-219.573,108.726,326.213,-409.311,-6.804,43.500,127.760,-12.220
886,64542.654000,-44.543,-215.526,107.737,324.316,-406.386,-11.696,-167.500,192.760,-38.220
887,64542.668000,-35.732,-208.443,99.830,319.510,-404.401,-17.520,-580.500,294.760,-56.220
888,64542.690000,-22.027,-196.300,88.958,324.696,-402.493,-35.334,-966.500,314.760,-41.220
889,64542.712000,-15.174,-181.123,74.131,322.955,-403.431,-47.116,-1318.500,311.760,-9.220
890,64542.730000,-11.258,-164.933,60.293,315.516,-402.370,-69.628,-1641.500,382.760,32.780
891,64542.746000,-8.321,-140.648,45.467,304.069,-402.247,-86.161,-1919.500,534.760,77.780
892,64542.784000,-1.468,-116.364,29.653,291.814,-398.233,-114.498,-2200.500,651.760,146.780
893,64542.786000,26.922,-70.830,-2.965,275.759,-395.146,-148.673,-2494.500,621.760,227.780
894,64542.804000,28.880,-43.510,-23.722,262.292,-390.168,-164.192,-2780.500,508.760,288.780
895,64542.827000,16.153,-19.225,-49.421,241.388,-388.002,-200.250,-2904.500,474.760,308.780
896,64542.849000,23.006,2.024,-78.085,225.974,-387.846,-213.760,-3160.500,504.760,370.780
897,64542.871000,37.690,27.320,-96.865,188.348,-383.597,-245.586,-3387.500,482.760,402.780
898,64542.894000,22.027,73.866,-124.541,162.136,-381.409,-257.923,-3578.500,367.760,399.780
899,64542.911000,-2.447,111.304,-159.135,120.405,-373.264,-280.821,-3635.500,424.760,374.780
900,64542.938000,4.405,131.542,-179.892,71.799,-364.090,-302.614,-3668.500,738.760,387.780
901,64542.969000,29.859,149.755,-202.625,55.303,-363.931,-310.198,-3738.500,888.760,409.780
902,64542.988000,25.943,194.277,-226.347,2.494,-344.091,-321.100,-3771.500,781.760,378.780
903,64543.10000,-0.489,227.668,-245.127,-26.837,-337.047,-325.512,-3675.500,809.760,317.780
904,64543.19000,-5.384,236.775,-259.954,-71.894,-324.058,-328.668,-3639.500,943.760,289.780
905,64543.41000,28.880,261.059,-261.931,-94.480,-311.275,-330.252,-3637.500,1262.760,224.780
906,64543.64000,38.669,300.522,-284.664,-145.617,-292.437,-324.447,-3672.500,1241.760,137.780
907,64543.84000,36.711,323.794,-287.629,-182.111,-277.605,-314.958,-3604.500,1041.760,67.780
908,64543.104000,23.985,334.925,-281.699,-200.054,-271.656,-298.897,-3466.500,956.760,52.780
909,64543.121000,32.795,342.008,-282.687,-239.630,-255.838,-281.479,-3400.500,1028.760,48.780
910,64543.144000,35.732,350.103,-314.317,-260.448,-250.827,-268.319,-3336.500,929.760,23.780
911,64543.164000,38.669,343.020,-313.328,-287.536,-239.978,-235.365,-3071.500,684.760,-43.220
912,64543.187000,7.342,346.055,-320.247,-292.688,-238.012,-221.494,-2774.500,525.760,-83.220
913,64543.209000,-11.258,353.138,-316.293,-313.914,-228.184,-187.659,-2617.500,530.760,-116.220
914,64543.226000,5.384,338.972,-326.178,-319.207,-216.548,-170.843,-2323.500,735.760,-107.220
915,64543.251000,53.354,322.783,-355.830,-323.849,-210.746,-132.374,-2004.500,522.760,9.780
916,64543.266000,15.174,306.593,-375.598,-326.588,-197.221,-94.932,-1545.500,-194.240,163.780
917,64543.284000,-37.690,291.415,-389.436,-330.763,-193.329,-82.065,-987.500,-497.240,327.780
918,64543.306000,-58.249,283.320,-402.286,-333.085,-185.588,-65.297,-415.500,-404.240,349.780
919,64543.329000,-69.996,270.166,-413.158,-328.237,-182.731,-64.402,173.500,-204.240,258.780
920,64543.356000,-56.291,261.059,-398.332,-330.825,-188.493,-81.085,696.500,34.760,98.780
921,64543.375000,-34.753,260.047,-376.587,-332.512,-193.299,-93.847,927.500,98.760,-61.220
922,64543.404000,-23.985,268.142,-365.714,-328.890,-205.870,-126.384,1344.500,161.760,-134.220
923,64543.411000,-8.321,286.356,-350.888,-322.186,-215.555,-168.823,1736.500,248.760,-231.220
924,64543.434000,19.090,301.534,-337.050,-317.847,-220.407,-190.552,2090.500,240.760,-233.220
925,64543.450000,40.627,318.735,-332.108,-298.598,-222.474,-227.315,2393.500,84.760,-162.220
926,64543.476000,48.459,331.889,-325.189,-285.479,-224.503,-249.202,2686.500,-99.240,-80.220
927,64543.500000,54.333,331.889,-317.282,-256.496,-230.535,-281.211,2952.500,-219.240,-2.220
928,64543.521000,55.312,328.854,-312.340,-241.541,-232.588,-296.240,3190.500,-273.240,61.780
929,64543.541000,66.080,319.747,-307.398,-208.756,-239.629,-321.423,3366.500,-386.240,118.780
930,64543.556000,79.786,306.593,-296.525,-167.181,-250.623,-343.803,3431.500,-511.240,135.780
931,64543.586000,70.975,292.427,-280.710,-141.575,-251.813,-353.115,3526.500,-760.240,136.780
932,64543.601000,59.228,269.154,-266.873,-95.314,-266.734,-361.792,3574.500,-798.240,124.780
933,64543.629000,54.333,254.988,-248.093,-78.540,-274.621,-366.017,3588.500,-725.240,111.780
934,64543.648000,62.164,221.597,-223.382,-29.465,-285.704,-369.826,3543.500,-697.240,130.780
935,64543.666000,67.059,193.265,-207.568,-4.075,-291.746,-364.361,3445.500,-813.240,142.780
936,64543.686000,57.270,165.945,-191.753,37.995,-306.647,-357.212,3321.500,-915.240,143.780
937,64543.706000,45.522,130.530,-173.961,62.391,-316.553,-348.772,3179.500,-925.240,126.780
938,64543.721000,31.816,106.245,-165.066,100.469,-330.455,-337.616,3041.500,-874.240,82.780
939,64543.744000,25.943,79.937,-146.286,137.300,-341.460,-312.659,2973.500,-847.240,53.780
940,64543.761000,13.216,53.628,-136.402,153.867,-349.358,-305.068,2830.500,-772.240,18.780
941,64543.775000,8.321,24.285,-126.517,177.958,-354.441,-281.861,2689.500,-641.240,-3.220
942,64543.794000,19.090,20.237,-117.622,199.314,-360.454,-269.434,2498.500,-708.240,-0.220
943,64543.826000,9.300,-3.036,-114.656,220.444,-368.415,-243.218,2381.500,-843.240,48.780
944,64543.846000,-12.237,-30.356,-110.703,225.123,-379.119,-225.568,2277.500,-784.240,80.780
945,64543.864000,-19.090,-45.534,-102.795,256.004,-385.235,-198.543,2228.500,-662.240,97.780
946,64543.886000,-24.964,-59.700,-90.934,263.462,-392.102,-174.055,2176.500,-542.240,115.780
947,64543.904000,-31.816,-80.949,-82.039,267.134,-394.087,-159.351,2142.500,-479.240,132.780
948,64543.921000,-24.964,-102.198,-62.270,278.505,-399.055,-135.920,2059.500,-414.240,130.780
949,64543.945000,-25.943,-117.375,-40.525,288.126,-402.056,-125.257,1931.500,-437.240,147.780
950,64543.968000,-34.753,-128.506,-21.745,294.596,-406.012,-101.740,1763.500,-408.240,177.780
951,64543.988000,-45.522,-140.648,-0.988,298.347,-410.896,-89.987,1572.500,-343.240,189.780
952,64544.10000,-48.459,-154.814,15.815,296.149,-414.764,-74.193,1357.500,-309.240,195.780
953,64544.28000,-43.564,-174.040,25.699,295.872,-416.715,-57.450,1109.500,-373.240,149.780
954,64544.64000,-51.396,-174.040,35.583,301.623,-420.647,-48.687,861.500,-314.240,81.780
955,64544.78000,-68.038,-182.134,48.432,307.338,-416.837,-41.901,587.500,-43.240,11.780
956,64544.96000,-56.291,-197.312,74.131,306.359,-418.764,-40.897,433.500,96.760,-31.220
957,64544.114000,-42.585,-202.372,80.062,305.467,-416.815,-46.791,93.500,298.760,-109.220
958,64544.136000,-23.985,-202.372,82.039,302.565,-410.979,-51.668,-299.500,414.760,-133.220
959,64544.159000,-10.279,-191.241,76.108,297.940,-408.015,-68.326,-743.500,410.760,-114.220
960,64544.181000,-5.384,-166.957,73.143,303.975,-407.092,-78.278,-1197.500,402.760,-58.220
961,64544.196000,-0.489,-138.625,67.212,294.509,-402.145,-98.790,-1617.500,483.760,17.780
962,64544.216000,8.321,-113.328,54.363,287.173,-399.142,-128.197,-1993.500,622.760,101.780
963,64544.239000,18.111,-86.008,33.606,273.777,-398.033,-145.682,-2354.500,743.760,181.780
964,64544.253000,34.753,-66.783,13.838,249.867,-393.908,-178.735,-2684.500,781.760,254.780
965,64544.273000,40.627,-47.557,-22.734,237.439,-387.968,-198.211,-2852.500,736.760,279.780
966,64544.300000,25.943,-11.130,-60.293,206.698,-383.780,-232.128,-3157.500,581.760,277.780
967,64544.309000,10.279,22.261,-95.876,193.189,-381.709,-243.705,-3326.500,606.760,239.780
968,64544.336000,16.153,42.498,-118.610,157.449,-371.674,-274.587,-3434.500,862.760,199.780
969,64544.356000,28.880,70.830,-157.158,114.808,-359.645,-303.380,-3569.500,1066.760,122.780
970,64544.374000,30.837,104.221,-199.660,89.477,-348.760,-314.758,-3663.500,1009.760,14.780
971,64544.396000,23.985,129.518,-217.452,42.729,-330.898,-335.610,-3654.500,960.760,-91.220
972,64544.419000,19.090,151.779,-216.463,24.214,-323.950,-343.166,-3685.500,1105.760,-156.220
973,64544.439000,29.859,188.206,-251.058,-25.720,-301.236,-352.154,-3772.500,1262.760,-219.220
974,64544.464000,25.943,218.561,-286.641,-42.322,-295.275,-356.789,-3753.500,1281.760,-257.220
975,64544.486000,35.732,233.739,-282.687,-90.403,-272.585,-359.903,-3623.500,1432.760,-323.220
976,64544.509000,67.059,251.953,-273.792,-133.617,-256.716,-358.172,-3519.500,1493.760,-367.220
977,64544.526000,87.618,276.237,-287.629,-155.336,-248.788,-350.906,-3527.500,1229.760,-390.220
978,64544.543000,82.723,300.522,-303.444,-199.794,-237.765,-331.428,-3522.500,786.760,-376.220
979,64544.564000,56.291,309.628,-303.444,-210.722,-238.644,-321.389,-3388.500,499.760,-306.220
980,64544.584000,36.711,316.711,-303.444,-244.512,-228.692,-296.191,-3202.500,489.760,-237.220
981,64544.606000,29.859,323.794,-295.537,-263.424,-225.637,-279.125,-3007.500,642.760,-227.220
982,64544.629000,44.543,322.783,-304.432,-292.330,-218.634,-252.041,-2862.500,719.760,-192.220
983,64544.651000,77.828,323.794,-324.201,-298.504,-217.629,-235.198,-2760.500,582.760,-182.220
984,64544.669000,40.627,321.771,-328.154,-315.779,-215.579,-199.454,-2405.500,57.760,-178.220
985,64544.686000,-7.342,309.628,-317.282,-330.120,-209.683,-165.736,-1980.500,-9.240,-119.220
986,64544.711000,-24.964,301.534,-314.317,-322.551,-209.768,-151.103,-1596.500,385.760,-63.220
987,64544.731000,-5.384,286.356,-308.386,-330.919,-196.177,-127.344,-1259.500,838.760,48.780
988,64544.754000,35.732,274.213,-294.548,-334.020,-189.384,-121.390,-953.500,925.760,143.780
989,64544.769000,56.291,256.000,-299.490,-332.421,-178.775,-106.664,-566.500,465.760,225.780
990,64544.789000,33.774,242.846,-307.398,-328.550,-177.845,-104.765,-200.500,164.760,230.780
991,64544.811000,24.964,240.822,-317.282,-332.492,-172.972,-105.685,168.500,113.760,184.780
992,64544.831000,26.922,240.822,-326.178,-335.219,-172.934,-117.450,362.500,59.760,136.780
993,64544.854000,35.732,245.881,-330.131,-335.928,-177.749,-130.230,734.500,28.760,48.780
994,64544.874000,38.669,258.024,-337.050,-335.400,-180.623,-158.785,1096.500,0.760,4.780
995,64544.891000,49.438,273.202,-349.900,-332.178,-185.473,-172.619,1472.500,-25.240,29.780
996,64544.948000,66.080,291.415,-355.830,-323.684,-184.539,-211.164,1859.500,-144.240,95.780
997,64544.948000,73.912,310.640,-358.795,-313.533,-194.286,-227.083,2230.500,-353.240,155.780
998,64544.956000,75.870,333.913,-372.633,-290.387,-198.326,-261.944,2615.500,-556.240,217.780
999,64544.975000,71.954,343.020,-372.633,-263.335,-203.370,-295.888,3010.500,-636.240,272.780
1000,64544.996000,69.017,356.174,-359.784,-254.242,-206.338,-310.812,3184.500,-637.240,310.780
