Sample, Time, ACCX, ACCY, ACCZ, MAGX, MAGY, MAGZ, GYRX, GYRY, GYRZ
0,64280.594000,-55.312,-3.036,-240.185,20.696,-381.062,-280.032,18.500,-5.240,1.780
1,64280.614000,-56.291,-2.024,-241.174,19.700,-379.119,-280.017,16.500,-23.240,-2.220
2,64280.634000,-58.249,-3.036,-239.197,23.588,-380.123,-278.115,14.500,-26.240,-4.220
3,64280.656000,-57.270,-2.024,-239.197,20.723,-382.029,-281.016,11.500,-23.240,-5.220
4,64280.671000,-55.312,-3.036,-237.220,26.577,-384.019,-279.148,12.500,-24.240,-5.220
5,64280.696000,-58.249,-1.012,-237.220,24.619,-382.065,-280.100,12.500,-28.240,-2.220
6,64280.719000,-57.270,-4.047,-236.232,25.554,-379.173,-279.136,14.500,-22.240,-1.220
7,64280.726000,-57.270,-4.047,-238.208,24.550,-380.133,-277.148,13.500,-8.240,-3.220
8,64280.747000,-58.249,-3.036,-236.232,21.683,-380.103,-281.035,6.500,-1.240,-7.220
9,64280.768000,-56.291,-4.047,-237.220,269.181,-381.389,-282.459,4.500,-0.240,-10.220
10,64280.791000,-56.291,-3.036,-237.220,25.545,-378.205,-279.137,1.500,-0.240,-8.220
11,64280.817000,-56.291,-2.024,-240.185,21.684,-383.974,-279.061,-0.500,0.760,-6.220
12,64280.834000,-57.270,-2.024,-239.197,23.624,-383.993,-278.111,-1.500,17.760,-7.220
13,64280.861000,-54.333,-2.024,-238.208,24.575,-379.164,-279.118,0.500,21.760,-7.220
14,64280.874000,-56.291,-4.047,-238.208,24.576,-381.100,-278.132,-0.500,23.760,-6.220
15,64280.893000,-56.291,-3.036,-238.208,28.533,-380.165,-281.156,-1.500,36.760,-2.220
16,64280.919000,-57.270,-2.024,-239.197,27.607,-382.089,-283.106,-0.500,58.760,0.780
17,64280.947000,-56.291,-3.036,-238.208,30.445,-375.346,-281.195,-1.500,81.760,0.780
18,64280.966000,-53.354,-2.024,-239.197,27.579,-377.251,-284.096,-0.500,79.760,1.780
19,64280.984000,-52.375,-2.024,-237.220,21.648,-376.233,-281.039,-3.500,42.760,2.780
20,64280.999000,-54.333,-3.036,-238.208,29.485,-377.272,-281.176,-6.500,6.760,0.780
21,64281.24000,-55.312,-3.036,-239.197,22.695,-376.238,-284.995,-7.500,8.760,-0.220
22,64281.54000,-54.333,-2.024,-241.174,20.695,-377.191,-282.005,-7.500,9.760,-0.220
23,64281.54000,-55.312,-3.036,-241.174,24.644,-377.224,-284.044,-10.500,-2.240,-2.220
24,64281.82000,-56.291,-2.024,-241.174,24.652,-374.320,-286.016,-8.500,15.760,-1.220
25,64281.102000,-53.354,-2.024,-240.185,21.726,-379.132,-283.990,-4.500,24.760,-3.220
26,64281.124000,-54.333,-3.036,-243.151,21.682,-374.295,-283.995,0.500,12.760,-5.220
27,64281.144000,-54.333,-2.024,-240.185,28.549,-374.357,-285.101,1.500,12.760,-5.220
28,64281.167000,-54.333,-2.024,-242.162,24.635,-374.321,-285.032,3.500,12.760,-5.220
29,64281.173000,-53.354,-3.036,-240.185,27.535,-374.350,-283.114,4.500,16.760,-5.220
30,64281.221000,-53.354,-2.024,-240.185,19.725,-374.278,-283.960,5.500,16.760,-6.220
31,64281.249000,-55.312,-2.024,-240.185,23.682,-375.279,-285.998,4.500,17.760,-7.220
32,64281.253000,-54.333,-2.024,-241.174,20.773,-376.218,-286.930,5.500,31.760,-7.220
33,64281.269000,-54.333,-2.024,-241.174,26.644,-374.336,-288.021,9.500,39.760,-3.220
34,64281.292000,-53.354,-3.036,-240.185,23.742,-372.372,-290.925,9.500,37.760,-3.220
35,64281.312000,-52.375,-2.024,-240.185,26.617,-371.434,-288.023,8.500,23.760,-3.220
36,64281.333000,-52.375,-3.036,-238.208,25.639,-375.296,-286.033,3.500,6.760,-2.220
37,64281.358000,-52.375,-4.047,-238.208,22.756,-377.203,-287.948,3.500,-2.240,1.780
38,64281.376000,-52.375,-3.036,-238.208,19.733,-371.373,-285.933,1.500,-3.240,1.780
39,64281.394000,-53.354,-3.036,-239.197,25.699,-372.389,-290.960,-0.500,-6.240,-4.220
40,64281.409000,-53.354,-2.024,-239.197,28.591,-371.451,-289.043,-3.500,-8.240,-8.220
41,64281.432000,-54.333,-3.036,-238.208,27.630,-373.376,-289.024,-7.500,-2.240,-11.220
42,64281.454000,-52.375,-4.047,-239.197,21.742,-373.324,-287.935,-8.500,10.760,-8.220
43,64281.472000,-52.375,-3.036,-240.185,29.544,-372.429,-287.090,-9.500,-2.240,-9.220
44,64281.493000,-53.354,-2.024,-240.185,25.604,-373.363,-285.050,-9.500,-4.240,-6.220
45,64281.508000,-53.354,-2.024,-240.185,21.708,-373.326,-285.966,-9.500,4.760,-6.220
46,64281.526000,-51.396,-2.024,-241.174,26.617,-373.370,-287.037,-9.500,0.760,-8.220
47,64281.551000,-51.396,-2.024,-241.174,27.570,-372.412,-286.070,-9.500,-10.240,-7.220
48,64281.574000,-52.375,-4.047,-242.162,25.691,-373.358,-289.974,-8.500,-10.240,-5.220
49,64281.599000,-51.396,-3.036,-240.185,22.694,-370.431,-287.955,-6.500,-4.240,-5.220
50,64281.623000,-52.375,-3.036,-242.162,21.750,-370.420,-289.907,-2.500,-3.240,-5.220
51,64281.648000,-51.396,-3.036,-242.162,27.570,-372.412,-286.070,-1.500,-5.240,-4.220
52,64281.663000,-52.375,-3.036,-241.174,25.639,-373.361,-287.019,-1.500,-2.240,-3.220
53,64281.704000,-51.396,-3.036,-241.174,20.737,-372.349,-286.934,2.500,-9.240,-3.220
54,64281.718000,-52.375,-3.036,-240.185,24.660,-373.352,-287.002,4.500,-8.240,0.780
55,64281.727000,-53.354,-2.024,-240.185,26.652,-373.368,-289.006,7.500,12.760,3.780
56,64281.744000,-51.396,-2.024,-240.185,22.747,-374.299,-288.936,6.500,8.760,3.780
57,64281.761000,-50.417,-3.036,-241.174,22.693,-368.495,-288.942,5.500,-2.240,0.780
58,64281.782000,-52.375,-3.036,-239.197,24.694,-371.414,-289.958,3.500,-18.240,-1.220
59,64281.804000,-52.375,-4.047,-240.185,25.691,-373.358,-289.974,3.500,-11.240,-1.220
60,64281.827000,-53.354,-3.036,-239.197,31.510,-373.414,-287.123,4.500,-3.240,-2.220
61,64281.853000,-52.375,-4.047,-238.208,22.764,-374.298,-289.921,2.500,-0.240,-1.220
62,64281.862000,-51.396,-2.024,-239.197,28.635,-374.352,-290.025,0.500,1.760,-2.220
63,64281.889000,-51.396,-5.059,-238.208,26.626,-372.401,-288.023,-3.500,-5.240,-5.220
64,64281.912000,-52.375,-3.036,-238.208,23.690,-372.374,-287.971,-8.500,-11.240,-4.220
65,64281.932000,-52.375,-3.036,-240.185,24.686,-372.382,-288.973,-5.500,-9.240,-1.220
66,64281.952000,-52.375,-3.036,-239.197,27.665,-373.375,-290.993,-6.500,-2.240,-0.220
67,64281.984000,-51.396,-3.036,-240.185,26.608,-372.402,-287.038,-5.500,5.760,-1.220
68,64282.3000,-52.375,-3.036,-240.185,18.798,-372.330,-287.884,-4.500,6.760,-2.220
69,64282.17000,-52.375,-3.036,-241.174,26.670,-375.302,-289.004,-6.500,-2.240,-1.220
70,64282.49000,-52.375,-3.036,-239.197,25.647,-372.392,-288.005,-10.500,-10.240,-0.220
71,64282.52000,-53.354,-2.024,-241.174,27.612,-369.506,-290.012,-10.500,-10.240,-2.220
72,64282.73000,-51.396,-2.024,-242.162,22.712,-372.366,-287.953,-8.500,-5.240,-2.220
73,64282.93000,-51.396,-3.036,-242.162,27.570,-374.348,-285.084,-5.500,-3.240,-2.220
74,64282.111000,-52.375,-3.036,-242.162,29.552,-371.460,-288.075,-4.500,-5.240,-0.220
75,64282.128000,-52.375,-3.036,-241.174,23.690,-370.439,-288.957,-4.500,-5.240,-0.220
76,64282.156000,-53.354,-2.024,-241.174,26.617,-371.434,-288.023,-4.500,-1.240,-2.220
77,64282.173000,-51.396,-4.047,-242.162,23.691,-374.310,-286.984,-4.500,0.760,-5.220
78,64282.196000,-52.375,-4.047,-240.185,24.660,-371.416,-287.989,-3.500,-3.240,-6.220
79,64282.216000,-51.396,-3.036,-242.162,18.771,-369.428,-287.887,-0.500,-9.240,-6.220
80,64282.233000,-51.396,-4.047,-240.185,23.664,-371.408,-286.987,1.500,-11.240,-6.220
81,64282.254000,-52.375,-3.036,-241.174,26.669,-371.431,-290.978,1.500,-1.240,-5.220
82,64282.275000,-50.417,-2.024,-242.162,28.600,-372.418,-289.042,1.500,-4.240,-2.220
83,64282.293000,-51.396,-3.036,-241.174,21.672,-371.392,-284.983,-0.500,-19.240,-0.220
84,64282.316000,-52.375,-3.036,-240.185,21.786,-374.290,-289.904,1.500,-16.240,0.780
85,64282.338000,-52.375,-2.024,-240.185,22.694,-372.367,-286.969,1.500,-2.240,1.780
86,64282.379000,-51.396,-2.024,-239.197,20.737,-370.413,-287.921,-0.500,-3.240,0.780
87,64282.399000,160.061,348.079,-116.633,20.712,-373.318,-284.963,-1249.500,513.760,125.780
88,64282.413000,4.405,89.043,-180.880,17.813,-381.033,-282.934,-727.500,-790.240,51.780
89,64282.421000,-150.272,33.391,-225.359,19.633,-386.866,-272.131,-259.500,-602.240,-52.220
90,64282.443000,-108.176,2.024,-248.093,11.812,-380.019,-275.938,104.500,446.760,23.780
91,64282.463000,-23.985,1.012,-237.220,10.928,-377.101,-282.817,105.500,444.760,33.780
92,64282.482000,-49.438,2.024,-250.069,14.815,-372.298,-283.876,-90.500,196.760,-14.220
93,64282.498000,-62.164,4.047,-270.826,18.755,-375.236,-283.942,-70.500,80.760,-22.220
94,64282.516000,-56.291,1.012,-268.849,15.880,-374.238,-287.830,-22.500,61.760,-14.220
95,64282.543000,-62.164,4.047,-264.896,10.927,-373.229,-284.790,0.500,73.760,1.780
96,64282.562000,-53.354,3.036,-256.988,14.884,-372.294,-287.815,30.500,71.760,9.780
97,64282.584000,-52.375,3.036,-253.035,10.996,-373.225,-288.729,50.500,-14.240,15.780
98,64282.602000,-58.249,2.024,-249.081,13.862,-373.256,-284.842,65.500,-34.240,9.780
99,64282.624000,-57.270,1.012,-246.116,17.854,-374.255,-288.850,71.500,2.760,2.780
100,64282.647000,-56.291,1.012,-241.174,18.850,-374.263,-289.852,71.500,41.760,-3.220
101,64282.669000,-54.333,0.000,-237.220,24.694,-371.414,-289.958,64.500,43.760,-12.220
102,64282.693000,-52.375,-1.012,-235.243,14.883,-370.359,-288.802,61.500,20.760,-18.220
103,64282.723000,-50.417,-1.012,-234.255,15.889,-373.270,-288.816,48.500,1.760,-24.220
104,64282.737000,-52.375,-1.012,-233.266,18.859,-373.294,-290.837,38.500,-6.240,-26.220
105,64282.757000,-52.375,-1.012,-232.278,19.776,-372.339,-287.901,29.500,-7.240,-25.220
106,64282.775000,-52.375,-1.012,-234.255,15.897,-374.237,-288.815,20.500,2.760,-25.220
107,64282.793000,-52.375,-1.012,-234.255,24.686,-372.382,-288.973,10.500,10.760,-28.220
108,64282.814000,-51.396,-2.024,-234.255,19.776,-370.403,-288.888,-1.500,8.760,-29.220
109,64282.847000,-51.396,-1.012,-236.232,20.755,-372.348,-287.919,-8.500,2.760,-26.220
110,64282.866000,-50.417,-1.012,-236.232,18.815,-370.393,-289.856,-11.500,1.760,-21.220
111,64282.894000,-50.417,-1.012,-236.232,21.786,-374.290,-289.904,-13.500,3.760,-17.220
112,64282.898000,-50.417,0.000,-239.197,19.802,-373.305,-288.885,-16.500,-0.240,-15.220
113,64282.917000,-49.438,-1.012,-241.174,19.802,-371.370,-289.872,-20.500,-9.240,-13.220
114,64282.942000,-51.396,-1.012,-241.174,19.820,-373.304,-289.870,-23.500,-2.240,-11.220
115,64282.963000,-51.396,0.000,-242.162,23.699,-371.406,-288.956,-19.500,-4.240,-10.220
116,64282.981000,-51.396,0.000,-243.151,22.711,-370.430,-288.940,-12.500,-2.240,-3.220
117,64283.1000,-50.417,-1.012,-243.151,20.824,-374.280,-290.871,-5.500,3.760,4.780
118,64283.22000,-50.417,0.000,-243.151,27.622,-372.409,-289.025,-3.500,-0.240,11.780
119,64283.44000,-50.417,0.000,-242.162,19.776,-372.339,-287.901,-1.500,-2.240,15.780
120,64283.72000,-50.417,0.000,-241.174,17.889,-372.317,-291.806,-0.500,-7.240,16.780
121,64283.82000,-52.375,0.000,-241.174,17.854,-374.255,-288.850,1.500,-10.240,14.780
122,64283.104000,-52.375,-1.012,-241.174,19.829,-374.272,-289.869,2.500,-8.240,10.780
123,64283.127000,-52.375,0.000,-240.185,21.751,-372.356,-288.921,3.500,-1.240,8.780
124,64283.149000,-51.396,-1.012,-240.185,17.845,-371.352,-289.837,2.500,-1.240,4.780
125,64283.179000,-51.396,-1.012,-241.174,15.836,-369.401,-287.835,-0.500,-7.240,4.780
126,64283.189000,-52.375,-1.012,-239.197,18.841,-373.295,-289.853,-4.500,-13.240,2.780
127,64283.212000,-53.354,-1.012,-240.185,20.737,-370.413,-287.921,-6.500,-12.240,0.780
128,64283.237000,-53.354,-1.012,-239.197,16.867,-371.343,-289.820,-7.500,-8.240,-2.220
129,64283.251000,-52.375,0.000,-241.174,16.884,-373.278,-289.818,-8.500,-2.240,-4.220
130,64283.266000,-52.375,0.000,-241.174,20.780,-371.378,-289.889,-6.500,-3.240,-5.220
131,64283.283000,-52.375,0.000,-239.197,19.820,-373.304,-289.870,-8.500,-3.240,-5.220
132,64283.314000,-51.396,-1.012,-241.174,14.857,-369.392,-287.818,-8.500,-0.240,-5.220
133,64283.333000,-52.375,0.000,-241.174,25.681,-368.519,-291.948,-11.500,-4.240,-5.220
134,64283.349000,-51.396,0.000,-240.185,22.755,-373.331,-289.922,-12.500,-3.240,-8.220
135,64283.371000,-51.396,0.000,-242.162,21.802,-372.353,-291.875,-10.500,-4.240,-6.220
136,64283.393000,-51.396,0.000,-242.162,21.820,-374.288,-291.873,-6.500,-2.240,-3.220
137,64283.416000,-51.396,0.000,-243.151,13.922,-370.349,-289.769,-5.500,-2.240,-2.220
138,64283.433000,-50.417,0.000,-242.162,17.819,-370.385,-288.854,-4.500,-3.240,0.780
139,64283.455000,-51.396,0.000,-242.162,18.789,-371.363,-287.885,-3.500,-10.240,4.780
140,64283.473000,-52.375,0.000,-242.162,18.788,-369.427,-288.872,-2.500,-8.240,5.780
141,64283.487000,-50.417,0.000,-241.174,19.819,-371.369,-290.857,0.500,-5.240,8.780
142,64283.501000,-52.375,0.000,-243.151,17.907,-376.188,-290.817,1.500,-10.240,9.780
143,64283.532000,-52.375,-1.012,-240.185,13.896,-371.318,-287.799,3.500,-9.240,12.780
144,64283.554000,-52.375,1.012,-240.185,14.840,-369.393,-286.833,0.500,-6.240,11.780
145,64283.577000,-52.375,0.000,-238.208,19.776,-370.403,-288.888,-0.500,-11.240,9.780
146,64283.609000,-52.375,0.000,-240.185,19.793,-370.402,-289.873,-1.500,-11.240,6.780
147,64283.637000,-53.354,0.000,-241.174,14.944,-371.323,-291.755,-3.500,-10.240,6.780
148,64283.651000,-52.375,0.000,-239.197,16.797,-371.347,-285.881,-0.500,-6.240,6.780
149,64283.657000,-53.354,0.000,-241.174,15.897,-372.301,-289.802,-0.500,-1.240,5.780
150,64283.691000,-52.375,0.000,-238.208,21.698,-368.487,-287.940,-3.500,-5.240,4.780
151,64283.704000,-53.354,-1.012,-240.185,13.957,-372.283,-290.752,-5.500,-16.240,2.780
152,64283.724000,-53.354,0.000,-241.174,18.797,-370.394,-288.871,-6.500,-11.240,-0.220
153,64283.747000,-53.354,1.012,-240.185,20.790,-374.282,-288.902,-4.500,0.760,-1.220
154,64283.767000,-52.375,0.000,-242.162,13.861,-369.384,-286.816,-6.500,-1.240,-3.220
155,64283.779000,-53.354,0.000,-241.174,13.896,-369.382,-288.785,-4.500,-14.240,-2.220
156,64283.802000,-53.354,0.000,-241.174,15.889,-373.270,-288.816,-1.500,-15.240,-1.220
157,64283.828000,-53.354,-1.012,-242.162,19.785,-373.306,-287.900,4.500,-10.240,-1.220
158,64283.851000,-52.375,0.000,-239.197,20.728,-369.446,-287.922,3.500,-0.240,-3.220
159,64283.864000,-53.354,0.000,-241.174,11.957,-373.235,-287.762,0.500,-5.240,-2.220
160,64283.893000,-52.375,-1.012,-241.174,17.871,-372.318,-290.821,-5.500,-15.240,-6.220
161,64283.912000,-53.354,1.012,-242.162,20.755,-372.348,-287.919,-4.500,-23.240,-10.220
162,64283.932000,-52.375,0.000,-242.162,22.738,-373.332,-288.937,-0.500,-12.240,-8.220
163,64283.949000,-53.354,1.012,-241.174,20.746,-373.316,-286.933,1.500,-6.240,-6.220
164,64283.972000,-51.396,0.000,-241.174,21.724,-371.389,-287.937,5.500,-1.240,-1.220
165,64283.989000,-52.375,-1.012,-242.162,16.867,-373.279,-288.833,5.500,-10.240,-0.220
166,64284.14000,-52.375,0.000,-240.185,12.953,-373.243,-288.764,3.500,-9.240,-2.220
167,64284.37000,-53.354,0.000,-243.151,13.923,-372.285,-288.782,4.500,-7.240,-6.220
168,64284.53000,-52.375,0.000,-240.185,20.781,-373.314,-288.902,5.500,-5.240,-6.220
169,64284.74000,-52.375,-1.012,-239.197,24.634,-370.450,-287.005,3.500,-5.240,-4.220
170,64284.94000,-52.375,0.000,-241.174,17.837,-372.320,-288.852,4.500,-2.240,-6.220
171,64284.111000,-51.396,-1.012,-239.197,16.823,-370.377,-287.851,1.500,-4.240,-5.220
172,64284.129000,-51.396,0.000,-238.208,16.823,-370.377,-287.851,-0.500,-6.240,-5.220
173,64284.181000,-51.396,-1.012,-239.197,16.823,-368.442,-288.838,-3.500,-13.240,-4.220
174,64284.220000,-52.375,0.000,-240.185,18.789,-373.298,-286.898,-5.500,-14.240,-3.220
175,64284.223000,-52.375,0.000,-241.174,20.755,-372.348,-287.919,-2.500,-7.240,-0.220
176,64284.226000,-52.375,0.000,-241.174,20.711,-371.382,-285.950,1.500,1.760,3.780
177,64284.239000,-52.375,1.012,-239.197,16.849,-371.344,-288.835,-0.500,-2.240,4.780
178,64284.256000,-52.375,0.000,-238.208,15.879,-370.367,-289.804,-5.500,-10.240,4.780
179,64284.277000,-52.375,0.000,-239.197,13.845,-371.321,-284.844,-6.500,-11.240,3.780
180,64284.299000,-52.375,0.000,-241.174,19.742,-372.341,-285.932,-6.500,-13.240,2.780
181,64284.317000,-52.375,0.000,-241.174,10.978,-371.290,-288.731,-6.500,-12.240,1.780
182,64284.342000,-53.354,0.000,-241.174,16.841,-374.248,-286.863,-4.500,-9.240,1.780
183,64284.367000,-52.375,0.000,-241.174,19.794,-374.274,-287.899,-2.500,-7.240,2.780
184,64284.387000,-52.375,0.000,-242.162,20.824,-374.280,-290.871,-0.500,-7.240,0.780
185,64284.417000,-53.354,0.000,-242.162,12.026,-373.231,-291.701,1.500,-6.240,0.780
186,64284.421000,-52.375,0.000,-240.185,19.811,-374.273,-288.884,1.500,-10.240,0.780
187,64284.436000,-52.375,0.000,-243.151,16.893,-372.309,-290.804,3.500,-14.240,-1.220
188,64284.457000,-53.354,0.000,-243.151,20.711,-371.382,-285.950,5.500,-6.240,-2.220
189,64284.477000,-53.354,0.000,-242.162,14.884,-372.294,-287.815,7.500,-1.240,-1.220
190,64284.491000,-52.375,0.000,-242.162,14.867,-372.295,-286.830,9.500,-4.240,0.780
191,64284.518000,-51.396,0.000,-240.185,16.885,-375.213,-288.831,9.500,-11.240,-0.220
192,64284.551000,-52.375,0.000,-240.185,16.867,-373.279,-288.833,11.500,-7.240,1.780
193,64284.566000,-53.354,1.012,-241.174,17.802,-374.258,-285.895,10.500,-3.240,-0.220
194,64284.586000,-53.354,-1.012,-238.208,18.815,-370.393,-289.856,7.500,-2.240,-3.220
195,64284.623000,-52.375,-1.012,-240.185,18.824,-373.296,-288.868,4.500,-9.240,-4.220
196,64284.642000,-52.375,-1.012,-238.208,23.734,-375.276,-288.952,1.500,-8.240,-2.220
197,64284.651000,-51.396,0.000,-240.185,16.771,-370.380,-284.897,0.500,-2.240,1.780
198,64284.674000,-51.396,-1.012,-239.197,20.781,-373.314,-288.902,1.500,-1.240,1.780
199,64284.698000,-53.354,0.000,-240.185,20.799,-375.249,-288.901,-0.500,-10.240,0.780
200,64284.721000,-53.354,-1.012,-239.197,15.880,-372.302,-288.817,-4.500,-12.240,-0.220
201,64284.727000,-52.375,0.000,-241.174,16.850,-375.215,-286.862,-4.500,-6.240,0.780
202,64284.747000,-53.354,0.000,-240.185,15.906,-373.269,-289.801,0.500,-3.240,2.780
203,64284.768000,-53.354,0.000,-240.185,15.871,-373.271,-287.831,4.500,-1.240,4.780
204,64284.789000,-53.354,-1.012,-241.174,14.875,-373.263,-286.829,2.500,-2.240,3.780
205,64284.812000,-52.375,-2.024,-239.197,18.824,-373.296,-288.868,-2.500,-5.240,2.780
206,64284.832000,-54.333,-1.012,-241.174,19.794,-374.274,-287.899,-6.500,-14.240,-1.220
207,64284.854000,-54.333,0.000,-240.185,16.875,-372.310,-289.819,-7.500,-18.240,-7.220
208,64284.878000,-54.333,0.000,-241.174,14.875,-371.327,-287.816,-4.500,-8.240,-8.220
209,64284.898000,-51.396,-1.012,-239.197,10.935,-372.261,-285.776,-1.500,9.760,-8.220
210,64284.921000,-51.396,0.000,-241.174,17.820,-374.257,-286.880,-2.500,-1.240,-1.220
211,64284.939000,-52.375,-1.012,-241.174,20.737,-372.349,-286.934,-2.500,-19.240,3.780
212,64284.968000,-53.354,0.000,-241.174,14.927,-371.324,-290.770,-0.500,-13.240,3.780
213,64284.986000,-52.375,0.000,-241.174,14.910,-373.261,-288.799,-0.500,-2.240,-0.220
214,64285.6000,-53.354,0.000,-241.174,21.725,-373.325,-286.950,1.500,-1.240,-0.220
215,64285.23000,-52.375,-1.012,-241.174,13.941,-376.155,-287.794,1.500,-7.240,-0.220
216,64285.46000,-54.333,0.000,-240.185,17.828,-373.288,-287.866,2.500,-6.240,0.780
217,64285.68000,-52.375,-1.012,-241.174,21.759,-373.323,-288.920,1.500,-4.240,0.780
218,64285.77000,-52.375,-1.012,-241.174,21.768,-374.291,-288.919,-0.500,-1.240,2.780
219,64285.99000,-52.375,-1.012,-240.185,14.884,-372.294,-287.815,-0.500,-9.240,2.780
220,64285.122000,-53.354,0.000,-240.185,20.772,-372.347,-288.903,2.500,-9.240,2.780
221,64285.142000,-53.354,0.000,-240.185,21.707,-369.454,-287.939,4.500,4.760,3.780
222,64285.151000,-52.375,-1.012,-240.185,18.763,-372.332,-285.915,3.500,10.760,4.780
223,64285.183000,-52.375,0.000,-239.197,16.850,-373.280,-287.849,2.500,-1.240,3.780
224,64285.198000,-53.354,-1.012,-241.174,14.919,-374.228,-288.798,-0.500,-11.240,1.780
225,64285.221000,-52.375,0.000,-241.174,16.841,-372.312,-287.850,-2.500,-13.240,-0.220
226,64285.238000,-53.354,0.000,-242.162,15.854,-373.272,-286.846,-0.500,-6.240,0.780
227,64285.266000,-53.354,-1.012,-240.185,11.922,-371.301,-286.779,2.500,-4.240,1.780
228,64285.283000,-52.375,-1.012,-241.174,18.850,-374.263,-289.852,2.500,-4.240,1.780
229,64285.301000,-53.354,0.000,-241.174,17.776,-371.356,-285.898,1.500,-2.240,-2.220
230,64285.337000,-53.354,0.000,-241.174,25.595,-372.395,-285.051,0.500,-2.240,-5.220
231,64285.343000,-53.354,0.000,-242.162,14.910,-371.325,-289.785,0.500,0.760,-4.220
232,64285.371000,-52.375,0.000,-242.162,19.777,-374.275,-286.915,0.500,-1.240,-1.220
233,64285.388000,-52.375,0.000,-241.174,23.612,-369.475,-285.019,2.500,-7.240,-1.220
234,64285.411000,-52.375,0.000,-240.185,21.689,-369.455,-286.954,1.500,-8.240,-4.220
235,64285.443000,-52.375,0.000,-240.185,15.898,-376.173,-287.828,2.500,-2.240,-4.220
236,64285.472000,-52.375,0.000,-240.185,14.884,-372.294,-287.815,-0.500,-3.240,-2.220
237,64285.474000,-52.375,-1.012,-238.208,22.712,-372.366,-287.953,-0.500,-7.240,-5.220
238,64285.501000,-52.375,0.000,-239.197,17.810,-371.354,-287.868,-0.500,-4.240,-6.220
239,64285.514000,-52.375,-1.012,-240.185,15.863,-374.239,-286.845,-1.500,-3.240,-8.220
240,64285.537000,-52.375,-1.012,-240.185,17.828,-373.288,-287.866,-0.500,-6.240,-5.220
241,64285.557000,-52.375,0.000,-238.208,20.764,-373.315,-287.918,1.500,-2.240,-3.220
242,64285.577000,-52.375,-1.012,-241.174,12.874,-368.408,-286.799,0.500,-2.240,-0.220
243,64285.597000,-52.375,0.000,-241.174,14.858,-373.264,-285.844,-1.500,-5.240,-0.220
244,64285.614000,-52.375,0.000,-240.185,20.737,-370.413,-287.921,-2.500,-3.240,-2.220
245,64285.632000,-53.354,-1.012,-239.197,18.815,-370.393,-289.856,-0.500,1.760,-3.220
246,64285.659000,-52.375,-1.012,-240.185,12.935,-371.308,-288.766,-2.500,0.760,-0.220
247,64285.684000,-52.375,-1.012,-240.185,16.893,-374.245,-289.817,-6.500,-9.240,-1.220
248,64285.702000,-52.375,-1.012,-239.197,18.832,-372.328,-289.854,-5.500,-10.240,-4.220
249,64285.724000,-53.354,0.000,-240.185,16.902,-375.212,-289.816,-0.500,-2.240,-4.220
250,64285.744000,-53.354,0.000,-240.185,16.849,-371.344,-288.835,-1.500,4.760,-3.220
251,64285.764000,-52.375,-1.012,-241.174,17.854,-374.255,-288.850,-1.500,0.760,-5.220
252,64285.787000,-52.375,0.000,-242.162,25.622,-373.362,-286.035,-3.500,-3.240,-6.220
253,64285.799000,-52.375,0.000,-242.162,18.772,-373.299,-285.914,-2.500,-7.240,-9.220
254,64285.822000,-52.375,0.000,-241.174,15.862,-372.303,-287.832,0.500,-10.240,-9.220
255,64285.849000,-53.354,0.000,-243.151,12.970,-373.242,-289.749,4.500,-5.240,-6.220
256,64285.867000,-52.375,0.000,-242.162,19.785,-371.371,-288.887,9.500,10.760,-2.220
257,64285.889000,-49.438,0.000,-240.185,19.786,-375.242,-286.914,12.500,3.760,-0.220
258,64285.907000,-52.375,0.000,-241.174,18.841,-371.360,-290.839,11.500,-5.240,1.780
259,64285.924000,-53.354,-1.012,-239.197,19.776,-372.339,-287.901,9.500,-5.240,1.780
260,64285.952000,-52.375,0.000,-240.185,18.859,-373.294,-290.837,7.500,4.760,3.780
261,64285.967000,-51.396,-1.012,-240.185,15.862,-370.367,-288.819,5.500,2.760,2.780
262,64285.998000,-53.354,0.000,-240.185,24.642,-369.481,-287.991,5.500,-2.240,0.780
263,64286.13000,-53.354,-1.012,-240.185,19.784,-369.435,-289.874,4.500,0.760,-1.220
264,64286.33000,-52.375,-1.012,-239.197,21.777,-373.322,-289.905,0.500,5.760,-7.220
265,64286.53000,-53.354,-1.012,-240.185,16.858,-372.311,-288.834,-1.500,2.760,-8.220
266,64286.68000,-53.354,0.000,-239.197,18.780,-372.331,-286.899,-3.500,0.760,-6.220
267,64286.89000,-52.375,-1.012,-239.197,17.810,-371.354,-287.868,-3.500,-2.240,-5.220
268,64286.111000,-51.396,-1.012,-241.174,16.867,-371.343,-289.820,-5.500,-4.240,-7.220
269,64286.129000,-52.375,-1.012,-241.174,23.698,-369.470,-289.943,-7.500,1.760,-11.220
270,64286.167000,-52.375,0.000,-241.174,17.845,-373.288,-288.851,-9.500,-0.240,-12.220
271,64286.196000,-52.375,0.000,-240.185,20.772,-372.347,-288.903,-9.500,2.760,-14.220
272,64286.198000,-52.375,-1.012,-241.174,19.784,-369.435,-289.874,-7.500,1.760,-9.220
273,64286.214000,-51.396,-1.012,-242.162,17.810,-371.354,-287.868,-6.500,-5.240,-6.220
274,64286.237000,-52.375,-1.012,-242.162,18.832,-372.328,-289.854,-5.500,-3.240,-8.220
275,64286.254000,-51.396,-1.012,-241.174,21.723,-367.518,-289.910,-7.500,2.760,-10.220
276,64286.278000,-52.375,-1.012,-241.174,14.927,-371.324,-290.770,-6.500,-2.240,-9.220
277,64286.300000,-52.375,0.000,-242.162,16.850,-373.280,-287.849,-4.500,-2.240,-6.220
278,64286.318000,-51.396,0.000,-241.174,19.767,-371.371,-287.902,-0.500,2.760,-2.220
279,64286.339000,-51.396,0.000,-241.174,16.867,-373.279,-288.833,0.500,2.760,-1.220
280,64286.357000,-51.396,-1.012,-243.151,15.853,-369.400,-288.820,-0.500,0.760,-2.220
281,64286.384000,-51.396,-1.012,-242.162,20.763,-371.379,-288.904,-2.500,-4.240,-1.220
282,64286.404000,-51.396,0.000,-242.162,22.755,-371.395,-290.909,-1.500,-8.240,0.780
283,64286.422000,-52.375,0.000,-241.174,17.871,-372.318,-290.821,1.500,-1.240,2.780
284,64286.442000,-50.417,-1.012,-241.174,16.901,-371.341,-291.790,1.500,8.760,2.780
285,64286.451000,-50.417,0.000,-242.162,23.690,-370.439,-288.957,1.500,-2.240,1.780
286,64286.469000,-51.396,-1.012,-240.185,24.703,-372.381,-289.957,1.500,-15.240,-0.220
287,64286.501000,-53.354,0.000,-243.151,22.729,-370.429,-289.925,3.500,-2.240,2.780
288,64286.514000,-52.375,0.000,-242.162,13.949,-373.251,-289.766,4.500,2.760,4.780
289,64286.542000,-50.417,0.000,-243.151,16.902,-373.277,-290.803,6.500,-3.240,2.780
290,64286.569000,-51.396,-1.012,-242.162,19.776,-370.403,-288.888,8.500,-3.240,1.780
291,64286.598000,-51.396,0.000,-241.174,16.910,-372.308,-291.789,9.500,4.760,2.780
292,64286.612000,-49.438,-1.012,-242.162,270.235,-370.747,-292.335,7.500,-7.240,3.780
293,64286.627000,-52.375,0.000,-242.162,19.837,-371.368,-291.841,8.500,-9.240,5.780
294,64286.647000,-51.396,-1.012,-242.162,18.797,-370.394,-288.871,10.500,-3.240,4.780
295,64286.674000,-51.396,-1.012,-241.174,20.841,-372.343,-292.842,11.500,-0.240,4.780
296,64286.696000,-51.396,-1.012,-240.185,15.913,-368.429,-292.760,10.500,-6.240,5.780
297,64286.709000,-51.396,-1.012,-240.185,20.833,-373.311,-291.857,10.500,-4.240,5.780
298,64286.727000,-51.396,-1.012,-239.197,12.961,-370.339,-290.737,6.500,-3.240,5.780
299,64286.766000,-51.396,-1.012,-239.197,18.885,-374.261,-291.821,3.500,-4.240,0.780
300,64286.781000,-52.375,-1.012,-241.174,20.745,-367.509,-289.893,0.500,-6.240,-3.220
301,64286.785000,-52.375,0.000,-242.162,21.776,-371.386,-290.891,-0.500,-3.240,-3.220
302,64286.802000,-51.396,0.000,-239.197,15.922,-369.396,-292.759,1.500,0.760,0.780
303,64286.827000,-50.417,0.000,-240.185,15.870,-369.399,-289.805,1.500,-3.240,0.780
304,64286.853000,-50.417,-1.012,-241.174,22.763,-370.427,-291.894,0.500,-13.240,-1.220
305,64286.873000,-51.396,-1.012,-241.174,24.659,-367.544,-289.962,2.500,-11.240,-0.220
306,64286.894000,-52.375,-1.012,-242.162,16.901,-371.341,-291.790,3.500,-5.240,1.780
307,64286.918000,-52.375,-1.012,-241.174,17.801,-370.386,-287.869,8.500,-3.240,0.780
308,64286.934000,-51.396,0.000,-240.185,16.884,-371.342,-290.805,8.500,-2.240,0.780
309,64286.952000,-51.396,0.000,-240.185,19.776,-372.339,-287.901,6.500,1.760,-1.220
310,64286.966000,-50.417,-1.012,-240.185,17.845,-371.352,-289.837,3.500,-6.240,0.780
311,64287.13000,-51.396,-1.012,-240.185,20.807,-372.345,-290.873,3.500,-13.240,1.780
312,64287.29000,-51.396,-1.012,-239.197,21.742,-371.388,-288.922,4.500,-7.240,2.780
313,64287.49000,-51.396,0.000,-241.174,22.773,-373.330,-290.907,3.500,-1.240,0.780
314,64287.63000,-51.396,-1.012,-240.185,18.779,-366.524,-289.859,2.500,-3.240,2.780
315,64287.83000,-51.396,0.000,-240.185,16.831,-367.473,-289.824,0.500,-4.240,2.780
316,64287.101000,-52.375,0.000,-239.197,21.758,-369.452,-290.893,-1.500,-2.240,2.780
317,64287.126000,-50.417,-1.012,-240.185,23.733,-371.404,-290.926,-2.500,-5.240,-0.220
318,64287.139000,-51.396,-1.012,-240.185,25.726,-377.227,-289.970,-2.500,-6.240,-1.220
319,64287.162000,-51.396,-1.012,-240.185,17.871,-372.318,-290.821,-4.500,-6.240,1.780
320,64287.184000,-51.396,-1.012,-241.174,18.859,-373.294,-290.837,-4.500,-8.240,-0.220
321,64287.204000,-51.396,-1.012,-242.162,20.815,-371.376,-291.859,-4.500,-9.240,-2.220
322,64287.223000,-52.375,0.000,-242.162,20.815,-369.441,-292.845,-4.500,-4.240,-2.220
323,64287.244000,-51.396,-1.012,-241.174,20.807,-372.345,-290.873,-4.500,-5.240,-1.220
324,64287.264000,-52.375,0.000,-242.162,24.703,-372.381,-289.957,-4.500,-7.240,0.780
325,64287.283000,-51.396,-1.012,-242.162,25.655,-369.488,-289.978,-2.500,-8.240,2.780
326,64287.308000,-51.396,-1.012,-242.162,20.789,-370.410,-290.875,-2.500,-11.240,2.780
327,64287.334000,-52.375,-1.012,-241.174,19.854,-373.302,-291.839,-2.500,-14.240,0.780
328,64287.374000,-51.396,-1.012,-242.162,21.742,-373.324,-287.935,-2.500,-7.240,1.780
329,64287.388000,-51.396,-2.024,-241.174,15.905,-371.333,-290.787,-1.500,-6.240,3.780
330,64287.397000,-52.375,-1.012,-240.185,18.815,-370.393,-289.856,-1.500,-12.240,2.780
331,64287.409000,-52.375,-1.012,-242.162,20.755,-372.348,-287.919,0.500,-5.240,0.780
332,64287.432000,-51.396,-1.012,-242.162,12.927,-372.277,-287.780,0.500,-5.240,-0.220
333,64287.454000,-51.396,-1.012,-242.162,17.836,-368.449,-290.825,1.500,-4.240,0.780
334,64287.477000,-51.396,0.000,-242.162,22.773,-373.330,-290.907,1.500,-5.240,0.780
335,64287.497000,-51.396,-1.012,-241.174,21.767,-370.419,-290.892,1.500,-2.240,0.780
336,64287.520000,-51.396,-1.012,-242.162,19.750,-369.437,-287.904,-0.500,-8.240,0.780
337,64287.535000,-52.375,-1.012,-242.162,19.837,-373.303,-290.855,0.500,-9.240,2.780
338,64287.552000,-52.375,-1.012,-240.185,22.738,-373.332,-288.937,2.500,-4.240,3.780
339,64287.574000,-50.417,-1.012,-240.185,21.795,-375.257,-289.903,2.500,-2.240,4.780
340,64287.608000,-51.396,-1.012,-239.197,14.953,-372.290,-291.754,2.500,-10.240,5.780
341,64287.612000,-51.396,-1.012,-240.185,25.717,-374.324,-290.958,-0.500,-12.240,6.780
342,64287.644000,-52.375,-1.012,-241.174,20.773,-374.283,-287.917,-0.500,-10.240,8.780
343,64287.658000,-51.396,-1.012,-241.174,15.888,-371.334,-289.803,-0.500,-7.240,8.780
344,64287.701000,-53.354,0.000,-240.185,21.715,-368.486,-288.925,-0.500,-13.240,5.780
345,64287.719000,-51.396,0.000,-240.185,269.300,-371.703,-294.286,-0.500,-7.240,5.780
346,64287.722000,-52.375,0.000,-240.185,16.919,-375.211,-290.801,-3.500,-3.240,6.780
347,64287.737000,-52.375,-2.024,-239.197,18.824,-373.296,-288.868,-3.500,-8.240,10.780
348,64287.761000,-52.375,-1.012,-239.197,21.803,-376.224,-289.902,-5.500,-12.240,7.780
349,64287.787000,-53.354,-1.012,-239.197,12.996,-372.273,-291.719,-7.500,-12.240,8.780
350,64287.807000,-53.354,-1.012,-241.174,21.733,-370.421,-288.923,-8.500,-6.240,3.780
351,64287.824000,-52.375,0.000,-241.174,16.884,-373.278,-289.818,-7.500,-7.240,1.780
352,64287.844000,-53.354,-1.012,-241.174,17.872,-374.254,-289.834,-7.500,-6.240,-2.220
353,64287.862000,-52.375,-1.012,-241.174,24.713,-375.285,-288.970,-8.500,-4.240,-4.220
354,64287.887000,-51.396,-1.012,-243.151,19.767,-371.371,-287.902,-9.500,-5.240,-5.220
355,64287.910000,-51.396,-1.012,-241.174,11.974,-371.298,-289.733,-10.500,-11.240,-5.220
356,64287.929000,-51.396,-1.012,-240.185,12.953,-371.307,-289.751,-6.500,-3.240,-3.220
357,64287.944000,-52.375,0.000,-242.162,15.889,-373.270,-288.816,-2.500,6.760,-0.220
358,64287.962000,-50.417,0.000,-241.174,17.862,-371.351,-290.822,-2.500,1.760,-1.220
359,64287.981000,-50.417,0.000,-240.185,13.932,-373.252,-288.781,-3.500,-5.240,-3.220
360,64288.6000,-51.396,-1.012,-239.197,15.888,-371.334,-289.803,-4.500,-8.240,-1.220
361,64288.27000,-51.396,-1.012,-240.185,14.901,-370.358,-289.786,-3.500,1.760,2.780
362,64288.57000,-51.396,-1.012,-241.174,17.810,-371.354,-287.868,-1.500,-0.240,4.780
363,64288.64000,-49.438,0.000,-240.185,16.919,-375.211,-290.801,-4.500,-9.240,5.780
364,64288.112000,-52.375,-1.012,-241.174,17.845,-373.288,-288.851,-6.500,-16.240,7.780
365,64288.112000,-51.396,0.000,-240.185,17.906,-374.252,-291.804,-7.500,-9.240,5.780
366,64288.126000,-52.375,0.000,-240.185,19.819,-371.369,-290.857,-4.500,-4.240,3.780
367,64288.153000,-52.375,0.000,-240.185,11.956,-367.428,-290.722,-5.500,-4.240,2.780
368,64288.171000,-52.375,0.000,-240.185,22.773,-373.330,-290.907,-3.500,-5.240,6.780
369,64288.193000,-51.396,0.000,-241.174,17.845,-373.288,-288.851,-2.500,-4.240,6.780
370,64288.209000,-52.375,-1.012,-239.197,20.780,-369.443,-290.876,-1.500,3.760,3.780
371,64288.230000,-51.396,0.000,-241.174,18.780,-370.395,-287.886,-5.500,6.760,-0.220
372,64288.251000,-51.396,0.000,-241.174,13.905,-372.285,-287.798,-6.500,-2.240,-3.220
373,64288.268000,-52.375,0.000,-241.174,12.969,-369.370,-291.722,-5.500,-4.240,-2.220
374,64288.283000,-50.417,0.000,-242.162,16.910,-372.308,-291.789,-1.500,2.760,-3.220
375,64288.316000,-52.375,1.012,-242.162,14.910,-371.325,-289.785,-0.500,4.760,-3.220
376,64288.334000,-51.396,1.012,-240.185,18.850,-372.327,-290.838,-0.500,-0.240,-1.220
377,64288.362000,-51.396,1.012,-239.197,15.897,-372.301,-289.802,0.500,-2.240,2.780
378,64288.379000,-51.396,0.000,-240.185,14.883,-370.359,-288.802,0.500,-3.240,3.780
379,64288.402000,-51.396,0.000,-241.174,11.947,-368.396,-289.736,-2.500,-2.240,2.780
380,64288.417000,-50.417,-1.012,-241.174,19.758,-368.468,-288.890,-3.500,0.760,-0.220
381,64288.431000,-52.375,0.000,-241.174,17.871,-372.318,-290.821,-2.500,-0.240,-1.220
382,64288.449000,-52.375,0.000,-240.185,20.807,-372.345,-290.873,-1.500,0.760,0.780
383,64288.477000,-51.396,0.000,-238.208,13.965,-369.378,-292.724,-2.500,0.760,0.780
384,64288.498000,-50.417,0.000,-240.185,15.888,-371.334,-289.803,-5.500,-0.240,0.780
385,64288.521000,-51.396,0.000,-240.185,14.909,-369.389,-290.772,-8.500,-4.240,-2.220
386,64288.547000,-52.375,0.000,-242.162,12.000,-370.329,-291.704,-8.500,-9.240,-5.220
387,64288.564000,-52.375,0.000,-242.162,15.941,-375.203,-290.784,-5.500,-6.240,-6.220
388,64288.581000,-52.375,1.012,-242.162,17.853,-370.383,-290.823,-4.500,1.760,-2.220
389,64288.602000,-50.417,0.000,-242.162,11.999,-368.393,-292.691,-2.500,-3.240,0.780
390,64288.629000,-52.375,0.000,-241.174,12.952,-369.371,-290.738,-2.500,-10.240,1.780
391,64288.647000,-51.396,-1.012,-241.174,12.900,-369.374,-287.783,-3.500,-6.240,1.780
392,64288.664000,-50.417,-1.012,-243.151,17.827,-369.417,-289.839,0.500,-7.240,0.780
393,64288.689000,-52.375,0.000,-241.174,18.849,-368.456,-292.812,2.500,-3.240,-2.220
394,64288.709000,-50.417,0.000,-241.174,13.057,-373.237,-294.673,1.500,0.760,-1.220
395,64288.730000,-50.417,0.000,-241.174,14.953,-370.355,-292.741,0.500,0.760,-1.220
396,64288.747000,-49.438,0.000,-241.174,14.874,-369.391,-288.803,-0.500,1.760,-0.220
397,64288.759000,-51.396,1.012,-240.185,12.917,-367.438,-289.755,-1.500,-6.240,2.780
398,64288.778000,-51.396,0.000,-241.174,21.768,-372.355,-289.906,0.500,-9.240,4.780
399,64288.811000,-51.396,0.000,-241.174,15.923,-371.332,-291.772,0.500,-6.240,5.780
400,64288.843000,-50.417,-1.012,-241.174,19.819,-371.369,-290.857,0.500,-1.240,4.780
401,64288.862000,-52.375,0.000,-242.162,22.764,-374.298,-289.921,-0.500,1.760,0.780
402,64288.882000,-51.396,0.000,-241.174,13.004,-369.369,-293.692,-2.500,0.760,-1.220
403,64288.896000,-51.396,0.000,-242.162,17.888,-370.381,-292.793,-5.500,-9.240,-0.220
404,64288.917000,-52.375,1.012,-241.174,15.923,-371.332,-291.772,-4.500,-13.240,1.780
405,64288.939000,-52.375,0.000,-241.174,11.012,-369.353,-291.688,-0.500,-6.240,1.780
406,64288.957000,-51.396,0.000,-241.174,21.759,-371.387,-289.906,0.500,1.760,3.780
407,64288.979000,-50.417,0.000,-240.185,22.737,-371.396,-289.924,-2.500,-3.240,2.780
408,64288.997000,-51.396,0.000,-242.162,12.944,-370.340,-289.752,-2.500,-10.240,-0.220
409,64289.19000,-51.396,0.000,-241.174,15.914,-372.300,-290.786,-1.500,-2.240,0.780
410,64289.39000,-51.396,0.000,-242.162,16.910,-372.308,-291.789,-1.500,-0.240,2.780
411,64289.56000,-51.396,0.000,-241.174,17.896,-369.413,-293.778,-0.500,-10.240,3.780
412,64289.79000,-51.396,0.000,-241.174,9.990,-368.378,-289.702,0.500,-11.240,0.780
413,64289.97000,-53.354,0.000,-242.162,12.952,-369.371,-290.738,-0.500,-9.240,-0.220
414,64289.120000,-51.396,0.000,-242.162,19.811,-372.337,-289.871,-1.500,-0.240,-2.220
415,64289.147000,-51.396,1.012,-240.185,17.888,-370.381,-292.793,-2.500,-4.240,-3.220
416,64289.179000,-51.396,0.000,-241.174,19.818,-367.497,-292.830,-2.500,-13.240,-1.220
417,64289.198000,-51.396,0.000,-240.185,12.961,-372.275,-289.750,-0.500,-7.240,-1.220
418,64289.206000,-50.417,0.000,-240.185,14.936,-372.291,-290.769,-0.500,-5.240,0.780
419,64289.227000,-50.417,0.000,-242.162,18.867,-374.262,-290.836,-2.500,-7.240,0.780
420,64289.242000,-50.417,0.000,-242.162,18.859,-373.294,-290.837,-2.500,-12.240,-1.220
421,64289.268000,-50.417,0.000,-241.174,13.991,-370.345,-293.708,0.500,-13.240,1.780
422,64289.294000,-51.396,1.012,-241.174,17.862,-369.415,-291.809,2.500,-9.240,4.780
423,64289.298000,-50.417,0.000,-239.197,16.831,-367.473,-289.824,4.500,-4.240,10.780
424,64289.346000,-51.396,0.000,-240.185,12.961,-370.339,-290.737,4.500,-11.240,9.780
425,64289.352000,-52.375,0.000,-240.185,10.987,-370.322,-289.717,1.500,-9.240,6.780
426,64289.366000,-50.417,0.000,-240.185,16.892,-368.438,-292.777,-2.500,-13.240,3.780
427,64289.386000,-52.375,0.000,-240.185,19.846,-374.271,-290.854,-2.500,-12.240,4.780
428,64289.408000,-52.375,-1.012,-239.197,11.966,-372.267,-288.748,-1.500,-2.240,4.780
429,64289.422000,-51.396,1.012,-240.185,12.935,-371.308,-288.766,-4.500,-8.240,0.780
430,64289.449000,-51.396,0.000,-240.185,14.910,-373.261,-288.799,-7.500,-13.240,0.780
431,64289.477000,-52.375,1.012,-241.174,12.935,-369.372,-289.753,-7.500,-12.240,2.780
432,64289.496000,-52.375,0.000,-242.162,10.034,-369.344,-291.670,-4.500,-8.240,1.780
433,64289.511000,-52.375,0.000,-241.174,15.967,-376.169,-291.767,-2.500,-6.240,-0.220
434,64289.538000,-52.375,0.000,-241.174,17.828,-371.353,-288.853,-1.500,-7.240,-3.220
435,64289.558000,-51.396,0.000,-241.174,10.025,-370.312,-290.685,-1.500,-9.240,-6.220
436,64289.577000,-52.375,1.012,-241.174,12.935,-369.372,-289.753,-3.500,-0.240,-6.220
437,64289.600000,-50.417,0.000,-240.185,12.909,-370.342,-287.782,-2.500,1.760,-2.220
438,64289.617000,-49.438,0.000,-240.185,17.871,-372.318,-290.821,-5.500,-12.240,1.780
439,64289.631000,-50.417,0.000,-241.174,13.957,-372.283,-290.752,-3.500,-18.240,3.780
440,64289.653000,-51.396,0.000,-241.174,12.953,-371.307,-289.751,-1.500,-11.240,4.780
441,64289.671000,-52.375,1.012,-241.174,15.896,-370.366,-290.788,-1.500,-1.240,4.780
442,64289.697000,-51.396,1.012,-242.162,17.897,-371.349,-292.792,1.500,-0.240,2.780
443,64289.719000,-51.396,1.012,-241.174,12.000,-372.265,-290.717,-1.500,-8.240,0.780
444,64289.741000,-52.375,1.012,-241.174,19.818,-367.497,-292.830,-0.500,-6.240,-0.220
445,64289.756000,-52.375,1.012,-241.174,16.858,-372.311,-288.834,-1.500,-3.240,0.780
446,64289.769000,-52.375,1.012,-243.151,18.840,-369.424,-291.826,2.500,-6.240,1.780
447,64289.794000,-50.417,1.012,-240.185,11.003,-368.385,-291.689,2.500,-2.240,1.780
448,64289.822000,-52.375,0.000,-241.174,13.932,-375.188,-287.795,3.500,-0.240,2.780
449,64289.842000,-50.417,0.000,-241.174,11.957,-371.299,-288.749,0.500,-4.240,2.780
450,64289.862000,-52.375,0.000,-240.185,11.003,-368.385,-291.689,-0.500,-14.240,1.780
451,64289.894000,-51.396,0.000,-242.162,15.888,-369.398,-290.789,-3.500,-6.240,3.780
452,64289.908000,-50.417,0.000,-241.174,14.962,-373.258,-291.753,-2.500,-6.240,0.780
453,64289.927000,-52.375,1.012,-242.162,14.902,-374.229,-287.813,-3.500,-17.240,-1.220
454,64289.941000,-52.375,1.012,-242.162,12.997,-374.208,-290.733,-0.500,-6.240,0.780
455,64289.954000,-50.417,2.024,-241.174,10.996,-371.289,-289.716,2.500,4.760,3.780
456,64289.979000,-51.396,1.012,-242.162,13.940,-372.284,-289.767,5.500,-3.240,6.780
457,64290.2000,-51.396,2.024,-242.162,15.914,-370.365,-291.773,6.500,-8.240,9.780
458,64290.20000,-53.354,0.000,-239.197,10.034,-371.280,-290.684,8.500,-5.240,10.780
459,64290.47000,-53.354,0.000,-240.185,10.969,-370.323,-288.732,7.500,1.760,11.780
460,64290.67000,-52.375,1.012,-241.174,10.034,-371.280,-290.684,6.500,-1.240,6.780
461,64290.82000,-52.375,1.012,-239.197,13.983,-371.313,-292.722,4.500,-17.240,3.780
462,64290.99000,-53.354,0.000,-241.174,11.992,-373.233,-289.732,1.500,-20.240,-1.220
463,64290.124000,-53.354,0.000,-240.185,13.931,-369.380,-290.755,1.500,-8.240,-6.220
464,64290.152000,-53.354,0.000,-240.185,16.840,-370.376,-288.836,-2.500,-4.240,-13.220
465,64290.167000,-53.354,-1.012,-241.174,13.004,-371.304,-292.705,-5.500,-2.240,-18.220
466,64290.184000,-52.375,0.000,-239.197,11.974,-371.298,-289.733,-4.500,-2.240,-21.220
467,64290.212000,-51.396,0.000,-241.174,14.910,-373.261,-288.799,-4.500,-3.240,-22.220
468,64290.232000,-52.375,1.012,-241.174,18.849,-368.456,-292.812,-0.500,4.760,-22.220
469,64290.254000,-52.375,1.012,-241.174,15.888,-371.334,-289.803,1.500,10.760,-19.220
470,64290.274000,-50.417,0.000,-241.174,12.978,-370.338,-291.721,2.500,8.760,-15.220
471,64290.312000,-50.417,0.000,-242.162,12.053,-374.198,-292.685,3.500,-0.240,-12.220
472,64290.331000,-50.417,0.000,-241.174,12.961,-370.339,-290.737,2.500,-6.240,-10.220
473,64290.344000,-51.396,0.000,-242.162,17.845,-373.288,-288.851,7.500,-2.240,-7.220
474,64290.353000,-51.396,0.000,-241.174,265.429,-372.633,-296.185,11.500,12.760,-5.220
475,64290.373000,-49.438,0.000,-244.139,15.922,-369.396,-292.759,11.500,14.760,-6.220
476,64290.393000,-48.459,-1.012,-242.162,14.892,-371.326,-288.801,11.500,4.760,-7.220
477,64290.419000,-50.417,0.000,-242.162,11.991,-371.297,-290.718,11.500,-3.240,-7.220
478,64290.428000,-49.438,0.000,-242.162,13.974,-370.346,-292.723,10.500,-0.240,-4.220
479,64290.457000,-50.417,0.000,-241.174,14.944,-369.387,-292.742,13.500,0.760,-1.220
480,64290.476000,-50.417,0.000,-241.174,18.840,-369.424,-291.826,16.500,-4.240,0.780
481,64290.497000,-50.417,0.000,-240.185,19.845,-372.335,-291.840,15.500,-12.240,2.780
482,64290.522000,-50.417,0.000,-240.185,12.988,-373.241,-290.734,12.500,-11.240,1.780
483,64290.542000,-51.396,-1.012,-239.197,13.896,-371.318,-287.799,6.500,-6.240,0.780
484,64290.557000,-51.396,-1.012,-239.197,14.936,-372.291,-290.769,5.500,-9.240,-4.220
485,64290.574000,-50.417,0.000,-240.185,12.995,-368.401,-293.693,1.500,-12.240,-4.220
486,64290.624000,-52.375,0.000,-241.174,17.827,-367.481,-290.826,0.500,-21.240,-3.220
487,64290.649000,-51.396,0.000,-241.174,20.780,-369.443,-290.876,-0.500,-16.240,-1.220
488,64290.649000,-50.417,0.000,-240.185,12.000,-370.329,-291.704,-0.500,-14.240,-1.220
489,64290.669000,-51.396,0.000,-241.174,13.957,-370.347,-291.739,-1.500,-22.240,-0.220
490,64290.692000,-50.417,0.000,-241.174,14.892,-369.390,-289.787,-2.500,-21.240,1.780
491,64290.711000,-51.396,0.000,-243.151,19.871,-371.366,-293.811,-0.500,-23.240,2.780
492,64290.728000,-51.396,-1.012,-242.162,20.798,-371.377,-290.874,3.500,-24.240,4.780
493,64290.754000,-52.375,0.000,-242.162,14.910,-371.325,-289.785,5.500,-20.240,4.780
494,64290.779000,-52.375,0.000,-241.174,14.954,-374.226,-290.767,7.500,-15.240,2.780
495,64290.794000,-52.375,0.000,-242.162,13.914,-373.253,-287.797,9.500,-9.240,2.780
496,64290.818000,-52.375,0.000,-242.162,13.922,-370.349,-289.769,10.500,-8.240,-2.220
497,64290.832000,-52.375,-1.012,-239.197,14.840,-369.393,-286.833,9.500,-8.240,-6.220
498,64290.859000,-53.354,0.000,-241.174,20.807,-374.281,-289.886,8.500,-3.240,-9.220
499,64290.874000,-52.375,-1.012,-240.185,18.823,-371.361,-289.855,7.500,-7.240,-9.220
500,64290.894000,-51.396,-1.012,-240.185,12.970,-371.306,-290.736,7.500,-16.240,-12.220
501,64290.913000,-53.354,0.000,-240.185,12.961,-370.339,-290.737,8.500,-9.240,-14.220
502,64290.931000,-52.375,0.000,-240.185,22.781,-372.362,-291.892,9.500,-6.240,-15.220
503,64290.958000,-52.375,-1.012,-241.174,14.927,-371.324,-290.770,9.500,-2.240,-14.220
504,64290.981000,-51.396,-1.012,-241.174,22.756,-375.267,-288.935,9.500,-3.240,-16.220
505,64291.3000,-52.375,0.000,-240.185,18.867,-372.326,-291.823,8.500,-3.240,-18.220
506,64291.18000,-51.396,0.000,-239.197,18.867,-374.262,-290.836,6.500,-1.240,-17.220
507,64291.41000,-51.396,-1.012,-240.185,17.854,-372.319,-289.836,7.500,-1.240,-15.220
508,64291.63000,-51.396,-1.012,-240.185,14.918,-372.292,-289.784,9.500,-5.240,-15.220
509,64291.88000,-52.375,-1.012,-240.185,22.763,-370.427,-291.894,8.500,2.760,-12.220
510,64291.101000,-51.396,-1.012,-241.174,20.816,-373.312,-290.872,6.500,2.760,-9.220
511,64291.123000,-50.417,-1.012,-241.174,17.880,-373.286,-290.820,4.500,-2.240,-10.220
512,64291.138000,-50.417,-2.024,-241.174,22.746,-372.364,-289.923,3.500,-4.240,-9.220
513,64291.166000,-51.396,-1.012,-241.174,19.793,-370.402,-289.873,7.500,-2.240,-7.220
514,64291.181000,-51.396,-1.012,-240.185,18.840,-369.424,-291.826,9.500,-1.240,-4.220
515,64291.198000,-49.438,-2.024,-240.185,20.745,-369.445,-288.906,8.500,-2.240,-5.220
516,64291.221000,-51.396,-1.012,-239.197,24.747,-373.347,-291.926,3.500,0.760,-8.220
517,64291.238000,-50.417,-1.012,-242.162,24.694,-371.414,-289.958,-0.500,-0.240,-8.220
518,64291.267000,-51.396,-1.012,-240.185,21.786,-374.290,-289.904,-2.500,-7.240,-7.220
519,64291.287000,-51.396,-1.012,-240.185,16.875,-370.374,-290.806,-1.500,-4.240,-4.220
520,64291.308000,-50.417,-2.024,-241.174,20.772,-372.347,-288.903,-1.500,-4.240,-3.220
521,64291.329000,-51.396,-1.012,-241.174,18.788,-369.427,-288.872,-0.500,-6.240,-2.220
522,64291.354000,-52.375,-2.024,-240.185,22.712,-372.366,-287.953,1.500,-7.240,-1.220
523,64291.374000,-51.396,-1.012,-240.185,16.832,-371.345,-287.850,-1.500,-3.240,-2.220
524,64291.393000,-51.396,-1.012,-242.162,18.850,-374.263,-289.852,-1.500,-1.240,-4.220
525,64291.429000,-51.396,-1.012,-241.174,17.845,-371.352,-289.837,-2.500,-6.240,-5.220
526,64291.438000,-51.396,-1.012,-240.185,21.803,-374.289,-290.888,-2.500,-5.240,-3.220
527,64291.457000,-50.417,-1.012,-241.174,25.681,-368.519,-291.948,-1.500,-5.240,-2.220
528,64291.474000,-49.438,-2.024,-243.151,19.846,-374.271,-290.854,0.500,-6.240,0.780
529,64291.495000,-50.417,-1.012,-241.174,23.699,-373.342,-287.970,2.500,-11.240,1.780
530,64291.517000,-51.396,-1.012,-239.197,15.905,-369.397,-291.774,5.500,-8.240,7.780
531,64291.532000,-50.417,-1.012,-242.162,16.832,-371.345,-287.850,4.500,-7.240,6.780
532,64291.554000,-51.396,-2.024,-241.174,20.772,-370.411,-289.890,3.500,-15.240,5.780
533,64291.571000,-51.396,-1.012,-240.185,22.780,-370.426,-292.879,4.500,-13.240,6.780
534,64291.598000,-52.375,-1.012,-241.174,16.823,-370.377,-287.851,4.500,-3.240,5.780
535,64291.618000,-51.396,-2.024,-240.185,18.807,-373.297,-287.883,4.500,-7.240,2.780
536,64291.638000,-52.375,-1.012,-240.185,20.807,-374.281,-289.886,3.500,-13.240,3.780
537,64291.656000,-52.375,-1.012,-241.174,17.801,-368.451,-288.855,4.500,-12.240,3.780
538,64291.673000,-52.375,-1.012,-243.151,19.758,-370.404,-287.903,4.500,-8.240,4.780
539,64291.694000,-52.375,-1.012,-241.174,24.712,-373.349,-289.956,6.500,-12.240,5.780
540,64291.719000,-51.396,-1.012,-240.185,18.841,-373.295,-289.853,4.500,-8.240,1.780
541,64291.742000,-52.375,-1.012,-240.185,18.893,-373.293,-292.807,5.500,-11.240,-3.220
542,64291.759000,-52.375,-1.012,-240.185,27.622,-374.345,-288.038,6.500,-18.240,-2.220
543,64291.787000,-52.375,-2.024,-240.185,18.754,-369.429,-286.902,6.500,-16.240,0.780
544,64291.802000,-52.375,-1.012,-240.185,22.694,-370.431,-287.955,7.500,-12.240,0.780
545,64291.821000,-53.354,-2.024,-240.185,21.759,-371.387,-289.906,6.500,-6.240,-3.220
546,64291.838000,-52.375,-1.012,-240.185,17.829,-375.224,-286.879,4.500,-10.240,-9.220
547,64291.858000,-52.375,-1.012,-240.185,16.858,-372.311,-288.834,3.500,-14.240,-9.220
548,64291.901000,-52.375,-1.012,-241.174,20.763,-371.379,-288.904,6.500,-14.240,-6.220
549,64291.919000,-51.396,-1.012,-241.174,25.682,-372.390,-289.975,9.500,-5.240,-2.220
550,64291.924000,-51.396,-1.012,-240.185,23.699,-371.406,-288.956,10.500,-5.240,-1.220
551,64291.942000,-51.396,-1.012,-242.162,23.734,-375.276,-288.952,7.500,-16.240,-4.220
552,64291.969000,-53.354,-1.012,-241.174,22.694,-372.367,-286.969,6.500,-16.240,-7.220
553,64291.992000,-52.375,-2.024,-243.151,18.832,-370.392,-290.840,10.500,-3.240,-8.220
554,64292.7000,-52.375,-1.012,-241.174,29.561,-372.428,-288.074,11.500,5.760,-6.220
555,64292.23000,-51.396,-1.012,-240.185,25.638,-369.489,-288.993,12.500,-3.240,-3.220
556,64292.49000,-51.396,-2.024,-239.197,21.750,-370.420,-289.907,10.500,-6.240,-1.220
557,64292.58000,-51.396,-1.012,-240.185,20.773,-374.283,-287.917,4.500,-15.240,-1.220
558,64292.86000,-50.417,-2.024,-240.185,25.638,-371.425,-288.006,1.500,-13.240,-1.220
559,64292.106000,-52.375,-2.024,-241.174,22.695,-374.302,-285.982,2.500,-18.240,-0.220
560,64292.128000,-52.375,-1.012,-242.162,22.712,-372.366,-287.953,3.500,-13.240,1.780
561,64292.146000,-52.375,-2.024,-241.174,25.595,-370.459,-286.038,6.500,-1.240,3.780
562,64292.172000,-52.375,-2.024,-240.185,23.656,-374.312,-285.014,4.500,-3.240,2.780
563,64292.187000,-51.396,-3.036,-240.185,22.747,-376.235,-287.949,2.500,-11.240,-0.220
564,64292.213000,-52.375,-2.024,-240.185,18.780,-372.331,-286.899,1.500,-13.240,-1.220
565,64292.231000,-52.375,-1.012,-240.185,20.737,-372.349,-286.934,2.500,-9.240,-1.220
566,64292.251000,-52.375,-1.012,-241.174,20.790,-374.282,-288.902,5.500,-4.240,-2.220
567,64292.273000,-52.375,-2.024,-240.185,24.669,-372.383,-287.988,4.500,-1.240,-1.220
568,64292.301000,-52.375,-3.036,-238.208,19.794,-374.274,-287.899,2.500,-2.240,-3.220
569,64292.337000,-52.375,-1.012,-240.185,26.661,-376.271,-288.019,1.500,-5.240,-6.220
570,64292.354000,-52.375,-1.012,-240.185,25.674,-375.294,-288.002,3.500,-1.240,-4.220
571,64292.363000,-51.396,-3.036,-239.197,23.716,-373.341,-288.954,3.500,4.760,-4.220
572,64292.377000,-52.375,-3.036,-240.185,19.750,-371.372,-286.918,5.500,12.760,-2.220
573,64292.388000,-51.396,-3.036,-240.185,19.793,-370.402,-289.873,5.500,8.760,2.780
574,64292.407000,-53.354,-2.024,-239.197,24.686,-370.447,-289.959,4.500,5.760,2.780
575,64292.434000,-50.417,-4.047,-240.185,21.742,-373.324,-287.935,0.500,2.760,0.780
576,64292.462000,-50.417,-3.036,-240.185,19.837,-373.303,-290.855,-2.500,-7.240,-4.220
577,64292.479000,-52.375,-5.059,-239.197,17.871,-372.318,-290.821,-5.500,-10.240,-3.220
578,64292.500000,-53.354,-2.024,-240.185,23.733,-371.404,-290.926,-6.500,-10.240,-0.220
579,64292.521000,-52.375,-2.024,-240.185,20.771,-368.475,-290.877,-4.500,-0.240,-0.220
580,64292.543000,-52.375,-4.047,-242.162,17.836,-370.384,-289.838,-3.500,-4.240,-5.220
581,64292.563000,-52.375,-3.036,-240.185,22.686,-373.335,-285.983,-4.500,-4.240,-8.220
582,64292.593000,-53.354,-3.036,-240.185,28.609,-375.321,-288.054,-4.500,3.760,-6.220
583,64292.607000,-50.417,-3.036,-241.174,24.712,-373.349,-289.956,-5.500,6.760,-6.220
584,64292.634000,-51.396,-2.024,-240.185,19.810,-370.401,-290.858,-7.500,-6.240,-7.220
585,64292.644000,-52.375,-2.024,-240.185,27.596,-373.378,-287.054,-6.500,-17.240,-4.220
586,64292.662000,-52.375,-2.024,-239.197,22.746,-370.428,-290.910,-3.500,-6.240,-5.220
587,64292.689000,-51.396,-1.012,-240.185,21.759,-371.387,-289.906,-3.500,5.760,-6.220
588,64292.709000,-51.396,-1.012,-241.174,22.711,-370.430,-288.940,-4.500,-2.240,-5.220
589,64292.718000,-51.396,-1.012,-241.174,19.819,-369.433,-291.843,-4.500,-9.240,-2.220
590,64292.737000,-52.375,-2.024,-240.185,21.776,-371.386,-290.891,-4.500,-5.240,-2.220
591,64292.779000,-52.375,-1.012,-240.185,18.832,-372.328,-289.854,-3.500,4.760,-2.220
592,64292.812000,-52.375,-1.012,-241.174,18.816,-374.265,-287.882,-2.500,5.760,-3.220
593,64292.826000,-51.396,-2.024,-240.185,22.799,-374.296,-291.890,-3.500,1.760,-4.220
594,64292.841000,-52.375,-2.024,-239.197,27.621,-370.473,-290.011,-5.500,-0.240,-5.220
595,64292.858000,-50.417,-2.024,-241.174,30.592,-372.434,-291.046,-6.500,5.760,-6.220
596,64292.872000,-50.417,-2.024,-241.174,21.749,-366.548,-291.881,-5.500,-0.240,-4.220
597,64292.890000,-51.396,-2.024,-241.174,25.673,-371.423,-289.976,-3.500,-3.240,-1.220
598,64292.921000,-51.396,-1.012,-240.185,26.651,-371.432,-289.993,-2.500,7.760,-0.220
599,64292.938000,-50.417,-1.012,-242.162,21.715,-370.422,-287.938,-2.500,4.760,0.780
600,64292.957000,-50.417,-1.012,-239.197,19.854,-371.367,-292.826,-1.500,-1.240,4.780
601,64292.974000,-51.396,-1.012,-241.174,19.845,-372.335,-291.840,-1.500,1.760,4.780
602,64292.997000,-51.396,-1.012,-240.185,22.746,-370.428,-290.910,2.500,12.760,6.780
603,64293.21000,-50.417,-2.024,-240.185,23.681,-369.471,-288.958,1.500,12.760,8.780
604,64293.41000,-52.375,-2.024,-241.174,26.660,-370.463,-290.979,-1.500,-2.240,6.780
605,64293.57000,-50.417,-2.024,-243.151,25.742,-371.419,-293.915,-4.500,-8.240,3.780
606,64293.66000,-53.354,-2.024,-240.185,19.845,-370.399,-292.827,-2.500,-20.240,-0.220
607,64293.103000,-52.375,-1.012,-240.185,22.773,-373.330,-290.907,-5.500,6.760,-0.220
608,64293.137000,-53.354,-2.024,-240.185,24.685,-368.511,-290.946,-5.500,14.760,-3.220
609,64293.151000,-50.417,-3.036,-240.185,27.638,-368.537,-291.983,-8.500,0.760,-9.220
610,64293.181000,-51.396,-2.024,-240.185,24.712,-371.413,-290.943,-10.500,-10.240,-11.220
611,64293.183000,-51.396,-2.024,-241.174,16.919,-373.276,-291.788,-14.500,-13.240,-14.220
612,64293.202000,-50.417,-2.024,-241.174,19.828,-370.400,-291.842,-13.500,-8.240,-12.220
613,64293.222000,-50.417,-1.012,-241.174,21.794,-373.321,-290.889,-9.500,-5.240,-10.220
614,64293.253000,-49.438,-2.024,-242.162,20.799,-375.249,-288.901,-9.500,-0.240,-9.220
615,64293.267000,-49.438,-2.024,-243.151,21.767,-370.419,-290.892,-12.500,-6.240,-11.220
616,64293.288000,-48.459,-1.012,-242.162,20.772,-370.411,-289.890,-11.500,-16.240,-9.220
617,64293.305000,-49.438,-2.024,-242.162,19.872,-373.301,-292.824,-9.500,-6.240,-4.220
618,64293.326000,-48.459,-2.024,-242.162,16.875,-370.374,-290.806,-7.500,-0.240,2.780
619,64293.348000,-47.480,-1.012,-242.162,20.789,-372.346,-289.888,-8.500,-4.240,3.780
620,64293.366000,-48.459,-2.024,-242.162,25.673,-371.423,-289.976,-10.500,-18.240,5.780
621,64293.385000,-51.396,-2.024,-241.174,19.837,-373.303,-290.855,-9.500,-10.240,6.780
622,64293.401000,-49.438,-2.024,-241.174,23.760,-374.306,-290.923,-8.500,-16.240,7.780
623,64293.428000,-49.438,-2.024,-242.162,19.802,-371.370,-289.872,-5.500,-15.240,11.780
624,64293.446000,-51.396,-2.024,-242.162,18.867,-370.390,-292.810,-3.500,-10.240,15.780
625,64293.468000,-51.396,-1.012,-243.151,23.724,-370.437,-290.927,-3.500,-9.240,14.780
626,64293.491000,-50.417,-1.012,-242.162,19.757,-366.533,-289.877,-3.500,-12.240,10.780
627,64293.508000,-51.396,-1.012,-241.174,22.737,-371.396,-289.924,-4.500,-11.240,8.780
628,64293.531000,-51.396,-1.012,-243.151,22.781,-374.297,-290.906,-3.500,-16.240,9.780
629,64293.548000,-51.396,-1.012,-242.162,15.871,-371.335,-288.818,0.500,-19.240,9.780
630,64293.577000,-52.375,-1.012,-241.174,18.806,-371.362,-288.870,2.500,-10.240,9.780
631,64293.596000,-52.375,-1.012,-240.185,19.794,-374.274,-287.899,2.500,-5.240,8.780
632,64293.624000,-52.375,0.000,-241.174,27.595,-371.443,-288.041,0.500,-13.240,5.780
633,64293.642000,-52.375,-1.012,-240.185,18.824,-373.296,-288.868,1.500,-12.240,0.780
634,64293.662000,-53.354,0.000,-240.185,15.914,-372.300,-290.786,1.500,0.760,-1.220
635,64293.677000,-51.396,-1.012,-240.185,27.656,-370.471,-291.981,-0.500,-7.240,-0.220
636,64293.694000,-52.375,-1.012,-240.185,17.853,-370.383,-290.823,-3.500,-15.240,1.780
637,64293.712000,-51.396,-1.012,-239.197,19.758,-368.468,-288.890,-3.500,-21.240,2.780
638,64293.737000,-52.375,-1.012,-239.197,24.669,-372.383,-287.988,-2.500,-12.240,5.780
639,64293.763000,-52.375,-2.024,-239.197,21.786,-374.290,-289.904,-5.500,-8.240,3.780
640,64293.783000,-51.396,-1.012,-239.197,19.811,-372.337,-289.871,-4.500,-10.240,1.780
641,64293.806000,-51.396,-1.012,-240.185,15.844,-368.433,-288.821,-5.500,-10.240,-0.220
642,64293.831000,-52.375,-1.012,-239.197,14.953,-370.355,-292.741,-7.500,-3.240,1.780
643,64293.838000,-50.417,-2.024,-240.185,22.729,-370.429,-289.925,-6.500,-4.240,2.780
644,64293.862000,-52.375,0.000,-241.174,18.841,-371.360,-290.839,-12.500,-39.240,2.780
645,64293.893000,-54.333,-1.012,-240.185,19.741,-370.405,-286.919,-10.500,-44.240,3.780
646,64293.909000,-53.354,-1.012,-240.185,28.618,-376.289,-288.053,-9.500,-12.240,1.780
647,64293.929000,-52.375,-1.012,-240.185,15.905,-371.333,-290.787,-11.500,-0.240,-1.220
648,64293.948000,-52.375,-1.012,-239.197,20.754,-370.412,-288.905,-14.500,-6.240,-3.220
649,64293.969000,-53.354,0.000,-241.174,13.887,-368.415,-288.786,-15.500,-17.240,-3.220
650,64293.989000,-53.354,0.000,-242.162,22.730,-374.300,-287.951,-12.500,-11.240,-4.220
651,64294.7000,-52.375,0.000,-243.151,19.828,-372.336,-290.856,-10.500,-0.240,-3.220
652,64294.32000,-52.375,0.000,-243.151,17.819,-372.321,-287.867,-6.500,2.760,-4.220
653,64294.41000,-51.396,0.000,-242.162,16.858,-372.311,-288.834,-3.500,-6.240,-3.220
654,64294.68000,-52.375,-1.012,-242.162,22.703,-371.398,-287.954,-1.500,-7.240,-2.220
655,64294.90000,-52.375,-1.012,-242.162,16.875,-372.310,-289.819,1.500,-6.240,-1.220
656,64294.111000,-53.354,0.000,-241.174,16.814,-369.410,-287.852,2.500,-2.240,-2.220
657,64294.133000,-52.375,-1.012,-241.174,26.635,-373.369,-288.022,0.500,0.760,-6.220
658,64294.155000,-53.354,-1.012,-240.185,18.833,-374.264,-288.867,0.500,-2.240,-7.220
659,64294.168000,-52.375,0.000,-241.174,18.806,-369.426,-289.857,-0.500,-5.240,-7.220
660,64294.186000,-53.354,-1.012,-240.185,26.670,-375.302,-289.004,1.500,2.760,-6.220
661,64294.213000,-51.396,-1.012,-238.208,24.695,-375.286,-287.985,5.500,10.760,-6.220
662,64294.231000,-51.396,0.000,-241.174,20.798,-373.313,-289.887,4.500,-0.240,-4.220
663,64294.253000,-51.396,-1.012,-241.174,23.760,-374.306,-290.923,2.500,-9.240,-1.220
664,64294.270000,-53.354,-1.012,-241.174,17.897,-373.285,-291.805,2.500,-23.240,-1.220
665,64294.291000,-53.354,-1.012,-242.162,15.906,-375.205,-288.814,3.500,-6.240,-2.220
666,64294.313000,-52.375,0.000,-240.185,16.849,-369.408,-289.822,1.500,0.760,-7.220
667,64294.336000,-51.396,-1.012,-241.174,15.958,-375.202,-291.768,-1.500,-5.240,-12.220
668,64294.361000,-52.375,-1.012,-241.174,22.747,-374.299,-288.936,-1.500,-3.240,-13.220
669,64294.377000,-51.396,-1.012,-241.174,19.820,-373.304,-289.870,-0.500,4.760,-10.220
670,64294.383000,-52.375,0.000,-241.174,19.819,-371.369,-290.857,-4.500,-2.240,-9.220
671,64294.416000,-52.375,-1.012,-241.174,17.881,-375.221,-289.833,-2.500,-9.240,-8.220
672,64294.434000,-52.375,-1.012,-242.162,15.879,-370.367,-289.804,-2.500,-11.240,-7.220
673,64294.463000,-52.375,-1.012,-241.174,20.780,-371.378,-289.889,-2.500,-10.240,-8.220
674,64294.477000,-51.396,-1.012,-241.174,21.741,-369.453,-289.908,-1.500,-8.240,-10.220
675,64294.498000,-52.375,-1.012,-241.174,18.823,-371.361,-289.855,-1.500,-5.240,-12.220
676,64294.521000,-51.396,-1.012,-243.151,23.769,-375.274,-290.922,-0.500,-1.240,-10.220
677,64294.553000,-51.396,-1.012,-242.162,17.854,-372.319,-289.836,-0.500,-1.240,-5.220
678,64294.567000,-50.417,-1.012,-240.185,21.768,-372.355,-289.906,0.500,-17.240,-4.220
679,64294.589000,-51.396,-1.012,-241.174,25.734,-374.323,-291.942,-1.500,-20.240,-1.220
680,64294.603000,-52.375,0.000,-240.185,20.816,-373.312,-290.872,2.500,-13.240,-0.220
681,64294.626000,-51.396,0.000,-241.174,24.721,-374.316,-289.955,2.500,-12.240,-0.220
682,64294.648000,-52.375,-1.012,-240.185,20.833,-375.247,-290.870,-2.500,-10.240,-0.220
683,64294.668000,-50.417,-1.012,-239.197,17.820,-374.257,-286.880,-3.500,-8.240,0.780
684,64294.696000,-51.396,-1.012,-239.197,21.759,-373.323,-288.920,-5.500,-15.240,2.780
685,64294.707000,-52.375,-1.012,-241.174,23.708,-372.374,-288.955,-7.500,-23.240,3.780
686,64294.714000,-52.375,-1.012,-241.174,20.755,-374.284,-286.932,-5.500,-17.240,4.780
687,64294.747000,-53.354,-1.012,-240.185,17.837,-374.256,-287.865,-6.500,-19.240,3.780
688,64294.770000,-53.354,0.000,-242.162,20.807,-374.281,-289.886,-6.500,-20.240,1.780
689,64294.787000,-53.354,0.000,-243.151,21.786,-374.290,-289.904,-3.500,-19.240,1.780
690,64294.807000,-54.333,0.000,-242.162,25.718,-378.196,-288.984,-0.500,-15.240,-0.220
691,64294.826000,-53.354,0.000,-242.162,25.708,-373.357,-290.959,2.500,-14.240,0.780
692,64294.853000,-52.375,-1.012,-240.185,21.777,-373.322,-289.905,6.500,-21.240,7.780
693,64294.873000,-52.375,0.000,-242.162,20.773,-374.283,-287.917,6.500,-32.240,8.780
694,64294.891000,-53.354,-1.012,-241.174,23.717,-375.277,-287.968,7.500,-30.240,6.780
695,64294.918000,-54.333,0.000,-242.162,15.898,-376.173,-287.828,5.500,-19.240,-1.220
696,64294.955000,-53.354,-1.012,-242.162,21.734,-374.292,-286.949,3.500,-15.240,-9.220
697,64294.973000,-53.354,-1.012,-241.174,20.808,-378.152,-287.913,6.500,-14.240,-12.220
698,64294.982000,-53.354,0.000,-241.174,16.850,-375.215,-286.862,10.500,-9.240,-13.220
699,64294.996000,-53.354,0.000,-239.197,18.816,-374.265,-287.882,12.500,-4.240,-11.220
700,64295.13000,-53.354,0.000,-240.185,18.772,-371.364,-286.900,12.500,-7.240,-10.220
701,64295.31000,-52.375,-2.024,-238.208,16.867,-375.214,-287.847,9.500,-17.240,-7.220
702,64295.51000,-52.375,-1.012,-239.197,18.746,-374.269,-283.943,4.500,-32.240,-11.220
703,64295.73000,-52.375,-1.012,-240.185,21.734,-376.228,-285.963,1.500,-35.240,-14.220
704,64295.87000,-53.354,-1.012,-240.185,21.803,-376.224,-289.902,2.500,-20.240,-10.220
705,64295.125000,-51.396,-1.012,-239.197,16.894,-376.181,-288.830,5.500,-11.240,-8.220
706,64295.143000,-51.396,-1.012,-239.197,16.842,-376.184,-285.876,4.500,-11.240,-5.220
707,64295.161000,-51.396,-2.024,-240.185,17.785,-372.323,-285.897,3.500,-11.240,-4.220
708,64295.181000,-52.375,-1.012,-239.197,17.819,-372.321,-287.867,2.500,-12.240,-2.220
709,64295.201000,-52.375,-1.012,-239.197,20.738,-374.285,-285.947,0.500,-15.240,-1.220
710,64295.238000,-52.375,-1.012,-241.174,21.716,-374.293,-285.965,0.500,-8.240,2.780
711,64295.252000,-53.354,-1.012,-239.197,21.726,-377.197,-284.977,1.500,-15.240,5.780
712,64295.266000,-55.312,-1.012,-241.174,25.604,-373.363,-285.050,1.500,-13.240,6.780
713,64295.287000,-53.354,-1.012,-240.185,20.738,-374.285,-285.947,2.500,-5.240,8.780
714,64295.306000,-54.333,-1.012,-240.185,20.668,-370.417,-283.982,1.500,-11.240,7.780
715,64295.327000,-53.354,-1.012,-241.174,22.713,-376.237,-285.980,0.500,-15.240,6.780
716,64295.344000,-54.333,-1.012,-239.197,22.687,-375.271,-284.996,0.500,-9.240,4.780
717,64295.358000,-53.354,-1.012,-241.174,23.717,-377.212,-286.981,1.500,-7.240,3.780
718,64295.377000,-53.354,-1.012,-241.174,18.773,-375.235,-284.927,0.500,-7.240,4.780
719,64295.408000,-53.354,-1.012,-240.185,18.773,-375.235,-284.927,1.500,-10.240,6.780
720,64295.433000,-53.354,-1.012,-240.185,15.863,-374.239,-286.845,0.500,-16.240,5.780
721,64295.451000,-54.333,-1.012,-241.174,24.670,-376.255,-286.014,0.500,-9.240,1.780
722,64295.473000,-55.312,-1.012,-241.174,20.738,-376.220,-284.961,3.500,-9.240,0.780
723,64295.493000,-55.312,-1.012,-242.162,-226.784,-377.839,-280.579,7.500,-10.240,0.780
724,64295.512000,-55.312,-1.012,-242.162,18.746,-374.269,-283.943,11.500,-3.240,5.780
725,64295.531000,-53.354,-1.012,-241.174,22.678,-376.239,-284.010,10.500,-0.240,4.780
726,64295.553000,-54.333,-1.012,-241.174,23.656,-374.312,-285.014,10.500,-6.240,0.780
727,64295.572000,-55.312,-1.012,-240.185,19.778,-378.146,-284.941,9.500,-14.240,-1.220
728,64295.594000,-53.354,-1.012,-241.174,17.786,-376.195,-283.924,10.500,-13.240,-1.220
729,64295.612000,-55.312,-1.012,-241.174,18.817,-378.136,-285.909,10.500,-12.240,-2.220
730,64295.629000,-54.333,-1.012,-241.174,17.846,-375.223,-287.864,10.500,-10.240,-2.220
731,64295.657000,-54.333,-1.012,-240.185,18.781,-376.203,-284.926,12.500,-3.240,-6.220
732,64295.674000,-53.354,0.000,-240.185,19.803,-377.177,-286.912,13.500,5.760,-3.220
733,64295.691000,-58.249,-1.012,-239.197,23.648,-375.281,-284.029,18.500,43.760,13.780
734,64295.704000,-56.291,0.000,-244.139,23.673,-374.311,-285.999,17.500,111.760,25.780
735,64295.758000,-45.522,-1.012,-244.139,19.751,-373.308,-285.931,19.500,93.760,13.780
736,64295.772000,-49.438,-2.024,-238.208,16.797,-371.347,-285.881,25.500,-30.240,7.780
737,64295.776000,-55.312,-1.012,-241.174,24.635,-376.257,-284.045,20.500,-93.240,-0.220
738,64295.803000,-59.228,-2.024,-241.174,23.621,-370.443,-285.018,16.500,-37.240,-0.220
739,64295.823000,-54.333,-2.024,-238.208,23.674,-376.247,-285.012,11.500,-5.240,-7.220
740,64295.843000,-52.375,-2.024,-237.220,16.790,-376.187,-282.922,11.500,-19.240,-12.220
741,64295.858000,-54.333,-2.024,-238.208,19.760,-376.211,-284.943,8.500,-36.240,-13.220
742,64295.887000,-56.291,-2.024,-239.197,18.754,-371.365,-285.916,3.500,-32.240,-13.220
743,64295.915000,-56.291,-2.024,-238.208,18.798,-374.266,-286.897,-0.500,-3.240,-12.220
744,64295.924000,-54.333,-1.012,-237.220,23.674,-376.247,-285.012,-1.500,0.760,-13.220
745,64295.947000,-53.354,-1.012,-237.220,23.700,-377.213,-285.996,-1.500,-8.240,-16.220
746,64295.969000,-54.333,-2.024,-238.208,23.630,-375.282,-283.044,-4.500,-18.240,-18.220
747,64295.984000,-54.333,-1.012,-238.208,19.795,-376.210,-286.913,-6.500,-1.240,-15.220
748,64296.17000,-53.354,-1.012,-238.208,24.636,-378.193,-283.058,-7.500,4.760,-13.220
749,64296.49000,-52.375,-1.012,-239.197,29.493,-376.303,-282.162,-8.500,-14.240,-13.220
750,64296.63000,-53.354,-2.024,-242.162,28.567,-378.227,-284.112,-7.500,-19.240,-13.220
751,64296.66000,-54.333,-2.024,-241.174,21.735,-380.100,-283.989,-5.500,-8.240,-11.220
752,64296.91000,-54.333,-2.024,-242.162,26.549,-375.309,-282.111,-5.500,-2.240,-8.220
753,64296.118000,-54.333,-1.012,-242.162,22.704,-377.206,-284.994,-3.500,-6.240,-7.220
754,64296.133000,-55.312,-2.024,-240.185,22.687,-377.207,-284.009,-0.500,-10.240,-6.220
755,64296.151000,-55.312,-2.024,-242.162,20.773,-376.218,-286.930,1.500,-2.240,-6.220
756,64296.173000,-55.312,-2.024,-243.151,22.722,-377.205,-285.979,4.500,-4.240,-8.220
757,64296.193000,-54.333,-2.024,-240.185,27.614,-375.313,-287.052,5.500,-7.240,-8.220
758,64296.221000,-55.312,-2.024,-240.185,20.703,-374.286,-283.978,8.500,-2.240,-7.220
759,64296.225000,-54.333,-2.024,-239.197,30.533,-379.212,-284.146,8.500,-2.240,-8.220
760,64296.252000,-53.354,-2.024,-240.185,26.609,-376.274,-285.064,7.500,-7.240,-8.220
761,64296.274000,-53.354,-1.012,-240.185,22.651,-373.337,-284.013,8.500,-10.240,-7.220
762,64296.292000,-55.312,-2.024,-239.197,25.622,-375.297,-285.048,10.500,-5.240,-5.220
763,64296.309000,-53.354,-2.024,-240.185,29.545,-376.300,-285.116,11.500,3.760,-4.220
764,64296.332000,-53.354,-2.024,-240.185,24.652,-376.256,-285.030,11.500,-2.240,-2.220
765,64296.364000,-52.375,-2.024,-239.197,21.735,-378.164,-284.976,11.500,-10.240,0.780
766,64296.370000,-53.354,-2.024,-240.185,24.626,-373.354,-285.033,8.500,-9.240,4.780
767,64296.393000,-53.354,-3.036,-237.220,25.605,-377.234,-283.077,7.500,-4.240,4.780
768,64296.416000,-53.354,-3.036,-239.197,26.574,-374.340,-284.082,5.500,-12.240,3.780
769,64296.453000,-54.333,-2.024,-238.208,25.613,-374.330,-285.049,4.500,-9.240,0.780
770,64296.472000,-54.333,-2.024,-241.174,22.669,-375.272,-284.011,4.500,-3.240,-1.220
771,64296.486000,-53.354,-3.036,-241.174,22.756,-377.203,-287.948,4.500,-2.240,-0.220
772,64296.506000,-54.333,-1.012,-241.174,28.557,-375.324,-285.100,4.500,-8.240,0.780
773,64296.521000,-53.354,-3.036,-241.174,25.579,-376.268,-282.093,6.500,-6.240,0.780
774,64296.543000,-55.312,-2.024,-241.174,23.692,-380.118,-284.024,7.500,-3.240,-1.220
775,64296.571000,-53.354,-3.036,-240.185,23.683,-377.214,-285.011,8.500,-6.240,-0.220
776,64296.586000,-54.333,-2.024,-240.185,26.653,-377.239,-287.033,7.500,-12.240,2.780
777,64296.603000,-54.333,-3.036,-240.185,20.703,-374.286,-283.978,10.500,-7.240,1.780
778,64296.626000,-54.333,-3.036,-241.174,29.563,-378.235,-285.114,10.500,-0.240,-2.220
779,64296.643000,-53.354,-3.036,-240.185,27.597,-377.250,-285.081,7.500,-6.240,-4.220
780,64296.666000,-54.333,-3.036,-240.185,28.602,-380.161,-285.095,7.500,-9.240,-3.220
781,64296.688000,-54.333,-2.024,-239.197,31.511,-377.286,-285.150,7.500,-10.240,0.780
782,64296.711000,-54.333,-3.036,-238.208,20.748,-379.124,-283.973,7.500,-7.240,2.780
783,64296.728000,-54.333,-3.036,-240.185,28.566,-376.292,-285.099,8.500,-5.240,1.780
784,64296.745000,-54.333,-4.047,-240.185,24.626,-375.289,-284.046,7.500,-7.240,2.780
785,64296.775000,-54.333,-3.036,-239.197,24.660,-373.352,-287.002,2.500,-14.240,0.780
786,64296.794000,-54.333,-3.036,-239.197,27.588,-378.218,-284.095,2.500,-18.240,-0.220
787,64296.810000,-55.312,-3.036,-239.197,29.572,-381.138,-284.127,6.500,-5.240,-0.220
788,64296.829000,-54.333,-4.047,-239.197,21.691,-375.263,-283.994,7.500,0.760,0.780
789,64296.847000,-53.354,-4.047,-240.185,21.656,-375.265,-282.025,8.500,-3.240,2.780
790,64296.870000,-54.333,-2.024,-241.174,27.579,-377.251,-284.096,5.500,-9.240,2.780
791,64296.906000,-52.375,-6.071,-239.197,29.510,-374.367,-284.133,4.500,-10.240,3.780
792,64296.908000,-55.312,-3.036,-240.185,28.479,-374.361,-281.162,2.500,-14.240,0.780
793,64296.927000,-54.333,-3.036,-239.197,20.695,-377.191,-282.005,3.500,-11.240,-1.220
794,64296.954000,-54.333,-3.036,-239.197,22.748,-378.171,-286.963,3.500,-5.240,0.780
795,64296.972000,-53.354,-3.036,-239.197,25.596,-376.267,-283.078,2.500,-4.240,4.780
796,64296.988000,-53.354,-4.047,-240.185,24.618,-378.194,-282.073,2.500,-11.240,4.780
797,64297.21000,-54.333,-3.036,-240.185,27.588,-378.218,-284.095,2.500,-16.240,3.780
798,64297.22000,-55.312,-4.047,-238.208,26.566,-377.244,-282.109,2.500,-11.240,1.780
799,64297.50000,-55.312,-3.036,-240.185,27.640,-378.215,-287.049,3.500,-3.240,1.780
800,64297.76000,-54.333,-4.047,-239.197,23.656,-372.376,-286.001,4.500,1.760,-0.220
801,64297.98000,-54.333,-4.047,-238.208,23.701,-379.149,-285.010,2.500,-1.240,-2.220
802,64297.117000,-55.312,-3.036,-240.185,25.639,-375.296,-286.033,2.500,-8.240,-2.220
803,64297.133000,-53.354,-4.047,-240.185,26.618,-377.241,-285.063,0.500,-5.240,1.780
804,64297.170000,-54.333,-3.036,-238.208,32.454,-375.361,-284.184,-0.500,-9.240,2.780
805,64297.192000,-54.333,-4.047,-238.208,22.670,-379.143,-282.038,1.500,-8.240,1.780
806,64297.206000,-55.312,-3.036,-240.185,28.540,-375.325,-284.115,2.500,-6.240,-1.220
807,64297.228000,-54.333,-4.047,-239.197,30.531,-373.405,-287.106,2.500,-5.240,-1.220
808,64297.241000,-54.333,-3.036,-239.197,26.601,-377.242,-284.079,3.500,2.760,-0.220
809,64297.268000,-54.333,-3.036,-239.197,27.571,-376.284,-284.097,3.500,-1.240,2.780
810,64297.283000,-54.333,-4.047,-240.185,27.588,-378.218,-284.095,2.500,-11.240,2.780
811,64297.311000,-55.312,-4.047,-240.185,21.655,-371.393,-283.998,1.500,-11.240,1.780
812,64297.323000,-54.333,-5.059,-240.185,20.765,-377.187,-285.944,0.500,-1.240,0.780
813,64297.342000,-54.333,-4.047,-241.174,27.553,-376.285,-283.112,-1.500,-2.240,-2.220
814,64297.355000,-54.333,-4.047,-238.208,27.588,-378.218,-284.095,-1.500,-10.240,-1.220
815,64297.385000,-54.333,-3.036,-237.220,21.691,-375.263,-283.994,-0.500,-6.240,-0.220
816,64297.412000,-56.291,-4.047,-240.185,24.627,-377.225,-283.059,-1.500,-4.240,-1.220
817,64297.427000,-54.333,-4.047,-240.185,25.631,-376.265,-285.047,-1.500,-3.240,-1.220
818,64297.454000,-55.312,-4.047,-239.197,27.605,-376.282,-286.066,-3.500,-7.240,-3.220
819,64297.492000,-54.333,-3.036,-240.185,21.700,-376.230,-283.993,-3.500,-17.240,-1.220
820,64297.492000,-55.312,-2.024,-240.185,27.606,-378.217,-285.080,0.500,-10.240,2.780
821,64297.515000,-54.333,-4.047,-239.197,28.593,-379.194,-285.096,2.500,-2.240,4.780
822,64297.535000,-54.333,-4.047,-239.197,30.498,-377.279,-283.163,2.500,-11.240,3.780
823,64297.557000,-54.333,-4.047,-240.185,24.601,-378.195,-281.089,-0.500,-20.240,2.780
824,64297.574000,-54.333,-5.059,-241.174,20.730,-377.189,-283.975,-0.500,-17.240,1.780
825,64297.597000,-55.312,-2.024,-242.162,27.544,-375.317,-283.113,1.500,-15.240,2.780
826,64297.616000,-55.312,-3.036,-238.208,24.627,-377.225,-283.059,0.500,-15.240,3.780
827,64297.638000,-55.312,-5.059,-241.174,22.705,-381.077,-283.021,0.500,-12.240,4.780
828,64297.653000,-54.333,-4.047,-239.197,27.572,-380.155,-282.123,-1.500,-18.240,-0.220
829,64297.676000,-55.312,-3.036,-239.197,24.714,-379.156,-286.996,-3.500,-23.240,-2.220
830,64297.685000,-56.291,-3.036,-239.197,26.583,-375.307,-284.081,-2.500,-14.240,-2.220
831,64297.712000,-55.312,-2.024,-238.208,22.669,-375.272,-284.011,-1.500,-12.240,-2.220
832,64297.732000,-56.291,-4.047,-239.197,25.562,-378.204,-280.121,0.500,-1.240,-2.220
833,64297.753000,-55.312,-4.047,-238.208,26.627,-378.208,-285.062,-3.500,-1.240,-5.220
834,64297.779000,-55.312,-5.059,-238.208,24.592,-377.227,-281.090,-3.500,-10.240,-7.220
835,64297.797000,-56.291,-2.024,-239.197,23.631,-379.153,-281.070,-6.500,-22.240,-7.220
836,64297.813000,-56.291,-3.036,-240.185,24.653,-380.127,-283.056,-6.500,-19.240,-7.220
837,64297.845000,-56.291,-3.036,-239.197,23.631,-377.217,-282.057,-3.500,-7.240,-8.220
838,64297.876000,-56.291,-5.059,-241.174,21.683,-378.167,-282.022,-4.500,-9.240,-9.220
839,64297.904000,-56.291,-4.047,-239.197,25.579,-378.204,-281.106,-2.500,-16.240,-11.220
840,64297.910000,-55.312,-4.047,-241.174,25.598,-382.074,-280.117,-2.500,-10.240,-12.220
841,64297.932000,-56.291,-4.047,-242.162,26.575,-378.211,-282.108,2.500,-5.240,-15.220
842,64297.946000,-55.312,-4.047,-242.162,23.691,-376.246,-285.997,3.500,-10.240,-16.220
843,64297.983000,-55.312,-4.047,-241.174,27.536,-378.221,-281.141,4.500,-10.240,-15.220
844,64297.987000,-54.333,-5.059,-240.185,29.536,-377.269,-284.131,9.500,3.760,-14.220
845,64298.14000,-54.333,-5.059,-240.185,30.489,-376.311,-283.164,9.500,5.760,-15.220
846,64298.17000,-54.333,-4.047,-238.208,32.456,-381.168,-281.224,10.500,-3.240,-14.220
847,64298.46000,-54.333,-5.059,-237.220,24.601,-378.195,-281.089,6.500,-2.240,-13.220
848,64298.69000,-53.354,-4.047,-236.232,25.588,-377.235,-282.092,6.500,3.760,-11.220
849,64298.87000,-55.312,-3.036,-237.220,24.618,-376.258,-283.060,4.500,3.760,-9.220
850,64298.111000,-53.354,-5.059,-236.232,28.576,-379.195,-284.111,3.500,15.760,-6.220
851,64298.126000,-53.354,-4.047,-238.208,29.563,-378.235,-285.114,-0.500,10.760,-1.220
852,64298.147000,-53.354,-5.059,-239.197,29.545,-378.236,-284.130,-5.500,-1.240,-1.220
853,64298.175000,-55.312,-5.059,-240.185,35.364,-378.292,-281.279,-7.500,-6.240,-0.220
854,64298.190000,-54.333,-5.059,-240.185,34.368,-374.413,-282.250,-10.500,1.760,-2.220
855,64298.210000,-53.354,-3.036,-241.174,29.554,-377.268,-285.115,-12.500,0.760,-2.220
856,64298.229000,-54.333,-4.047,-242.162,32.429,-380.202,-280.240,-10.500,-12.240,-4.220
857,64298.267000,-54.333,-4.047,-242.162,30.602,-381.144,-287.098,-4.500,-8.240,-1.220
858,64298.286000,-54.333,-5.059,-241.174,23.623,-378.186,-281.071,-1.500,-5.240,1.780
859,64298.300000,-54.333,-4.047,-241.174,29.537,-379.205,-283.144,0.500,-11.240,4.780
860,64298.321000,-55.312,-4.047,-241.174,27.553,-376.285,-283.112,1.500,-14.240,4.780
861,64298.343000,-56.291,-2.024,-243.151,28.506,-377.263,-281.159,3.500,-18.240,4.780
862,64298.357000,-56.291,-4.047,-240.185,29.484,-375.336,-282.163,4.500,-7.240,3.780
863,64298.380000,-54.333,-5.059,-241.174,31.546,-379.219,-286.133,3.500,-2.240,2.780
864,64298.404000,-55.312,-4.047,-240.185,25.606,-379.170,-282.090,6.500,-20.240,0.780
865,64298.419000,-55.312,-6.071,-239.197,31.459,-377.289,-282.196,7.500,-11.240,4.780
866,64298.440000,-54.333,-2.024,-239.197,32.490,-379.230,-284.180,3.500,-12.240,7.780
867,64298.462000,-54.333,-3.036,-239.197,32.464,-378.264,-283.197,8.500,-2.240,4.780
868,64298.479000,-53.354,-4.047,-240.185,24.584,-380.131,-279.117,6.500,-8.240,5.780
869,64298.496000,-55.312,-3.036,-240.185,25.588,-377.235,-282.092,6.500,-12.240,4.780
870,64298.520000,-54.333,-6.071,-241.174,26.627,-378.208,-285.062,4.500,-16.240,4.780
871,64298.540000,-54.333,-4.047,-239.197,29.536,-377.269,-284.131,-0.500,-26.240,7.780
872,64298.562000,-55.312,-3.036,-241.174,25.562,-376.269,-281.108,1.500,-25.240,6.780
873,64298.584000,-58.249,-3.036,-239.197,28.489,-377.264,-280.174,4.500,-17.240,0.780
874,64298.617000,-57.270,-3.036,-238.208,34.369,-378.285,-280.277,6.500,1.760,-1.220
875,64298.645000,-55.312,-3.036,-238.208,27.528,-377.254,-281.142,9.500,5.760,-1.220
876,64298.645000,-54.333,-4.047,-239.197,22.618,-377.210,-280.070,8.500,-5.240,-3.220
877,64298.658000,-56.291,-4.047,-238.208,28.463,-378.233,-278.204,2.500,-10.240,-5.220
878,64298.686000,-55.312,-5.059,-237.220,34.403,-376.347,-283.233,0.500,-12.240,-5.220
879,64298.703000,-56.291,-4.047,-237.220,26.583,-375.307,-284.081,-1.500,-29.240,-6.220
880,64298.720000,-58.249,-3.036,-240.185,25.631,-378.201,-284.060,-0.500,-13.240,-4.220
881,64298.748000,-55.312,-5.059,-240.185,25.563,-380.140,-279.135,-0.500,-3.240,-4.220
882,64298.769000,-56.291,-4.047,-239.197,27.545,-377.253,-282.126,2.500,-4.240,-8.220
883,64298.787000,-57.270,-4.047,-237.220,36.282,-377.337,-278.343,2.500,-0.240,-10.220
884,64298.804000,-56.291,-4.047,-237.220,22.609,-376.243,-280.071,-2.500,-2.240,-13.220
885,64298.827000,-56.291,-3.036,-239.197,31.450,-378.257,-281.210,-2.500,-4.240,-12.220
886,64298.847000,-54.333,-4.047,-240.185,27.545,-379.189,-281.140,-3.500,-6.240,-13.220
887,64298.867000,-55.312,-4.047,-240.185,33.399,-379.243,-280.259,-1.500,-8.240,-14.220
888,64298.889000,-55.312,-5.059,-238.208,27.571,-378.219,-283.110,-2.500,-2.240,-16.220
889,64298.912000,-53.354,-5.059,-239.197,28.506,-377.263,-281.159,-9.500,-1.240,-19.220
890,64298.934000,-53.354,-4.047,-240.185,26.566,-377.244,-282.109,-8.500,-7.240,-16.220
891,64298.954000,-56.291,-3.036,-241.174,28.541,-377.261,-283.128,-4.500,-1.240,-14.220
892,64298.982000,-54.333,-2.024,-240.185,30.515,-379.213,-283.161,-0.500,2.760,-10.220
893,64298.996000,-54.333,-3.036,-241.174,31.442,-379.225,-280.224,3.500,3.760,-9.220
894,64299.27000,-53.354,-5.059,-240.185,30.525,-382.117,-282.173,2.500,-3.240,-5.220
895,64299.45000,-53.354,-5.059,-239.197,26.550,-379.181,-280.138,3.500,-8.240,0.780
896,64299.60000,-53.354,-4.047,-239.197,31.433,-376.322,-281.212,4.500,-9.240,1.780
897,64299.79000,-55.312,-4.047,-238.208,30.419,-374.379,-280.212,6.500,-3.240,5.780
898,64299.96000,-55.312,-5.059,-240.185,35.426,-381.193,-283.246,2.500,-2.240,4.780
899,64299.122000,-54.333,-5.059,-240.185,26.566,-377.244,-282.109,0.500,0.760,1.780
900,64299.139000,-55.312,-4.047,-240.185,25.562,-376.269,-281.108,2.500,-1.240,1.780
901,64299.162000,-56.291,-4.047,-240.185,26.566,-377.244,-282.109,3.500,1.760,4.780
902,64299.188000,-56.291,-4.047,-239.197,30.463,-375.345,-282.180,4.500,10.760,5.780
903,64299.206000,-54.333,-5.059,-239.197,29.493,-378.239,-281.175,3.500,7.760,4.780
904,64299.226000,-55.312,-6.071,-241.174,30.455,-378.249,-280.208,4.500,-2.240,3.780
905,64299.248000,-54.333,-6.071,-238.208,31.485,-378.255,-283.179,3.500,-8.240,4.780
906,64299.262000,-56.291,-3.036,-239.197,24.636,-378.193,-283.058,-1.500,-14.240,-1.220
907,64299.282000,-55.312,-4.047,-238.208,35.425,-377.321,-285.219,1.500,-4.240,-0.220
908,64299.303000,-54.333,-5.059,-240.185,29.510,-376.302,-283.147,-0.500,1.760,2.780
909,64299.325000,-54.333,-4.047,-240.185,27.624,-382.088,-284.091,0.500,0.760,1.780
910,64299.333000,-53.354,-4.047,-239.197,33.434,-381.177,-281.242,-1.500,-3.240,-0.220
911,64299.371000,-54.333,-5.059,-240.185,25.623,-379.169,-283.075,-1.500,-8.240,-0.220
912,64299.388000,-55.312,-5.059,-240.185,25.553,-377.237,-280.122,-2.500,-9.240,-0.220
913,64299.411000,-54.333,-3.036,-240.185,27.536,-378.221,-281.141,1.500,-7.240,1.780
914,64299.426000,-54.333,-7.083,-240.185,22.608,-374.307,-281.058,0.500,-5.240,4.780
915,64299.448000,-55.312,-5.059,-239.197,31.459,-377.289,-282.196,-2.500,-8.240,6.780
916,64299.471000,-54.333,-4.047,-240.185,29.555,-381.139,-283.142,-2.500,-5.240,4.780
917,64299.488000,-56.291,-5.059,-241.174,27.545,-377.253,-282.126,-0.500,-7.240,1.780
918,64299.511000,-55.312,-3.036,-239.197,27.544,-375.317,-283.113,2.500,5.760,1.780
919,64299.533000,-54.333,-4.047,-241.174,33.459,-378.272,-284.199,2.500,2.760,0.780
920,64299.551000,-54.333,-5.059,-240.185,30.480,-375.344,-283.165,0.500,-10.240,1.780
921,64299.583000,-56.291,-4.047,-240.185,29.493,-376.303,-282.162,0.500,-14.240,-1.220
922,64299.586000,-55.312,-4.047,-240.185,27.563,-379.188,-282.124,0.500,-9.240,-3.220
923,64299.612000,-55.312,-4.047,-241.174,30.498,-377.279,-283.163,0.500,-6.240,-5.220
924,64299.632000,-55.312,-4.047,-240.185,28.506,-377.263,-281.159,2.500,1.760,-6.220
925,64299.651000,-54.333,-4.047,-239.197,28.524,-379.198,-281.157,1.500,-2.240,-3.220
926,64299.680000,-54.333,-3.036,-241.174,33.416,-377.306,-282.230,1.500,-12.240,-2.220
927,64299.697000,-56.291,-6.071,-240.185,34.351,-376.350,-280.279,5.500,-14.240,-0.220
928,64299.722000,-56.291,-6.071,-240.185,31.459,-377.289,-282.196,2.500,-1.240,-2.220
929,64299.739000,-54.333,-6.071,-239.197,32.464,-378.264,-283.197,2.500,-1.240,-6.220
930,64299.762000,-54.333,-5.059,-239.197,33.407,-378.275,-281.244,0.500,-14.240,-8.220
931,64299.775000,-55.312,-5.059,-240.185,33.468,-377.303,-285.184,1.500,-8.240,-4.220
932,64299.796000,-54.333,-6.071,-238.208,28.533,-380.165,-281.156,2.500,-0.240,-3.220
933,64299.816000,-54.333,-5.059,-239.197,28.567,-378.227,-284.112,1.500,-1.240,-1.220
934,64299.846000,-53.354,-6.071,-238.208,29.528,-378.237,-283.145,-2.500,-13.240,-0.220
935,64299.863000,-54.333,-6.071,-238.208,33.425,-378.274,-282.229,-4.500,-25.240,0.780
936,64299.886000,-55.312,-4.047,-241.174,28.462,-372.426,-281.164,-2.500,-12.240,2.780
937,64299.908000,-54.333,-5.059,-240.185,26.575,-378.211,-282.108,-0.500,-8.240,4.780
938,64299.925000,-54.333,-5.059,-239.197,34.412,-379.250,-282.246,-0.500,-10.240,5.780
939,64299.941000,-55.312,-6.071,-239.197,29.563,-378.235,-285.114,-3.500,-14.240,7.780
940,64299.963000,-54.333,-5.059,-240.185,22.609,-376.243,-280.071,-1.500,-20.240,4.780
941,64299.985000,-56.291,-6.071,-238.208,26.531,-375.310,-281.126,-3.500,-18.240,1.780
942,64299.998000,-56.291,-4.047,-240.185,31.476,-377.288,-283.180,-2.500,-5.240,-2.220
943,64300.27000,-55.312,-5.059,-240.185,26.566,-377.244,-282.109,-1.500,-2.240,-4.220
944,64300.48000,-55.312,-5.059,-238.208,28.523,-377.262,-282.144,-2.500,-9.240,-2.220
945,64300.71000,-55.312,-3.036,-241.174,26.593,-380.146,-282.106,-2.500,-11.240,-1.220
946,64300.88000,-55.312,-5.059,-240.185,31.468,-380.192,-281.208,-0.500,-9.240,-2.220
947,64300.106000,-56.291,-5.059,-240.185,23.648,-375.281,-284.029,1.500,-4.240,-5.220
948,64300.128000,-55.312,-5.059,-240.185,28.523,-375.326,-283.130,2.500,-5.240,-5.220
949,64300.147000,-55.312,-4.047,-240.185,35.391,-379.259,-282.263,3.500,-7.240,-4.220
950,64300.180000,-56.291,-4.047,-241.174,30.446,-377.282,-280.209,5.500,-5.240,-3.220
951,64300.202000,-55.312,-4.047,-240.185,33.434,-381.177,-281.242,4.500,3.760,-5.220
952,64300.216000,-54.333,-5.059,-237.220,26.549,-377.245,-281.124,6.500,5.760,-7.220
953,64300.233000,-53.354,-5.059,-240.185,28.533,-380.165,-281.156,4.500,-1.240,-3.220
954,64300.251000,-53.354,-6.071,-237.220,28.497,-376.295,-281.160,4.500,-6.240,-0.220
955,64300.273000,-54.333,-5.059,-238.208,28.506,-375.327,-282.146,4.500,-3.240,-0.220
956,64300.290000,-56.291,-3.036,-240.185,30.499,-381.150,-281.190,4.500,4.760,-0.220
957,64300.307000,-53.354,-5.059,-239.197,30.506,-376.310,-284.149,-0.500,-1.240,-0.220
958,64300.326000,-54.333,-5.059,-239.197,34.394,-377.315,-282.247,-0.500,-8.240,0.780
959,64300.353000,-55.312,-5.059,-238.208,25.570,-375.300,-282.094,1.500,-7.240,-0.220
960,64300.370000,-57.270,-4.047,-240.185,30.471,-374.376,-283.166,1.500,1.760,-2.220
961,64300.399000,-55.312,-6.071,-240.185,31.476,-377.288,-283.180,1.500,3.760,-1.220
962,64300.418000,-54.333,-6.071,-239.197,31.459,-377.289,-282.196,-1.500,-5.240,-0.220
963,64300.440000,-55.312,-5.059,-239.197,27.562,-377.252,-283.111,-2.500,-13.240,-0.220
964,64300.462000,-55.312,-5.059,-240.185,27.501,-376.288,-280.158,-1.500,-8.240,-3.220
965,64300.482000,-54.333,-4.047,-239.197,30.497,-375.343,-284.150,-0.500,-7.240,-5.220
966,64300.502000,-55.312,-4.047,-240.185,27.562,-377.252,-283.111,-1.500,-8.240,-4.220
967,64300.530000,-54.333,-5.059,-239.197,27.510,-375.319,-281.144,0.500,-3.240,-1.220
968,64300.543000,-53.354,-6.071,-240.185,31.477,-379.223,-282.194,0.500,-3.240,1.780
969,64300.562000,-55.312,-5.059,-240.185,31.529,-381.156,-284.161,0.500,-13.240,2.780
970,64300.584000,-55.312,-5.059,-241.174,27.519,-376.287,-281.143,1.500,-15.240,2.780
971,64300.607000,-55.312,-5.059,-239.197,27.501,-376.288,-280.158,2.500,-9.240,2.780
972,64300.630000,-54.333,-5.059,-240.185,31.458,-375.353,-283.182,4.500,-5.240,3.780
973,64300.640000,-53.354,-6.071,-239.197,28.506,-375.327,-282.146,5.500,-5.240,2.780
974,64300.653000,-54.333,-6.071,-240.185,30.471,-374.376,-283.166,4.500,-6.240,2.780
975,64300.678000,-54.333,-7.083,-238.208,29.502,-377.271,-282.161,3.500,-9.240,3.780
976,64300.701000,-54.333,-5.059,-241.174,31.433,-378.258,-280.225,4.500,-11.240,7.780
977,64300.727000,-56.291,-5.059,-241.174,24.566,-376.261,-280.106,4.500,-16.240,6.780
978,64300.744000,-57.270,-6.071,-240.185,24.575,-377.228,-280.105,4.500,-16.240,4.780
979,64300.766000,-55.312,-6.071,-239.197,33.459,-378.272,-284.199,7.500,-7.240,5.780
980,64300.783000,-54.333,-6.071,-239.197,33.407,-378.275,-281.244,4.500,-8.240,3.780
981,64300.806000,-55.312,-5.059,-239.197,32.429,-378.266,-281.227,3.500,-17.240,0.780
982,64300.828000,-55.312,-7.083,-238.208,26.558,-378.212,-281.123,0.500,-12.240,1.780
983,64300.861000,-55.312,-5.059,-237.220,25.553,-377.237,-280.122,0.500,-13.240,0.780
984,64300.865000,-55.312,-6.071,-239.197,28.533,-380.165,-281.156,0.500,-12.240,0.780
985,64300.891000,-56.291,-5.059,-238.208,29.493,-378.239,-281.175,-2.500,-10.240,1.780
986,64300.911000,-55.312,-6.071,-239.197,31.467,-376.320,-283.181,-3.500,-9.240,1.780
987,64300.934000,-56.291,-7.083,-239.197,29.493,-376.303,-282.162,-3.500,-11.240,2.780
988,64300.960000,-56.291,-5.059,-237.220,29.511,-378.238,-282.160,-2.500,-9.240,2.780
989,64300.973000,-56.291,-6.071,-238.208,31.460,-381.160,-280.222,-5.500,-6.240,1.780
990,64301.2000,-55.312,-5.059,-239.197,34.351,-378.286,-279.292,-4.500,-5.240,2.780
991,64301.17000,-55.312,-5.059,-239.197,32.464,-380.200,-282.210,-6.500,-8.240,4.780
992,64301.40000,-56.291,-4.047,-240.185,31.424,-377.290,-280.226,-3.500,-12.240,7.780
993,64301.61000,-55.312,-6.071,-239.197,25.562,-378.204,-280.121,-0.500,-5.240,5.780
994,64301.81000,-56.291,-5.059,-241.174,36.343,-380.237,-280.310,0.500,-1.240,2.780
995,64301.98000,-56.291,-5.059,-240.185,27.536,-376.286,-282.127,-1.500,1.760,1.780
996,64301.118000,-56.291,-4.047,-241.174,24.583,-376.260,-281.091,0.500,-4.240,2.780
997,64301.138000,-56.291,-5.059,-239.197,24.636,-378.193,-283.058,1.500,-5.240,4.780
998,64301.161000,-57.270,-5.059,-239.197,31.416,-378.259,-279.240,4.500,-1.240,2.780
999,64301.184000,-57.270,-5.059,-239.197,32.421,-379.234,-280.241,4.500,-4.240,0.780
1000,64301.201000,-56.291,-5.059,-238.208,27.606,-380.153,-284.093,4.500,-6.240,-3.220
