Sample, Time, ACCX, ACCY, ACCZ, MAGX, MAGY, MAGZ, GYRX, GYRY, GYRZ
0,64474.810000,-26.922,-2.024,-246.116,39.830,-336.677,-334.567,-16.500,9.760,-13.220
1,64474.833000,-24.964,-3.036,-245.127,32.988,-331.775,-337.405,-13.500,12.760,-16.220
2,64474.860000,-23.985,-4.047,-244.139,35.871,-329.869,-335.490,-14.500,2.760,-15.220
3,64474.880000,-23.985,-3.036,-244.139,41.743,-331.858,-334.607,-16.500,-7.240,-15.220
4,64474.898000,-25.943,-4.047,-244.139,40.825,-334.749,-336.556,-14.500,-14.240,-17.220
5,64474.920000,-24.964,-4.047,-245.127,40.773,-332.816,-334.589,-14.500,-12.240,-16.220
6,64474.950000,-24.964,-4.047,-244.139,38.808,-333.767,-333.568,-12.500,-11.240,-14.220
7,64474.973000,-25.943,-5.059,-242.162,38.789,-329.896,-334.557,-10.500,-3.240,-14.220
8,64474.993000,-23.006,-5.059,-242.162,40.799,-333.783,-335.572,-9.500,4.760,-14.220
9,64475.10000,-23.006,-4.047,-242.162,37.864,-333.756,-335.520,-13.500,2.760,-16.220
10,64475.31000,-23.006,-5.059,-242.162,40.790,-332.815,-335.573,-18.500,0.760,-14.220
11,64475.53000,-23.006,-3.036,-244.139,41.803,-332.822,-337.560,-17.500,-7.240,-14.220
12,64475.75000,-23.006,-3.036,-245.127,40.686,-328.950,-331.638,-15.500,-5.240,-11.220
13,64475.95000,-23.985,-3.036,-244.139,37.846,-331.821,-335.522,-11.500,-9.240,-8.220
14,64475.104000,-23.985,-4.047,-245.127,33.941,-332.753,-335.452,-7.500,2.760,-5.220
15,64475.126000,-23.006,-4.047,-245.127,39.803,-333.775,-334.570,-7.500,4.760,-5.220
16,64475.148000,-22.027,-4.047,-245.127,37.803,-332.792,-332.567,-6.500,-3.240,-5.220
17,64475.170000,-22.027,-4.047,-245.127,40.756,-334.753,-332.617,-6.500,-4.240,-3.220
18,64475.188000,-23.006,-4.047,-245.127,37.854,-330.853,-336.508,-6.500,-4.240,-2.220
19,64475.215000,-23.006,-3.036,-245.127,37.934,-337.624,-337.486,-4.500,6.760,-2.220
20,64475.230000,-22.027,-3.036,-245.127,35.888,-329.868,-336.474,-0.500,5.760,-1.220
21,64475.248000,-22.027,-4.047,-245.127,36.832,-329.879,-334.522,2.500,3.760,0.780
22,64475.270000,-23.006,-3.036,-243.151,43.691,-330.908,-334.642,3.500,1.760,2.780
23,64475.284000,-21.048,-3.036,-245.127,43.664,-328.006,-334.645,3.500,10.760,7.780
24,64475.312000,-21.048,-4.047,-245.127,36.823,-328.911,-334.523,1.500,12.760,13.780
25,64475.334000,-21.048,-2.024,-243.151,34.946,-333.728,-336.453,0.500,-4.240,15.780
26,64475.355000,-20.069,-5.059,-243.151,40.746,-329.914,-334.591,0.500,-25.240,17.780
27,64475.388000,-23.006,-2.024,-244.139,39.864,-334.739,-337.524,-0.500,-23.240,18.780
28,64475.426000,-23.006,-4.047,-244.139,35.845,-330.838,-333.519,0.500,-10.240,21.780
29,64475.426000,-23.006,-4.047,-245.127,38.860,-333.764,-336.522,-2.500,-13.240,22.780
30,64475.434000,-23.006,-3.036,-245.127,39.786,-331.840,-334.572,0.500,-16.240,21.780
31,64475.457000,-23.985,-3.036,-244.139,35.872,-331.804,-334.503,4.500,-12.240,19.780
32,64475.477000,-23.985,-3.036,-245.127,31.949,-330.801,-334.435,4.500,-9.240,18.780
33,64475.509000,-23.985,-5.059,-244.139,39.759,-330.874,-333.588,2.500,-9.240,13.780
34,64475.527000,-23.985,-6.071,-244.139,41.708,-329.924,-333.624,0.500,-19.240,11.780
35,64475.544000,-23.985,-5.059,-243.151,33.950,-333.720,-335.451,-0.500,-30.240,7.780
36,64475.567000,-24.964,-6.071,-244.139,31.005,-332.726,-335.400,-6.500,-35.240,4.780
37,64475.589000,-24.964,-3.036,-244.139,35.854,-331.805,-333.518,-6.500,-28.240,1.780
38,64475.608000,-23.985,-2.024,-243.151,31.958,-333.705,-333.447,-4.500,-25.240,-0.220
39,64475.625000,-24.964,-2.024,-241.174,30.997,-333.695,-334.415,-1.500,-5.240,2.780
40,64475.649000,-23.985,-3.036,-244.139,36.912,-336.649,-335.500,-1.500,3.760,5.780
41,64475.672000,-21.048,-4.047,-243.151,35.890,-335.675,-333.514,-5.500,-12.240,6.780
42,64475.694000,-23.006,-3.036,-243.151,33.863,-331.790,-331.514,-7.500,-18.240,9.780
43,64475.709000,-23.985,-4.047,-244.139,30.946,-335.633,-330.474,-8.500,-16.240,14.780
44,64475.733000,-23.006,-5.059,-244.139,38.800,-336.671,-331.596,-7.500,-15.240,19.780
45,64475.759000,-23.985,-3.036,-245.127,39.804,-335.711,-333.583,-5.500,-23.240,15.780
46,64475.778000,-24.964,-5.059,-244.139,36.895,-336.650,-334.515,-7.500,-22.240,13.780
47,64475.807000,-23.985,-5.059,-244.139,29.984,-333.688,-332.428,-7.500,-7.240,12.780
48,64475.822000,-22.027,-4.047,-244.139,36.868,-333.748,-334.518,-8.500,-5.240,12.780
49,64475.838000,-24.964,-2.024,-245.127,35.898,-334.707,-334.500,-8.500,-23.240,13.780
50,64475.854000,-25.943,-2.024,-244.139,37.803,-332.792,-332.567,-3.500,-23.240,15.780
51,64475.877000,-26.922,-3.036,-244.139,37.846,-333.757,-334.536,-0.500,-20.240,16.780
52,64475.897000,-26.922,-2.024,-244.139,36.877,-336.651,-333.531,-2.500,-18.240,14.780
53,64475.919000,-25.943,-3.036,-244.139,35.846,-334.710,-331.546,-4.500,-19.240,12.780
54,64475.939000,-25.943,-3.036,-243.151,29.006,-335.615,-331.424,-5.500,-19.240,9.780
55,64475.959000,-27.901,-3.036,-245.127,35.873,-335.676,-332.530,-6.500,-22.240,4.780
56,64475.977000,-27.901,-2.024,-243.151,35.863,-332.773,-333.517,-5.500,-13.240,2.780
57,64475.994000,-26.922,-3.036,-243.151,33.891,-340.499,-328.551,-3.500,-6.240,-0.220
58,64476.20000,-25.943,-2.024,-244.139,30.928,-333.699,-330.475,-3.500,-8.240,-2.220
59,64476.43000,-26.922,-2.024,-241.174,34.886,-336.635,-331.527,-3.500,-2.240,-4.220
60,64476.58000,-25.943,-3.036,-242.162,35.821,-335.679,-329.575,-3.500,1.760,-5.220
61,64476.72000,-25.943,-2.024,-242.162,28.980,-334.648,-330.440,-7.500,3.760,-6.220
62,64476.100000,-24.964,-2.024,-242.162,29.005,-333.679,-332.410,-10.500,-0.240,-4.220
63,64476.119000,-26.922,-1.012,-243.151,38.756,-335.706,-329.627,-14.500,-7.240,-5.220
64,64476.162000,-26.922,-1.012,-243.151,33.898,-333.723,-332.497,-14.500,-8.240,-4.220
65,64476.175000,-26.922,-1.012,-245.127,30.028,-336.589,-333.410,-13.500,0.760,-6.220
66,64476.184000,-25.943,-1.012,-246.116,31.985,-336.607,-333.444,-10.500,1.760,-9.220
67,64476.223000,-24.964,-2.024,-245.127,32.972,-337.583,-333.460,-8.500,-4.240,-11.220
68,64476.226000,-25.943,-1.012,-246.116,35.882,-336.643,-332.529,-6.500,-13.240,-13.220
69,64476.247000,-26.922,-2.024,-248.093,31.941,-333.706,-332.462,-4.500,-12.240,-15.220
70,64476.269000,-26.922,-2.024,-246.116,41.717,-334.763,-331.650,0.500,-1.240,-16.220
71,64476.287000,-25.943,-3.036,-246.116,33.960,-338.559,-333.477,2.500,3.760,-19.220
72,64476.309000,-24.964,-1.012,-245.127,35.846,-334.710,-331.546,6.500,-0.240,-19.220
73,64476.327000,-23.006,-2.024,-245.127,30.936,-332.730,-331.461,5.500,-3.240,-21.220
74,64476.352000,-24.964,-2.024,-246.116,30.998,-337.566,-332.441,6.500,0.760,-19.220
75,64476.376000,-23.006,-2.024,-245.127,35.872,-333.740,-333.516,5.500,-2.240,-19.220
76,64476.390000,-23.985,-2.024,-246.116,35.847,-336.645,-330.559,9.500,-9.240,-16.220
77,64476.405000,-24.964,-2.024,-243.151,31.941,-335.641,-331.476,9.500,-2.240,-10.220
78,64476.419000,-23.985,-2.024,-245.127,32.937,-333.714,-333.464,9.500,-0.240,-7.220
79,64476.444000,-23.985,-3.036,-246.116,37.786,-332.793,-331.582,6.500,-2.240,-6.220
80,64476.487000,-22.027,-4.047,-244.139,33.872,-334.693,-330.526,7.500,-12.240,-8.220
81,64476.505000,-24.964,-4.047,-244.139,33.951,-337.592,-333.478,7.500,-14.240,-9.220
82,64476.524000,-24.964,-3.036,-243.151,44.636,-336.726,-329.730,6.500,-4.240,-8.220
83,64476.540000,-23.985,-2.024,-245.127,38.773,-333.769,-331.599,9.500,0.760,-8.220
84,64476.563000,-24.964,-3.036,-244.139,34.850,-332.766,-331.530,7.500,4.760,-8.220
85,64476.577000,-23.985,-2.024,-244.139,30.953,-332.729,-332.446,7.500,2.760,-7.220
86,64476.597000,-21.048,-5.059,-242.162,37.829,-333.758,-333.551,1.500,-4.240,-4.220
87,64476.619000,-22.027,-3.036,-244.139,38.826,-337.638,-332.579,1.500,-12.240,-0.220
88,64476.637000,-24.964,-3.036,-243.151,31.924,-333.707,-331.478,-0.500,-14.240,1.780
89,64476.659000,-24.964,-2.024,-243.151,33.916,-335.658,-332.495,0.500,-2.240,4.780
90,64476.678000,-23.985,-3.036,-243.151,31.958,-333.705,-333.447,-0.500,-2.240,3.780
91,64476.703000,-23.985,-5.059,-244.139,30.910,-333.700,-329.491,-3.500,-8.240,2.780
92,64476.718000,-24.964,-3.036,-245.127,34.869,-338.572,-329.555,-1057.500,632.760,-21.220
93,64476.732000,-7.342,-239.810,-188.788,23.120,-343.305,-326.388,-1021.500,-1036.240,-57.220
94,64476.745000,-88.597,55.652,-224.371,25.911,-355.923,-311.656,-4.500,-845.240,-122.220
95,64476.778000,-155.166,20.237,-267.861,23.018,-351.054,-316.533,168.500,764.760,95.780
96,64476.800000,-45.522,3.036,-245.127,24.114,-339.442,-329.364,185.500,1007.760,75.780
97,64476.838000,23.985,-11.130,-253.035,24.113,-333.634,-332.324,70.500,555.760,39.780
98,64476.865000,-6.363,9.107,-263.907,27.032,-335.598,-330.404,-26.500,-58.240,-43.220
99,64476.874000,-33.774,5.059,-275.768,31.916,-336.611,-329.505,32.500,-24.240,-17.220
100,64476.895000,-27.901,1.012,-272.803,24.132,-339.441,-330.348,57.500,-36.240,-1.220
101,64476.909000,-41.606,3.036,-270.826,23.135,-335.561,-331.320,72.500,108.760,5.780
102,64476.934000,-24.964,2.024,-259.954,25.066,-334.613,-330.371,95.500,130.760,17.780
103,64476.955000,-14.195,2.024,-252.046,24.078,-331.701,-331.341,108.500,-27.240,26.780
104,64476.973000,-21.048,1.012,-247.104,31.067,-337.562,-336.380,114.500,-92.240,32.780
105,64476.993000,-32.795,-1.012,-240.185,34.929,-335.665,-334.482,111.500,-83.240,31.780
106,64477.10000,-30.837,-2.024,-235.243,36.791,-336.656,-328.607,98.500,-20.240,23.780
107,64477.36000,-23.985,-4.047,-230.301,31.888,-331.773,-330.495,84.500,42.760,14.780
108,64477.50000,-23.985,-5.059,-230.301,30.937,-336.602,-329.488,67.500,33.760,1.780
109,64477.78000,-23.985,-5.059,-230.301,37.795,-333.760,-331.581,44.500,-5.240,-10.220
110,64477.81000,-25.943,-4.047,-232.278,33.907,-334.691,-332.496,21.500,-25.240,-18.220
111,64477.104000,-26.922,-4.047,-233.266,32.929,-338.553,-330.505,1.500,-18.240,-19.220
112,64477.125000,-24.964,-5.059,-234.255,32.894,-334.684,-330.509,-16.500,-3.240,-16.220
113,64477.151000,-24.964,-4.047,-238.208,33.908,-338.562,-330.522,-25.500,-3.240,-16.220
114,64477.173000,20.069,-359.210,-256.988,20.241,-328.757,-337.183,-187.500,141.760,-88.220
115,64477.188000,-30.837,25.296,-203.614,17.095,-352.940,-312.488,-868.500,-1673.240,61.780
116,64477.210000,-235.442,42.498,-278.734,22.933,-358.802,-307.662,-41.500,-1388.240,-249.220
117,64477.233000,-104.260,4.047,-267.861,25.008,-347.199,-320.510,269.500,935.760,64.780
118,64477.265000,84.681,-39.462,-233.266,24.089,-340.411,-327.393,234.500,1481.760,140.780
119,64477.301000,-4.405,23.273,-256.988,20.207,-330.695,-334.227,-150.500,228.760,-85.220
120,64477.301000,-28.880,7.083,-276.757,21.151,-332.641,-331.288,-57.500,-62.240,-90.220
121,64477.323000,-27.901,2.024,-274.780,29.049,-336.580,-333.392,0.500,-152.240,-60.220
122,64477.338000,-51.396,2.024,-270.826,23.126,-334.594,-331.321,7.500,-34.240,-35.220
123,64477.360000,-37.690,6.071,-263.907,22.148,-334.585,-331.304,18.500,112.760,-28.220
124,64477.380000,-10.279,2.024,-251.058,25.099,-330.739,-334.314,54.500,235.760,-13.220
125,64477.406000,-13.216,3.036,-244.139,24.138,-330.729,-335.281,61.500,47.760,-0.220
126,64477.424000,-24.964,1.012,-243.151,31.050,-337.563,-335.395,65.500,-91.240,9.780
127,64477.446000,-30.837,0.000,-241.174,26.113,-332.682,-335.314,59.500,-63.240,8.780
128,64477.460000,-28.880,0.000,-240.185,29.049,-334.644,-334.379,44.500,10.760,-1.220
129,64477.483000,-23.006,0.000,-237.220,28.987,-329.808,-333.399,38.500,61.760,-6.220
130,64477.506000,-19.090,0.000,-235.243,31.006,-334.662,-334.414,32.500,33.760,-10.220
131,64477.519000,-20.069,-2.024,-237.220,23.186,-331.687,-336.248,21.500,-5.240,-13.220
132,64477.539000,-20.069,-1.012,-240.185,28.070,-332.700,-335.348,14.500,-13.240,-13.220
133,64477.557000,-21.048,-1.012,-241.174,25.134,-332.673,-335.296,3.500,-19.240,-8.220
134,64477.584000,-21.048,0.000,-241.174,34.876,-331.797,-333.501,-3.500,-14.240,-0.220
135,64477.602000,-23.985,0.000,-242.162,30.045,-334.652,-335.381,-3.500,-5.240,6.780
136,64477.622000,-22.027,0.000,-242.162,27.022,-330.759,-332.379,-5.500,-6.240,5.780
137,64477.644000,-23.006,-1.012,-245.127,26.087,-331.715,-334.330,-7.500,-9.240,6.780
138,64477.662000,-23.006,0.000,-244.139,24.077,-327.829,-333.314,-7.500,-5.240,10.780
139,64477.692000,-21.048,-1.012,-244.139,31.939,-327.898,-335.422,-8.500,-0.240,14.780
140,64477.705000,-22.027,0.000,-245.127,30.001,-331.751,-334.399,-9.500,-0.240,16.780
141,64477.732000,-21.048,0.000,-245.127,23.143,-332.657,-333.292,-10.500,-3.240,18.780
142,64477.746000,-22.027,-1.012,-246.116,24.113,-333.634,-332.324,-9.500,-13.240,19.780
143,64477.768000,-23.985,0.000,-246.116,24.113,-333.634,-332.324,-9.500,-22.240,19.780
144,64477.788000,-24.964,0.000,-247.104,24.112,-329.763,-334.297,-4.500,-18.240,19.780
145,64477.810000,-24.964,0.000,-246.116,26.130,-332.681,-336.298,-1.500,-11.240,18.780
146,64477.830000,-25.943,1.012,-246.116,25.082,-330.740,-333.329,3.500,-6.240,16.780
147,64477.848000,-24.964,0.000,-247.104,27.091,-332.691,-335.331,6.500,-7.240,16.780
148,64477.868000,-23.985,1.012,-247.104,23.160,-330.720,-335.264,11.500,-6.240,17.780
149,64477.890000,-24.964,1.012,-246.116,22.155,-331.681,-333.276,13.500,-17.240,14.780
150,64477.918000,-24.964,0.000,-246.116,25.179,-337.510,-335.292,12.500,-20.240,13.780
151,64477.943000,-26.922,0.000,-245.127,28.044,-333.669,-333.378,13.500,-20.240,14.780
152,64477.957000,-26.922,0.000,-243.151,29.050,-338.516,-332.405,15.500,-11.240,13.780
153,64477.979000,-27.901,1.012,-242.162,22.165,-334.584,-332.288,15.500,-13.240,8.780
154,64478.19000,-26.922,0.000,-245.127,25.100,-334.611,-332.340,15.500,-17.240,1.780
155,64478.38000,-26.922,-1.012,-244.139,28.079,-335.603,-334.361,10.500,-12.240,-5.220
156,64478.45000,-27.901,0.000,-242.162,30.980,-333.696,-333.430,6.500,-9.240,-14.220
157,64478.62000,-24.964,0.000,-242.162,31.993,-335.638,-334.430,8.500,-9.240,-18.220
158,64478.78000,-26.922,1.012,-243.151,27.100,-333.658,-335.330,6.500,-11.240,-18.220
159,64478.99000,-24.964,0.000,-243.151,29.040,-335.613,-333.393,6.500,-14.240,-18.220
160,64478.124000,-23.006,0.000,-244.139,32.876,-334.685,-329.524,7.500,-14.240,-18.220
161,64478.145000,-24.964,0.000,-245.127,24.130,-331.698,-334.295,10.500,-4.240,-13.220
162,64478.168000,-23.006,0.000,-244.139,30.971,-332.728,-333.431,8.500,-7.240,-8.220
163,64478.186000,-23.006,0.000,-244.139,30.997,-333.695,-334.415,8.500,-17.240,-8.220
164,64478.202000,-23.985,0.000,-246.116,24.149,-337.504,-332.320,8.500,-16.240,-9.220
165,64478.224000,-25.943,-1.012,-244.139,27.014,-335.599,-329.420,5.500,-6.240,-11.220
166,64478.250000,-24.964,-1.012,-244.139,34.938,-336.633,-334.481,8.500,-4.240,-12.220
167,64478.271000,-23.985,-1.012,-243.151,29.067,-338.515,-333.390,8.500,-7.240,-10.220
168,64478.288000,-23.985,-1.012,-246.116,28.997,-334.647,-331.425,7.500,-6.240,-9.220
169,64478.305000,-23.985,0.000,-243.151,30.027,-334.653,-334.396,9.500,1.760,-8.220
170,64478.330000,-23.006,0.000,-243.151,29.032,-334.645,-333.394,6.500,0.760,-6.220
171,64478.353000,-23.006,-1.012,-244.139,26.096,-334.619,-333.342,5.500,-9.240,-5.220
172,64478.372000,-23.985,-1.012,-244.139,27.039,-330.758,-333.363,4.500,-13.240,0.780
173,64478.404000,-24.964,0.000,-243.151,28.053,-334.636,-333.377,4.500,-14.240,2.780
174,64478.418000,-24.964,0.000,-243.151,34.894,-333.731,-333.499,3.500,-12.240,2.780
175,64478.438000,-25.943,-1.012,-245.127,24.183,-337.502,-334.289,2.500,-10.240,-0.220
176,64478.453000,-24.964,-1.012,-245.127,28.027,-335.606,-331.406,-0.500,-9.240,-2.220
177,64478.475000,-25.943,-1.012,-246.116,29.006,-335.615,-331.424,1.500,-11.240,-3.220
178,64478.493000,-25.943,-1.012,-246.116,29.014,-332.711,-333.396,2.500,-13.240,-2.220
179,64478.515000,-25.943,0.000,-245.127,31.923,-331.771,-332.464,4.500,-11.240,-4.220
180,64478.539000,-25.943,0.000,-245.127,27.014,-333.663,-330.406,3.500,-7.240,-7.220
181,64478.553000,-24.964,-1.012,-245.127,33.916,-335.658,-332.495,4.500,-9.240,-7.220
182,64478.580000,-25.943,-1.012,-246.116,32.963,-336.616,-333.461,6.500,-18.240,-4.220
183,64478.600000,-25.943,0.000,-245.127,30.963,-337.568,-330.472,10.500,-16.240,-0.220
184,64478.615000,-24.964,-1.012,-244.139,28.001,-334.639,-330.423,10.500,-20.240,-3.220
185,64478.638000,-25.943,-1.012,-244.139,32.885,-333.716,-330.510,11.500,-24.240,-7.220
186,64478.668000,-25.943,-1.012,-244.139,31.924,-333.707,-331.478,12.500,-23.240,-10.220
187,64478.687000,-24.964,-1.012,-245.127,28.997,-334.647,-331.425,8.500,-16.240,-11.220
188,64478.706000,-25.943,-1.012,-244.139,28.028,-337.542,-330.420,9.500,-22.240,-13.220
189,64478.724000,-26.922,-1.012,-243.151,30.964,-339.504,-329.485,10.500,-22.240,-13.220
190,64478.738000,-26.922,-1.012,-243.151,31.968,-336.608,-332.459,13.500,-13.240,-12.220
191,64478.770000,-24.964,-1.012,-244.139,30.990,-338.535,-331.455,14.500,-10.240,-11.220
192,64478.784000,-25.943,-1.012,-243.151,33.908,-340.498,-329.536,12.500,-13.240,-11.220
193,64478.798000,-24.964,-1.012,-245.127,33.882,-337.596,-329.539,12.500,-16.240,-10.220
194,64478.818000,-25.943,-2.024,-243.151,30.011,-338.526,-331.438,10.500,-17.240,-10.220
195,64478.843000,-27.901,-1.012,-245.127,27.059,-340.436,-329.415,8.500,-18.240,-10.220
196,64478.858000,-27.901,-2.024,-245.127,29.968,-337.560,-329.469,8.500,-20.240,-13.220
197,64478.876000,-28.880,-2.024,-244.139,31.951,-338.545,-330.488,6.500,-17.240,-15.220
198,64478.906000,-27.901,-2.024,-243.151,29.994,-338.527,-330.453,10.500,-7.240,-16.220
199,64478.927000,-25.943,-4.047,-245.127,31.933,-338.546,-329.503,8.500,30.760,-16.220
200,64478.950000,-8.321,-7.083,-246.116,34.860,-335.669,-330.543,3.500,107.760,-11.220
201,64478.968000,19.090,-10.119,-257.977,32.954,-333.713,-334.449,-27.500,303.760,1.780
202,64479.8000,57.270,-15.178,-282.687,37.845,-327.950,-337.496,-27.500,434.760,22.780
203,64479.9000,95.449,-14.166,-290.595,31.020,-323.046,-341.319,11.500,428.760,38.780
204,64479.35000,116.987,-19.225,-277.745,31.055,-323.045,-343.288,145.500,409.760,234.780
205,64479.54000,126.776,-19.225,-259.954,31.088,-319.171,-347.231,259.500,412.760,641.780
206,64479.72000,133.629,-10.119,-251.058,19.329,-317.129,-347.025,331.500,251.760,1067.780
207,64479.94000,116.987,1.012,-255.012,6.669,-316.042,-350.740,403.500,39.760,1466.780
208,64479.107000,92.512,4.047,-246.116,3.664,-316.020,-346.749,465.500,6.760,1814.780
209,64479.132000,76.849,2.024,-237.220,-14.901,-316.817,-347.405,470.500,-40.240,2051.780
210,64479.154000,58.249,2.024,-236.232,-17.871,-318.728,-344.396,447.500,-154.240,2184.780
211,64479.168000,35.732,5.059,-237.220,-33.500,-319.552,-345.103,427.500,-235.240,2274.780
212,64479.193000,18.111,8.095,-231.290,-57.088,-319.345,-338.780,413.500,-252.240,2312.780
213,64479.211000,10.279,6.071,-228.324,-72.814,-315.335,-336.537,374.500,-275.240,2372.780
214,64479.231000,4.405,6.071,-225.359,-89.517,-317.123,-331.317,303.500,-324.240,2378.780
215,64479.253000,-5.384,6.071,-224.371,-100.325,-312.188,-331.132,252.500,-402.240,2348.780
216,64479.270000,-18.111,3.036,-221.405,-119.999,-312.016,-324.877,216.500,-389.240,2279.780
217,64479.293000,-23.985,1.012,-224.371,-138.668,-310.883,-320.610,155.500,-295.240,2205.780
218,64479.311000,-23.985,3.036,-223.382,-158.344,-302.968,-318.303,78.500,-208.240,2137.780
219,64479.335000,-26.922,12.142,-226.347,-178.955,-294.074,-318.933,35.500,-122.240,2104.780
220,64479.353000,-23.985,24.285,-226.347,-186.897,-289.169,-314.860,7.500,-101.240,2116.780
221,64479.380000,-21.048,35.415,-231.290,-209.578,-277.360,-310.535,-9.500,-166.240,2132.780
222,64479.400000,-23.985,55.652,-241.174,-217.502,-274.390,-306.460,13.500,-353.240,2144.780
223,64479.421000,-45.522,77.913,-246.116,-233.342,-263.611,-301.271,108.500,-547.240,2150.780
224,64479.458000,-69.017,90.055,-249.081,-246.150,-257.693,-299.082,225.500,-641.240,2120.780
225,64479.472000,-97.407,97.138,-251.058,-251.217,-251.851,-292.108,346.500,-658.240,2041.780
226,64479.486000,-133.629,93.091,-249.081,-270.878,-236.192,-294.732,426.500,-540.240,1886.780
227,64479.500000,-167.893,90.055,-244.139,-271.987,-233.287,-288.809,471.500,-335.240,1665.780
228,64479.518000,-190.409,78.925,-239.197,-277.834,-224.521,-294.622,462.500,-142.240,1370.780
229,64479.541000,-207.052,71.842,-231.290,-275.869,-221.634,-296.629,414.500,-37.240,1006.780
230,64479.572000,-217.820,64.759,-225.359,-283.733,-213.822,-298.468,379.500,-9.240,800.780
231,64479.586000,-224.673,67.794,-219.429,-285.700,-210.901,-299.421,294.500,-3.240,396.780
232,64479.608000,-225.652,65.771,-215.475,-280.764,-209.975,-302.463,194.500,-13.240,-12.220
233,64479.638000,-205.094,62.735,-208.556,-274.823,-215.832,-303.546,84.500,-16.240,-403.220
234,64479.642000,-189.430,62.735,-211.521,-271.843,-218.760,-304.580,-27.500,-20.240,-773.220
235,64479.672000,-174.746,63.747,-214.486,-260.029,-232.413,-301.819,-129.500,-32.240,-1113.220
236,64479.693000,-162.019,63.747,-218.440,-263.916,-235.280,-301.747,-218.500,-46.240,-1410.220
237,64479.707000,-151.250,65.771,-222.394,-251.070,-252.811,-299.985,-297.500,-69.240,-1667.220
238,64479.716000,-142.440,66.783,-227.336,-240.314,-257.749,-297.216,-350.500,-86.240,-1894.220
239,64479.748000,-132.650,66.783,-231.290,-227.469,-273.344,-296.441,-369.500,-80.240,-1999.220
240,64479.766000,-122.860,66.783,-235.243,-223.518,-279.185,-295.519,-411.500,-34.240,-2201.220
241,64479.788000,-116.008,71.842,-240.185,-207.694,-295.772,-296.764,-440.500,36.760,-2399.220
242,64479.810000,-107.197,75.889,-239.197,-182.120,-310.514,-297.200,-447.500,147.760,-2569.220
243,64479.828000,-88.597,75.889,-243.151,-170.299,-313.520,-300.359,-433.500,273.760,-2699.220
244,64479.846000,-68.038,79.937,-242.162,-144.709,-324.390,-303.752,-427.500,378.760,-2816.220
245,64479.884000,-53.354,76.901,-242.162,-127.978,-329.376,-306.996,-427.500,389.760,-2896.220
246,64479.903000,-39.648,75.889,-245.127,-95.557,-334.501,-312.485,-432.500,349.760,-2958.220
247,64479.912000,-23.006,71.842,-240.185,-85.719,-336.523,-314.626,-419.500,325.760,-2986.220
248,64479.929000,-3.426,65.771,-240.185,-62.183,-338.670,-317.009,-417.500,237.760,-2990.220
249,64479.957000,0.489,62.735,-246.116,-29.804,-346.701,-318.557,-430.500,95.760,-2997.220
250,64479.974000,2.447,57.676,-250.069,-8.304,-343.995,-318.940,-438.500,-21.240,-2987.220
251,64479.997000,7.342,61.723,-245.127,21.155,-348.128,-323.394,-424.500,-66.240,-2972.220
252,64480.17000,-3.426,62.735,-242.162,37.764,-349.248,-321.718,-368.500,-80.240,-2868.220
253,64480.40000,-6.363,55.652,-236.232,61.229,-343.655,-324.109,-312.500,27.760,-2761.220
254,64480.63000,6.363,50.593,-236.232,73.913,-337.966,-325.324,-287.500,110.760,-2690.220
255,64480.73000,10.279,43.510,-239.197,101.265,-327.570,-328.774,-274.500,107.760,-2697.220
256,64480.94000,9.300,41.486,-236.232,119.891,-327.737,-331.072,-288.500,108.760,-2758.220
257,64480.120000,3.426,40.474,-228.324,149.102,-308.654,-333.580,-305.500,177.760,-2777.220
258,64480.138000,4.405,41.486,-221.405,174.556,-289.527,-344.882,-333.500,420.760,-2794.220
259,64480.158000,15.174,44.522,-213.498,179.480,-277.955,-352.858,-350.500,687.760,-2793.220
260,64480.180000,43.564,46.545,-210.533,201.935,-252.029,-364.115,-381.500,816.760,-2806.220
261,64480.201000,58.249,44.522,-209.544,216.557,-236.679,-369.314,-429.500,799.760,-2873.220
262,64480.223000,71.954,47.557,-210.533,228.116,-200.015,-378.421,-518.500,826.760,-2967.220
263,64480.243000,80.765,52.617,-208.556,237.907,-187.521,-385.500,-579.500,994.760,-3007.220
264,64480.263000,120.902,59.700,-214.486,245.559,-144.047,-398.484,-621.500,1131.760,-2950.220
265,64480.285000,175.725,62.735,-227.336,254.193,-112.196,-405.566,-598.500,1064.760,-2869.220
266,64480.303000,226.631,51.605,-239.197,262.000,-98.717,-411.626,-468.500,702.760,-2502.220
267,64480.323000,243.273,32.379,-246.116,261.875,-83.238,-412.627,-320.500,302.760,-1814.220
268,64480.348000,244.252,36.427,-255.012,259.890,-76.446,-414.568,-210.500,138.760,-1005.220
269,64480.377000,255.021,38.451,-264.896,258.893,-68.695,-417.513,-136.500,112.760,-403.220
270,64480.394000,250.126,30.356,-264.896,258.954,-73.531,-418.493,-88.500,200.760,6.780
271,64480.408000,251.105,15.178,-262.919,255.004,-67.690,-419.414,-55.500,403.760,328.780
272,64480.424000,263.832,14.166,-256.000,250.139,-72.484,-418.338,-28.500,286.760,697.780
273,64480.445000,250.126,15.178,-252.046,249.239,-75.374,-421.272,4.500,106.760,1113.780
274,64480.468000,235.442,22.261,-250.069,241.448,-83.044,-419.157,22.500,39.760,1309.780
275,64480.485000,213.904,29.344,-246.116,241.528,-91.751,-419.148,61.500,-73.240,1660.780
276,64480.510000,200.199,34.403,-240.185,237.783,-110.096,-419.060,89.500,-132.240,1933.780
277,64480.538000,189.430,37.439,-231.290,225.100,-119.657,-415.871,94.500,-221.240,2172.780
278,64480.562000,177.683,39.462,-227.336,216.394,-141.833,-409.784,91.500,-357.240,2388.780
279,64480.582000,163.977,46.545,-227.336,211.643,-153.396,-411.656,90.500,-526.240,2575.780
280,64480.602000,149.293,49.581,-226.347,202.982,-180.409,-405.564,91.500,-674.240,2736.780
281,64480.618000,133.629,56.664,-225.359,182.526,-205.382,-397.297,93.500,-783.240,2879.780
282,64480.640000,112.092,63.747,-227.336,163.099,-222.619,-395.949,105.500,-814.240,2993.780
283,64480.678000,99.365,66.783,-230.301,139.674,-249.503,-384.674,110.500,-845.240,3044.780
284,64480.692000,81.744,70.830,-236.232,132.907,-265.891,-380.597,147.500,-950.240,3117.780
285,64480.692000,59.228,75.889,-233.266,102.553,-287.878,-367.237,198.500,-987.240,3181.780
286,64480.713000,39.648,79.937,-229.313,87.835,-296.458,-360.075,236.500,-945.240,3216.780
287,64480.733000,24.964,78.925,-230.301,57.525,-317.474,-349.670,250.500,-857.240,3215.780
288,64480.759000,21.048,78.925,-234.255,26.112,-330.746,-336.300,241.500,-865.240,3172.780
289,64480.777000,13.216,88.032,-237.220,1.626,-337.300,-330.937,272.500,-954.240,3112.780
290,64480.794000,-5.384,97.138,-234.255,-20.123,-346.796,-312.821,338.500,-963.240,3047.780
291,64480.816000,-27.901,95.115,-228.324,-39.709,-352.427,-308.530,367.500,-854.240,2984.780
292,64480.837000,-38.669,95.115,-226.347,-64.301,-351.244,-301.205,373.500,-803.240,2948.780
293,64480.859000,-46.501,102.198,-223.382,-83.948,-355.910,-293.961,384.500,-716.240,2875.780
294,64480.881000,-53.354,109.281,-218.440,-117.390,-353.681,-284.512,393.500,-671.240,2827.780
295,64480.903000,-54.333,112.316,-213.498,-144.061,-348.615,-272.233,380.500,-698.240,2790.780
296,64480.921000,-65.101,123.447,-214.486,-158.827,-342.680,-270.009,430.500,-773.240,2726.780
297,64480.942000,-106.218,126.482,-200.649,-184.477,-336.653,-260.703,504.500,-688.240,2680.780
298,64480.960000,-111.113,119.399,-196.695,-194.279,-336.565,-259.545,509.500,-503.240,2651.780
299,64480.991000,-110.134,125.470,-202.625,-217.966,-317.972,-257.179,469.500,-417.240,2639.780
300,64481.9000,-109.155,131.542,-207.568,-236.664,-310.066,-254.888,462.500,-473.240,2625.780
301,64481.28000,-118.945,130.530,-205.591,-250.477,-301.237,-252.685,480.500,-560.240,2607.780
302,64481.57000,-146.356,125.470,-207.568,-258.612,-282.793,-244.687,531.500,-742.240,2520.780
303,64481.72000,-175.725,113.328,-213.498,-272.373,-277.832,-243.465,588.500,-787.240,2369.780
304,64481.89000,-209.989,114.340,-226.347,-296.987,-261.164,-243.049,627.500,-724.240,2193.780
305,64481.117000,-239.358,102.198,-225.359,-302.841,-259.174,-244.917,717.500,-501.240,1936.780
306,64481.128000,-270.685,78.925,-220.417,-306.854,-242.689,-247.818,747.500,-247.240,1607.780
307,64481.150000,-301.033,62.735,-223.382,-312.727,-234.893,-251.661,703.500,-107.240,1158.780
308,64481.178000,-321.591,55.652,-226.347,-314.668,-229.067,-255.572,600.500,44.760,645.780
309,64481.182000,-322.570,51.605,-223.382,-300.918,-227.252,-259.755,465.500,182.760,103.780
310,64481.209000,-305.927,56.664,-220.417,-302.780,-228.197,-264.643,378.500,219.760,-157.220
311,64481.229000,-285.369,63.747,-221.405,-293.859,-233.110,-268.733,207.500,218.760,-673.220
312,64481.249000,-255.021,67.794,-220.417,-290.818,-240.874,-270.747,70.500,186.760,-1137.220
313,64481.272000,-225.652,73.866,-218.440,-281.879,-253.530,-271.874,-53.500,149.760,-1553.220
314,64481.290000,-205.094,81.960,-217.452,-265.191,-259.485,-272.163,-143.500,94.760,-1904.220
315,64481.328000,-189.430,87.020,-216.463,-252.267,-277.980,-274.339,-190.500,107.760,-2189.220
316,64481.343000,-169.851,82.972,-219.429,-241.415,-285.816,-275.506,-226.500,182.760,-2410.220
317,64481.351000,-146.356,83.984,-225.359,-213.849,-302.510,-276.959,-242.500,226.760,-2620.220
318,64481.369000,-126.776,80.949,-225.359,-187.165,-320.158,-283.317,-242.500,259.760,-2814.220
319,64481.401000,-112.092,75.889,-223.382,-177.327,-327.987,-282.497,-243.500,284.760,-2906.220
320,64481.422000,-96.428,73.866,-219.429,-141.943,-337.977,-287.049,-260.500,379.760,-3066.220
321,64481.439000,-74.891,72.854,-213.498,-123.221,-339.107,-294.270,-291.500,492.760,-3200.220
322,64481.462000,-52.375,68.806,-205.591,-87.812,-348.128,-300.793,-342.500,555.760,-3257.220
323,64481.482000,-30.837,68.806,-201.637,-75.983,-350.166,-304.938,-413.500,538.760,-3253.220
324,64481.499000,-11.258,67.794,-196.695,-35.760,-352.460,-310.569,-462.500,387.760,-3203.220
325,64481.516000,5.384,62.735,-195.707,-26.919,-352.538,-312.694,-519.500,123.760,-3122.220
326,64481.543000,6.363,50.593,-199.660,1.465,-351.828,-314.182,-601.500,-170.240,-3084.220
327,64481.552000,-1.468,50.593,-205.591,33.756,-355.993,-312.779,-663.500,-284.240,-3065.220
328,64481.579000,-14.195,56.664,-205.591,52.313,-354.228,-312.125,-680.500,-346.240,-3032.220
329,64481.602000,-19.090,41.486,-215.475,79.666,-351.576,-311.628,-691.500,-219.240,-2943.220
330,64481.629000,-7.342,38.451,-226.347,95.330,-348.814,-313.877,-731.500,-58.240,-2934.220
331,64481.659000,-2.447,46.545,-231.290,115.815,-338.358,-316.221,-711.500,-72.240,-2947.220
332,64481.688000,-7.342,51.605,-225.359,135.427,-333.694,-321.495,-662.500,-60.240,-2917.220
333,64481.688000,-11.258,47.557,-219.429,159.791,-319.403,-323.912,-664.500,45.760,-2843.220
334,64481.691000,-0.489,49.581,-224.371,178.342,-300.217,-332.138,-706.500,173.760,-2837.220
335,64481.721000,17.132,48.569,-234.255,187.157,-297.392,-334.267,-769.500,217.760,-2960.220
336,64481.747000,15.174,54.640,-236.232,210.555,-267.606,-345.544,-775.500,264.760,-3068.220
337,64481.764000,17.132,52.617,-225.359,215.487,-253.129,-355.493,-782.500,584.760,-3082.220
338,64481.784000,52.375,57.676,-220.417,241.864,-222.399,-369.778,-828.500,968.760,-3084.220
339,64481.804000,100.344,66.783,-221.405,246.717,-205.023,-376.775,-824.500,983.760,-3073.220
340,64481.837000,136.566,59.700,-223.382,251.479,-166.359,-389.703,-813.500,771.760,-2963.220
341,64481.864000,167.893,63.747,-235.243,256.200,-138.344,-394.741,-784.500,626.760,-2694.220
342,64481.874000,197.262,59.700,-242.162,250.326,-126.676,-400.558,-691.500,501.760,-2281.220
343,64481.896000,223.694,52.617,-251.058,256.140,-107.374,-407.575,-573.500,403.760,-1769.220
344,64481.917000,245.231,41.486,-259.954,253.150,-97.672,-409.502,-447.500,268.760,-1217.220
345,64481.934000,251.105,30.356,-264.896,251.130,-88.946,-410.461,-350.500,193.760,-725.220
346,64481.951000,238.379,23.273,-279.722,249.225,-88.926,-413.381,-301.500,161.760,-511.220
347,64481.977000,230.547,12.142,-284.664,249.197,-78.280,-417.330,-209.500,265.760,-146.220
348,64481.998000,225.652,7.083,-285.652,247.266,-79.229,-418.279,-138.500,285.760,153.780
349,64482.24000,217.820,9.107,-283.676,242.425,-79.181,-421.147,-81.500,162.760,418.780
350,64482.39000,209.989,11.130,-282.687,236.599,-83.965,-421.039,-33.500,-11.240,665.780
351,64482.58000,190.409,15.178,-286.641,241.519,-90.783,-419.149,25.500,-74.240,916.780
352,64482.74000,170.830,22.261,-284.664,237.641,-96.553,-418.089,86.500,38.760,1158.780
353,64482.107000,174.746,30.356,-284.664,230.828,-102.296,-416.977,129.500,95.760,1329.780
354,64482.126000,181.598,32.379,-281.699,227.047,-114.836,-417.880,148.500,77.760,1472.780
355,64482.139000,181.598,33.391,-274.780,230.980,-120.678,-415.974,178.500,-1.240,1557.780
356,64482.162000,177.683,37.439,-266.873,223.215,-131.250,-413.855,216.500,-93.240,1765.780
357,64482.179000,170.830,45.534,-257.977,213.548,-151.481,-409.723,264.500,-283.240,2010.780
358,64482.199000,159.082,53.628,-250.069,212.651,-165.986,-406.737,316.500,-524.240,2253.780
359,64482.231000,148.314,60.711,-238.208,202.967,-192.024,-398.659,360.500,-818.240,2453.780
360,64482.244000,78.807,71.842,-229.313,191.247,-207.403,-391.543,425.500,-1017.240,2623.780
361,64482.264000,56.291,75.889,-224.371,177.660,-238.245,-381.422,487.500,-959.240,2754.780
362,64482.281000,56.291,79.937,-217.452,172.805,-249.813,-377.384,506.500,-840.240,2823.780
363,64482.302000,35.732,81.960,-208.556,155.155,-273.853,-362.277,508.500,-828.240,2849.780
364,64482.327000,10.279,80.949,-201.637,131.781,-296.863,-355.930,506.500,-781.240,2870.780
365,64482.349000,7.342,81.960,-198.672,115.132,-306.392,-349.717,481.500,-513.240,2908.780
366,64482.372000,-7.342,87.020,-195.707,90.707,-317.782,-345.334,442.500,-267.240,2954.780
367,64482.387000,-13.216,74.877,-187.799,75.987,-320.555,-341.133,437.500,-52.240,3008.780
368,64482.404000,9.300,70.830,-185.822,47.646,-324.166,-340.627,302.500,114.760,3033.780
369,64482.427000,2.447,88.032,-189.776,32.987,-327.903,-339.379,176.500,-131.240,3015.780
370,64482.444000,-34.753,96.126,-195.707,0.638,-334.388,-331.908,194.500,-408.240,3051.780
371,64482.477000,-49.438,96.126,-202.625,-30.821,-335.080,-322.490,239.500,-440.240,3145.780
372,64482.496000,-67.059,102.198,-207.568,-54.287,-336.801,-322.073,257.500,-425.240,3176.780
373,64482.524000,-105.239,106.245,-221.405,-86.681,-334.578,-316.580,333.500,-345.240,3169.780
374,64482.528000,-128.734,95.115,-233.266,-94.510,-332.571,-317.428,405.500,-97.240,3094.780
375,64482.546000,-124.818,72.854,-235.243,-126.917,-313.893,-319.830,419.500,186.760,2932.780
376,64482.568000,-124.818,55.652,-239.197,-129.913,-312.902,-316.825,362.500,217.760,2682.780
377,64482.588000,-144.398,50.593,-242.162,-157.375,-298.138,-320.294,286.500,59.760,2376.780
378,64482.622000,-158.103,34.403,-239.197,-169.179,-293.195,-319.107,213.500,-19.240,2063.780
379,64482.626000,-160.061,34.403,-244.139,-188.907,-281.411,-315.818,84.500,-82.240,1771.780
380,64482.649000,-161.040,36.427,-246.116,-199.767,-276.479,-312.678,-11.500,-228.240,1469.780
381,64482.671000,-167.893,47.557,-247.104,-205.665,-271.588,-313.564,-47.500,-300.240,1325.780
382,64482.683000,-188.451,44.522,-247.104,-215.590,-267.635,-307.487,-66.500,-407.240,1045.780
383,64482.716000,-200.199,40.474,-250.069,-223.434,-271.437,-304.390,-81.500,-388.240,749.780
384,64482.736000,-206.073,47.557,-251.058,-226.430,-272.381,-300.398,-82.500,-316.240,446.780
385,64482.755000,-213.904,48.569,-249.081,-225.460,-273.359,-299.430,-42.500,-252.240,121.780
386,64482.780000,-216.841,35.415,-247.104,-222.515,-274.353,-299.481,-14.500,-133.240,-248.220
387,64482.796000,-209.010,28.332,-246.116,-215.604,-281.187,-299.595,-37.500,-14.240,-651.220
388,64482.818000,-195.304,28.332,-251.058,-211.706,-283.159,-297.693,-96.500,60.760,-1043.220
389,64482.836000,-178.662,38.451,-253.035,-197.840,-293.921,-301.863,-141.500,80.760,-1393.220
390,64482.868000,-162.998,52.617,-252.046,-194.869,-297.818,-301.911,-145.500,70.760,-1550.220
391,64482.888000,-150.272,56.664,-248.093,-177.203,-305.718,-301.230,-136.500,46.760,-1818.220
392,64482.905000,-139.503,60.711,-249.081,-165.382,-310.660,-303.402,-153.500,53.760,-2037.220
393,64482.928000,-125.797,63.747,-252.046,-141.792,-320.546,-304.793,-166.500,88.760,-2240.220
394,64482.943000,-115.029,70.830,-246.116,-121.121,-326.534,-309.089,-149.500,187.760,-2401.220
395,64482.965000,-102.302,69.818,-242.162,-109.300,-331.476,-311.261,-126.500,311.760,-2519.220
396,64482.987000,-85.660,69.818,-240.185,-79.797,-336.574,-317.684,-101.500,391.760,-2601.220
397,64483.2000,-69.017,68.806,-235.243,-63.164,-330.918,-320.938,-81.500,423.760,-2662.220
398,64483.16000,-53.354,65.771,-230.301,-32.656,-335.055,-329.349,-83.500,401.760,-2709.220
399,64483.42000,-41.606,62.735,-225.359,-13.044,-334.263,-332.650,-90.500,360.760,-2737.220
400,64483.64000,-28.880,58.688,-218.440,16.354,-331.624,-337.111,-117.500,279.760,-2768.220
401,64483.87000,-14.195,55.652,-216.463,28.094,-325.923,-340.279,-187.500,182.760,-2787.220
402,64483.112000,-7.342,49.581,-217.452,52.548,-325.178,-340.712,-250.500,41.760,-2810.220
403,64483.127000,-1.468,51.605,-221.405,85.798,-321.610,-342.289,-287.500,-107.240,-2852.220
404,64483.144000,-0.489,50.593,-221.405,98.456,-314.954,-342.521,-318.500,-209.240,-2864.220
405,64483.167000,-0.489,48.569,-221.405,122.882,-309.371,-343.944,-352.500,-237.240,-2861.220
406,64483.184000,-0.489,48.569,-221.405,136.529,-307.562,-342.219,-377.500,-187.240,-2846.220
407,64483.212000,7.342,46.545,-225.359,166.790,-296.228,-344.737,-412.500,-141.240,-2847.220
408,64483.249000,15.174,50.593,-231.290,169.697,-285.609,-348.738,-434.500,-139.240,-2869.220
409,64483.263000,19.090,53.628,-235.243,207.794,-271.441,-353.367,-472.500,-95.240,-2936.220
410,64483.272000,19.090,54.640,-235.243,219.417,-249.292,-358.520,-497.500,85.760,-2985.220
411,64483.294000,20.069,61.723,-233.266,234.022,-235.879,-361.748,-476.500,391.760,-2974.220
412,64483.314000,31.816,63.747,-225.359,251.487,-199.267,-372.929,-443.500,779.760,-2908.220
413,64483.342000,67.059,67.794,-225.359,251.423,-184.752,-376.882,-410.500,964.760,-2846.220
414,64483.357000,109.155,64.759,-222.394,265.026,-150.038,-389.962,-395.500,861.760,-2754.220
415,64483.379000,130.692,60.711,-214.486,268.807,-133.627,-391.032,-404.500,690.760,-2570.220
416,64483.402000,168.872,57.676,-218.440,275.476,-106.598,-395.120,-375.500,418.760,-2279.220
417,64483.419000,180.620,44.522,-218.440,278.241,-84.372,-397.164,-361.500,297.760,-2074.220
418,64483.442000,175.725,38.451,-211.521,281.235,-75.684,-405.102,-336.500,314.760,-1620.220
419,64483.463000,189.430,31.368,-213.498,280.175,-59.226,-409.041,-329.500,395.760,-1196.220
420,64483.479000,226.631,29.344,-226.347,273.220,-53.362,-405.971,-339.500,137.760,-910.220
421,64483.499000,206.073,18.213,-227.336,275.297,-49.501,-414.872,-368.500,15.760,-695.220
422,64483.522000,203.136,18.213,-241.174,270.361,-46.556,-413.804,-376.500,80.760,-497.220
423,64483.542000,233.484,19.225,-274.780,267.442,-42.656,-416.710,-356.500,-44.240,-257.220
424,64483.564000,217.820,18.213,-290.595,258.715,-49.347,-417.533,-289.500,-194.240,85.780
425,64483.587000,208.031,23.273,-299.490,261.633,-51.311,-415.613,-196.500,-79.240,468.780
426,64483.602000,215.862,33.391,-305.421,263.687,-58.098,-417.610,-146.500,-6.240,643.780
427,64483.627000,203.136,33.391,-300.479,249.028,-61.835,-416.362,-38.500,-26.240,945.780
428,64483.654000,199.220,36.427,-294.548,246.199,-73.418,-416.299,67.500,-94.240,1243.780
429,64483.673000,184.535,44.522,-287.629,250.201,-79.256,-418.331,162.500,-189.240,1549.780
430,64483.687000,170.830,49.581,-280.710,249.332,-98.599,-414.356,240.500,-253.240,1851.780
431,64483.716000,166.914,57.676,-267.861,240.615,-110.128,-413.203,309.500,-343.240,2124.780
432,64483.719000,155.166,62.735,-253.035,239.834,-139.146,-409.218,370.500,-559.240,2351.780
433,64483.746000,130.692,66.783,-241.174,229.173,-167.111,-400.136,424.500,-802.240,2549.780
434,64483.766000,109.155,74.877,-234.255,227.228,-179.675,-394.181,465.500,-911.240,2721.780
435,64483.786000,91.533,79.937,-230.301,209.771,-215.319,-383.985,482.500,-940.240,2790.780
436,64483.809000,70.975,80.949,-225.359,206.918,-233.678,-378.991,522.500,-1004.240,2901.780
437,64483.826000,55.312,82.972,-216.463,182.437,-263.462,-361.787,567.500,-1000.240,2991.780
438,64483.852000,35.732,86.008,-208.556,169.738,-276.895,-355.640,601.500,-984.240,3060.780
439,64483.866000,20.069,81.960,-202.625,144.287,-303.766,-340.392,607.500,-924.240,3097.780
440,64483.888000,10.279,83.984,-196.695,117.890,-326.754,-329.069,584.500,-872.240,3101.780
441,64483.931000,-4.405,80.949,-195.707,110.074,-339.265,-323.009,549.500,-820.240,3088.780
442,64483.944000,-20.069,82.972,-195.707,79.693,-354.479,-311.625,522.500,-735.240,3045.780
443,64483.962000,-33.774,80.949,-191.753,60.030,-361.081,-302.409,502.500,-597.240,3001.780
444,64483.971000,-40.627,75.889,-184.834,26.703,-369.493,-293.934,466.500,-512.240,2973.780
445,64483.996000,-37.690,73.866,-183.846,15.896,-370.366,-290.788,355.500,-396.240,2905.780
446,64484.18000,-42.585,81.960,-198.672,-15.412,-381.696,-284.315,239.500,-453.240,2826.780
447,64484.41000,-50.417,88.032,-207.568,-54.760,-381.351,-271.805,227.500,-629.240,2744.780
448,64484.58000,-58.249,93.091,-205.591,-69.489,-381.221,-268.591,235.500,-769.240,2660.780
449,64484.78000,-85.660,110.292,-215.475,-97.155,-381.955,-252.350,282.500,-835.240,2604.780
450,64484.99000,-128.734,121.423,-224.371,-113.885,-376.969,-249.106,445.500,-572.240,2594.780
451,64484.129000,-140.482,114.340,-223.382,-141.381,-368.015,-247.646,553.500,-52.240,2604.780
452,64484.133000,-134.608,107.257,-224.371,-148.231,-362.145,-250.485,565.500,264.760,2581.780
453,64484.159000,-134.608,110.292,-228.324,-178.621,-346.386,-254.888,565.500,286.760,2555.780
454,64484.186000,-139.503,105.233,-223.382,-184.617,-330.853,-255.785,574.500,191.760,2460.780
455,64484.203000,-158.103,98.150,-222.394,-206.101,-325.815,-260.333,537.500,-47.240,2331.780
456,64484.227000,-192.367,95.115,-217.452,-227.831,-311.112,-256.028,493.500,-277.240,2110.780
457,64484.245000,-237.400,77.913,-212.510,-235.650,-310.073,-256.875,409.500,-294.240,1809.780
458,64484.261000,-262.853,60.711,-218.440,-251.448,-296.388,-255.627,276.500,-248.240,1414.780
459,64484.284000,-281.453,48.569,-224.371,-252.505,-293.480,-252.658,136.500,-248.240,909.780
460,64484.302000,-288.306,50.593,-225.359,-256.410,-294.411,-252.588,19.500,-230.240,389.780
461,64484.316000,-288.306,57.676,-229.313,-252.539,-295.417,-249.702,-64.500,-218.240,-109.220
462,64484.343000,-280.474,63.747,-230.301,-258.418,-298.268,-247.626,-88.500,-147.240,-348.220
463,64484.381000,-262.853,70.830,-231.290,-245.610,-304.186,-249.814,-125.500,-9.240,-770.220
464,64484.404000,-239.358,79.937,-232.278,-236.785,-308.137,-248.981,-152.500,147.760,-1108.220
465,64484.407000,-209.010,80.949,-230.301,-223.924,-315.988,-253.138,-167.500,245.760,-1387.220
466,64484.433000,-186.493,81.960,-227.336,-219.975,-319.893,-253.203,-178.500,261.760,-1631.220
467,64484.448000,-172.788,83.984,-223.382,-201.216,-330.700,-257.460,-185.500,279.760,-1852.220
468,64484.471000,-162.019,86.008,-220.417,-196.202,-334.609,-262.466,-189.500,355.760,-2030.220
469,64484.486000,-141.461,88.032,-218.440,-169.685,-343.555,-263.909,-202.500,384.760,-2186.220
470,64484.518000,-124.818,88.032,-213.498,-145.983,-352.467,-272.194,-214.500,363.760,-2316.220
471,64484.521000,-112.092,84.996,-207.568,-126.343,-356.513,-274.506,-255.500,301.760,-2375.220
472,64484.547000,-98.386,87.020,-205.591,-101.792,-366.409,-274.928,-307.500,206.760,-2476.220
473,64484.569000,-96.428,93.091,-206.579,-92.024,-364.564,-275.103,-325.500,124.760,-2544.220
474,64484.598000,-97.407,92.079,-208.556,-54.666,-376.507,-279.688,-327.500,181.760,-2603.220
475,64484.613000,-88.597,87.020,-206.579,-41.973,-369.848,-281.890,-366.500,285.760,-2681.220
476,64484.631000,-76.849,80.949,-207.568,-9.553,-371.103,-289.353,-412.500,348.760,-2792.220
477,64484.644000,-68.038,76.901,-212.510,-0.626,-367.304,-298.375,-471.500,409.760,-2914.220
478,64484.663000,-52.375,77.913,-217.452,32.686,-366.637,-301.919,-518.500,430.760,-3014.220
479,64484.691000,-37.690,78.925,-221.405,69.926,-354.389,-312.437,-538.500,415.760,-3106.220
480,64484.711000,-26.922,81.960,-220.417,79.692,-348.671,-314.585,-571.500,408.760,-3128.220
481,64484.731000,-15.174,83.984,-220.417,110.048,-336.363,-323.012,-601.500,440.760,-3165.220
482,64484.753000,-6.363,82.972,-220.417,130.576,-326.872,-327.324,-609.500,442.760,-3194.220
483,64484.781000,8.321,81.960,-218.440,157.908,-304.863,-335.709,-628.500,426.760,-3215.220
484,64484.801000,23.006,77.913,-215.475,167.743,-299.142,-341.797,-700.500,373.760,-3250.220
485,64484.816000,38.669,78.925,-216.463,188.163,-272.234,-349.081,-773.500,268.760,-3304.220
486,64484.834000,49.438,78.925,-212.510,209.624,-250.172,-357.362,-823.500,250.760,-3323.220
487,64484.863000,70.975,86.008,-219.429,222.271,-234.805,-361.541,-900.500,325.760,-3327.220
488,64484.886000,86.639,89.043,-226.347,239.877,-207.864,-375.667,-938.500,346.760,-3343.220
489,64484.905000,99.365,97.138,-233.266,238.808,-190.438,-379.606,-979.500,405.760,-3330.220
490,64484.923000,132.650,99.162,-242.162,248.533,-157.622,-393.599,-942.500,579.760,-3223.220
491,64484.946000,180.620,91.067,-252.046,250.400,-144.094,-395.617,-838.500,729.760,-2948.220
492,64484.961000,212.925,76.901,-256.988,260.098,-112.247,-407.639,-668.500,641.760,-2429.220
493,64484.969000,224.673,63.747,-264.896,255.115,-92.850,-412.496,-505.500,459.760,-1736.220
494,64484.996000,219.778,54.640,-266.873,255.070,-86.077,-413.487,-369.500,368.760,-1085.220
495,64485.28000,232.505,47.557,-266.873,254.080,-77.357,-417.418,-288.500,397.760,-615.220
496,64485.43000,236.421,34.403,-265.884,244.224,-69.529,-417.253,-243.500,313.760,-302.220
497,64485.63000,220.757,27.320,-262.919,243.202,-66.619,-416.253,-226.500,245.760,-171.220
498,64485.81000,211.946,23.273,-268.849,244.310,-67.588,-423.163,-199.500,196.760,121.780
499,64485.101000,211.946,27.320,-272.803,236.509,-70.420,-423.022,-163.500,241.760,460.780
500,64485.123000,204.115,32.379,-276.757,239.505,-71.411,-426.027,-106.500,216.760,808.780
501,64485.143000,202.157,35.415,-277.745,236.544,-72.353,-424.005,-39.500,182.760,1124.780
502,64485.182000,198.241,41.486,-276.757,227.897,-85.815,-425.805,22.500,44.760,1400.780
503,64485.186000,185.514,48.569,-273.792,223.015,-92.545,-422.757,82.500,-139.240,1646.780
504,64485.217000,168.872,55.652,-273.792,217.234,-106.037,-420.670,138.500,-280.240,1877.780
505,64485.236000,154.187,61.723,-273.792,217.288,-115.713,-418.691,209.500,-358.240,2115.780
506,64485.264000,138.524,68.806,-275.768,215.528,-140.850,-416.661,248.500,-380.240,2236.780
507,64485.269000,127.755,75.889,-277.745,200.887,-150.394,-413.438,340.500,-433.240,2470.780
508,64485.291000,116.987,84.996,-280.710,197.084,-175.517,-406.450,435.500,-541.240,2661.780
509,64485.318000,94.470,90.055,-279.722,184.397,-205.405,-392.408,541.500,-740.240,2803.780
510,64485.338000,69.017,89.043,-274.780,171.801,-216.897,-393.156,646.500,-881.240,2921.780
511,64485.367000,50.417,90.055,-266.873,168.873,-247.843,-377.317,733.500,-951.240,2997.780
512,64485.377000,33.774,89.043,-258.965,157.230,-264.185,-374.138,800.500,-987.240,3036.780
513,64485.399000,18.111,88.032,-250.069,135.658,-287.222,-358.963,846.500,-1026.240,3041.780
514,64485.417000,8.321,81.960,-237.220,125.833,-301.653,-348.928,865.500,-1051.240,3021.780
515,64485.439000,-5.384,81.960,-224.371,101.299,-325.633,-331.730,866.500,-1061.240,2997.780
516,64485.462000,-20.069,72.854,-212.510,77.760,-345.748,-317.508,859.500,-1052.240,2935.780
517,64485.477000,-26.922,66.783,-201.637,68.895,-352.447,-310.452,821.500,-967.240,2855.780
518,64485.499000,-37.690,62.735,-193.730,44.333,-371.588,-294.243,756.500,-877.240,2772.780
519,64485.521000,-43.564,60.711,-189.776,40.421,-377.360,-291.214,692.500,-803.240,2697.780
520,64485.543000,-47.480,60.711,-183.846,5.006,-380.922,-277.786,630.500,-746.240,2618.780
521,64485.566000,-58.249,61.723,-177.915,-10.674,-387.556,-272.578,587.500,-667.240,2529.780
522,64485.583000,-71.954,56.664,-174.950,-39.187,-393.113,-261.238,519.500,-497.240,2446.780
523,64485.614000,-75.870,61.723,-178.903,-47.129,-388.209,-257.165,466.500,-345.240,2354.780
524,64485.617000,-84.681,66.783,-176.927,-74.597,-384.092,-254.715,455.500,-261.240,2310.780
525,64485.634000,-100.344,74.877,-188.788,-99.068,-382.902,-254.284,447.500,-100.240,2227.780
526,64485.664000,-121.881,82.972,-205.591,-116.674,-377.902,-256.932,504.500,23.760,2124.780
527,64485.682000,-159.082,80.949,-211.521,-132.375,-367.116,-259.620,595.500,233.760,1985.780
528,64485.702000,-191.388,66.783,-212.510,-140.197,-358.333,-264.414,604.500,605.760,1837.780
529,64485.722000,-201.178,54.640,-218.440,-157.701,-343.648,-277.904,516.500,877.760,1633.780
530,64485.746000,-193.346,46.545,-224.371,-160.691,-333.945,-279.831,379.500,810.760,1385.780
531,64485.763000,-189.430,47.557,-229.313,-167.465,-323.232,-289.568,259.500,481.760,1078.780
532,64485.783000,-204.115,43.510,-227.336,-174.351,-317.364,-290.438,133.500,310.760,738.780
533,64485.806000,-216.841,37.439,-227.336,-181.183,-317.301,-291.302,57.500,72.760,567.780
534,64485.826000,-223.694,40.474,-229.313,-183.184,-314.382,-290.285,-75.500,-44.240,228.780
535,64485.838000,-223.694,47.557,-234.255,-179.278,-315.386,-289.369,-156.500,-95.240,-92.220
536,64485.881000,-216.841,50.593,-237.220,-176.385,-320.254,-284.492,-187.500,-174.240,-434.220
537,64485.908000,-212.925,52.617,-236.232,-177.362,-324.117,-282.501,-194.500,-212.240,-763.220
538,64485.908000,-209.010,53.628,-237.220,-167.471,-335.815,-282.662,-208.500,-155.240,-1069.220
539,64485.932000,-199.220,52.617,-238.208,-152.792,-339.820,-280.948,-224.500,-84.240,-1353.220
540,64485.948000,-183.556,53.628,-243.151,-148.861,-339.855,-282.002,-256.500,-69.240,-1614.220
541,64485.966000,-165.935,56.664,-243.151,-129.201,-353.578,-280.365,-266.500,-90.240,-1743.220
542,64485.979000,-151.250,56.664,-240.185,-113.545,-355.656,-279.655,-285.500,-132.240,-1981.220
543,64486.9000,-138.524,58.688,-238.208,-93.895,-364.541,-279.993,-312.500,-129.240,-2190.220
544,64486.33000,-124.818,61.723,-239.197,-80.212,-368.538,-277.277,-324.500,-75.240,-2355.220
545,64486.56000,-112.092,63.747,-239.197,-47.808,-373.665,-281.782,-327.500,25.760,-2471.220
546,64486.78000,-96.428,62.735,-232.278,-34.083,-376.691,-282.021,-329.500,168.760,-2561.220
547,64486.93000,-80.765,55.652,-228.324,-4.615,-377.920,-288.448,-339.500,281.760,-2638.220
548,64486.111000,-63.143,60.711,-223.382,22.850,-370.422,-296.818,-347.500,353.760,-2662.220
549,64486.132000,-45.522,58.688,-222.394,39.484,-368.637,-298.099,-349.500,355.760,-2683.220
550,64486.159000,-31.816,51.605,-218.440,70.784,-360.212,-302.600,-351.500,345.760,-2685.220
551,64486.162000,-20.069,47.557,-207.568,81.537,-353.535,-305.752,-352.500,325.760,-2670.220
552,64486.192000,-2.447,35.415,-196.695,111.903,-344.130,-313.191,-368.500,363.760,-2618.220
553,64486.218000,13.216,27.320,-198.672,125.661,-339.411,-319.347,-433.500,370.760,-2600.220
554,64486.236000,22.027,23.273,-206.579,150.111,-323.180,-327.674,-520.500,220.760,-2669.220
555,64486.256000,18.111,21.249,-205.591,176.483,-308.904,-333.080,-618.500,61.760,-2761.220
556,64486.288000,12.237,21.249,-203.614,177.407,-301.173,-334.090,-710.500,84.760,-2795.220
557,64486.302000,21.048,28.332,-208.556,200.842,-279.128,-343.390,-768.500,259.760,-2783.220
558,64486.334000,42.585,37.439,-217.452,211.577,-268.580,-347.530,-809.500,368.760,-2794.220
559,64486.343000,57.270,38.451,-224.371,227.123,-243.563,-354.726,-823.500,346.760,-2809.220
560,64486.368000,62.164,44.522,-227.336,232.004,-232.961,-359.747,-859.500,268.760,-2839.220
561,64486.388000,68.038,52.617,-229.313,241.722,-206.921,-369.794,-891.500,317.760,-2812.220
562,64486.407000,83.702,59.700,-241.174,241.679,-175.950,-383.612,-891.500,460.760,-2706.220
563,64486.423000,116.008,62.735,-252.046,247.566,-170.195,-387.660,-838.500,592.760,-2508.220
564,64486.462000,147.335,56.664,-257.977,248.425,-142.141,-395.584,-748.500,582.760,-2198.220
565,64486.464000,159.082,46.545,-266.873,255.254,-130.590,-400.641,-629.500,468.760,-1750.220
566,64486.489000,174.746,41.486,-278.734,250.340,-113.124,-408.450,-506.500,381.760,-1258.220
567,64486.506000,179.641,38.451,-287.629,253.257,-109.281,-409.490,-380.500,316.760,-823.220
568,64486.527000,190.409,33.391,-290.595,248.380,-101.492,-414.335,-322.500,183.760,-660.220
569,64486.548000,194.325,27.320,-293.560,249.350,-102.469,-413.367,-247.500,-12.240,-404.220
570,64486.569000,180.620,26.308,-306.409,242.500,-102.407,-413.246,-187.500,-222.240,-194.220
571,64486.592000,168.872,27.320,-312.340,240.580,-108.195,-412.221,-109.500,-188.240,47.780
572,64486.612000,166.914,27.320,-311.351,244.467,-107.264,-411.306,6.500,13.760,361.780
573,64486.618000,179.641,30.356,-304.432,243.524,-109.189,-412.271,139.500,148.760,717.780
574,64486.666000,179.641,35.415,-293.560,233.775,-112.969,-412.095,261.500,82.760,1065.780
575,64486.670000,173.767,37.439,-287.629,234.782,-125.559,-407.175,351.500,-24.240,1376.780
576,64486.698000,156.145,36.427,-274.780,236.766,-130.415,-406.220,414.500,-66.240,1652.780
577,64486.716000,157.124,38.451,-257.977,233.912,-144.902,-403.200,436.500,-87.240,1771.780
578,64486.753000,155.166,44.522,-246.116,225.215,-166.110,-398.099,462.500,-231.240,1984.780
579,64486.772000,138.524,45.534,-238.208,227.210,-177.741,-394.182,473.500,-466.240,2173.780
580,64486.786000,125.797,49.581,-231.290,219.483,-201.861,-387.126,470.500,-644.240,2342.780
581,64486.796000,110.134,56.664,-229.313,221.540,-218.328,-384.190,474.500,-790.240,2480.780
582,64486.818000,94.470,58.688,-227.336,193.153,-245.172,-368.890,482.500,-943.240,2588.780
583,64486.836000,74.891,63.747,-228.324,190.212,-257.728,-361.932,503.500,-1046.240,2663.780
584,64486.863000,46.501,68.806,-227.336,167.784,-288.492,-349.685,541.500,-1008.240,2717.780
585,64486.887000,26.922,69.818,-230.301,149.208,-314.456,-336.529,556.500,-943.240,2754.780
586,64486.891000,15.174,73.866,-229.313,129.563,-326.865,-325.337,595.500,-827.240,2768.780
587,64486.923000,9.300,74.877,-228.324,108.976,-343.135,-314.125,609.500,-772.240,2791.780
588,64486.938000,-2.447,76.901,-226.347,96.232,-353.667,-306.996,617.500,-777.240,2787.780
589,64486.956000,-18.111,81.960,-224.371,69.730,-366.982,-294.698,617.500,-777.240,2774.780
590,64486.969000,-37.690,87.020,-222.394,61.878,-373.688,-289.629,642.500,-718.240,2756.780
591,64487.2000,-51.396,87.020,-215.475,26.594,-382.082,-281.119,655.500,-528.240,2721.780
592,64487.22000,-53.354,81.960,-207.568,8.912,-383.862,-275.882,596.500,-308.240,2667.780
593,64487.39000,-47.480,82.972,-207.568,-18.589,-385.554,-268.503,523.500,-264.240,2611.780
594,64487.67000,-55.312,91.067,-205.591,-47.008,-386.266,-265.046,507.500,-256.240,2599.780
595,64487.88000,-54.333,93.091,-196.695,-53.919,-383.304,-262.958,449.500,-229.240,2620.780
596,64487.109000,-54.333,102.198,-197.683,-89.240,-382.021,-257.412,410.500,-323.240,2662.780
597,64487.124000,-68.038,115.352,-195.707,-108.932,-377.978,-252.146,423.500,-480.240,2725.780
598,64487.172000,-86.639,127.494,-201.637,-128.632,-374.904,-245.895,497.500,-627.240,2795.780
599,64487.186000,-114.050,133.565,-199.660,-153.173,-371.782,-242.511,599.500,-638.240,2819.780
600,64487.194000,-145.377,129.518,-198.672,-176.868,-358.030,-237.185,635.500,-530.240,2798.780
601,64487.208000,-175.725,133.565,-210.533,-208.269,-348.071,-236.641,718.500,-448.240,2611.780
602,64487.226000,-221.736,114.340,-206.579,-209.336,-340.324,-235.647,771.500,-176.240,2296.780
603,64487.248000,-246.210,78.925,-205.591,-228.935,-327.565,-240.238,739.500,-16.240,2109.780
604,64487.271000,-251.105,51.605,-200.649,-235.821,-319.762,-242.094,597.500,156.760,1660.780
605,64487.302000,-264.811,41.486,-197.683,-247.643,-309.012,-242.882,388.500,81.760,1134.780
606,64487.302000,-282.432,39.462,-207.568,-241.695,-308.093,-247.910,181.500,-48.240,610.780
607,64487.329000,-296.138,56.664,-217.452,-246.640,-306.116,-245.856,27.500,-56.240,136.780
608,64487.346000,-302.011,66.783,-219.429,-245.695,-309.999,-241.930,-103.500,-0.240,-309.220
609,64487.371000,-292.222,79.937,-217.452,-241.711,-311.966,-244.952,-194.500,62.760,-702.220
610,64487.388000,-276.558,88.032,-214.486,-229.871,-322.714,-245.149,-253.500,100.760,-1031.220
611,64487.416000,-254.042,91.067,-209.544,-227.896,-326.603,-244.195,-308.500,125.760,-1336.220
612,64487.431000,-230.547,83.984,-209.544,-218.031,-335.398,-244.359,-343.500,116.760,-1480.220
613,64487.453000,-204.115,87.020,-211.521,-203.318,-341.337,-243.628,-403.500,64.760,-1772.220
614,64487.476000,-184.535,88.032,-212.510,-184.689,-351.183,-240.993,-463.500,28.760,-2040.220
615,64487.492000,-171.809,91.067,-214.486,-179.692,-357.029,-244.028,-505.500,77.760,-2244.220
616,64487.512000,-154.187,98.150,-214.486,-150.230,-368.905,-244.535,-515.500,155.760,-2387.220
617,64487.543000,-108.176,88.032,-219.429,-124.692,-377.842,-245.961,-515.500,172.760,-2507.220
618,64487.572000,-91.533,89.043,-221.405,-109.953,-382.811,-247.200,-542.500,111.760,-2630.220
619,64487.581000,-87.618,88.032,-223.382,-70.706,-394.776,-247.881,-560.500,72.760,-2721.220
620,64487.597000,-80.765,84.996,-223.382,-59.943,-392.938,-249.058,-571.500,135.760,-2764.220
621,64487.629000,-67.059,81.960,-217.452,-28.526,-399.024,-252.560,-570.500,196.760,-2768.220
622,64487.644000,-53.354,77.913,-219.429,-17.737,-400.089,-253.734,-562.500,259.760,-2730.220
623,64487.667000,-40.627,66.783,-220.417,12.655,-391.650,-262.157,-565.500,193.760,-2670.220
624,64487.682000,-37.690,61.723,-225.359,40.996,-389.974,-261.676,-596.500,-3.240,-2639.220
625,64487.709000,-42.585,54.640,-231.290,58.592,-392.071,-260.016,-632.500,-191.240,-2633.220
626,64487.727000,-50.417,51.605,-230.301,87.920,-387.500,-261.525,-663.500,-204.240,-2636.220
627,64487.743000,-50.417,49.581,-227.336,100.710,-389.548,-264.702,-678.500,-39.240,-2625.220
628,64487.764000,-39.648,42.498,-227.336,129.031,-378.194,-268.170,-701.500,143.760,-2617.220
629,64487.786000,-19.090,39.462,-230.301,137.835,-368.595,-273.259,-750.500,216.760,-2627.220
630,64487.806000,-4.405,34.403,-234.255,169.169,-354.360,-282.690,-771.500,211.760,-2641.220
631,64487.833000,0.489,32.379,-236.232,187.722,-340.980,-287.956,-809.500,201.760,-2676.220
632,64487.848000,13.216,32.379,-240.185,205.358,-326.621,-297.145,-856.500,308.760,-2721.220
633,64487.863000,33.774,34.403,-242.162,227.822,-303.598,-307.414,-875.500,448.760,-2740.220
634,64487.886000,66.080,36.427,-248.093,229.732,-289.100,-312.387,-858.500,481.760,-2696.220
635,64487.903000,89.576,36.427,-252.046,248.326,-265.071,-325.542,-807.500,415.760,-2547.220
636,64487.926000,107.197,28.332,-262.919,259.131,-256.455,-332.634,-730.500,365.760,-2276.220
637,64487.957000,126.776,27.320,-274.780,262.009,-237.127,-339.599,-600.500,361.760,-1882.220
638,64487.979000,146.356,23.273,-279.722,272.832,-232.382,-345.703,-448.500,339.760,-1417.220
639,64487.999000,163.977,15.178,-285.652,272.725,-218.838,-346.701,-377.500,306.760,-1178.220
640,64488.19000,168.872,8.095,-288.618,276.584,-207.261,-349.737,-233.500,247.760,-718.220
641,64488.41000,169.851,1.012,-288.618,275.674,-205.313,-354.645,-104.500,208.760,-289.220
642,64488.59000,163.977,-4.047,-285.652,279.641,-207.281,-356.682,-1.500,149.760,91.780
643,64488.88000,157.124,-12.142,-279.722,276.669,-201.449,-357.621,80.500,85.760,419.780
644,64488.94000,144.398,-13.154,-274.780,271.787,-210.115,-353.586,141.500,16.760,716.780
645,64488.112000,129.713,-13.154,-272.803,263.960,-213.916,-351.474,200.500,-23.240,993.780
646,64488.134000,116.987,-11.130,-267.861,259.140,-225.482,-349.407,256.500,-21.240,1251.780
647,64488.157000,108.176,-6.071,-261.931,252.372,-237.998,-347.303,299.500,-12.240,1491.780
648,64488.177000,102.302,-1.012,-258.965,247.498,-241.824,-346.228,311.500,-21.240,1597.780
649,64488.199000,95.449,2.024,-260.942,233.881,-258.149,-342.030,330.500,-93.240,1786.780
650,64488.217000,83.702,6.071,-258.965,225.120,-266.778,-339.896,355.500,-158.240,1946.780
651,64488.239000,71.954,13.154,-258.965,213.452,-284.089,-334.747,378.500,-182.240,2089.780
652,64488.256000,57.270,21.249,-262.919,201.781,-293.657,-333.545,414.500,-177.240,2210.780
653,64488.278000,50.417,27.320,-265.884,177.331,-307.953,-326.205,442.500,-160.240,2312.780
654,64488.301000,40.627,36.427,-266.873,162.667,-326.209,-317.064,486.500,-200.240,2404.780
655,64488.317000,25.943,43.510,-262.919,154.867,-330.976,-315.936,526.500,-221.240,2480.780
656,64488.342000,13.216,49.581,-259.954,130.415,-339.464,-311.555,543.500,-228.240,2547.780
657,64488.362000,5.384,56.664,-256.000,114.787,-348.031,-308.315,571.500,-208.240,2572.780
658,64488.389000,-5.384,59.700,-256.988,87.401,-360.364,-301.910,583.500,-193.240,2605.780
659,64488.403000,-19.090,61.723,-257.977,74.637,-357.347,-300.703,620.500,-153.240,2595.780
660,64488.421000,-30.837,64.759,-255.012,51.181,-365.843,-297.325,658.500,-44.240,2584.780
661,64488.438000,-35.732,64.759,-246.116,39.476,-371.542,-296.126,657.500,101.760,2576.780
662,64488.461000,-31.816,64.759,-236.232,14.995,-367.449,-296.683,603.500,146.760,2577.780
663,64488.475000,-25.943,65.771,-231.290,-8.470,-371.106,-295.279,525.500,-10.240,2581.780
664,64488.506000,-31.816,74.877,-227.336,-30.093,-368.012,-290.962,499.500,-268.240,2580.780
665,64488.524000,-38.669,76.901,-218.440,-57.551,-370.670,-285.551,483.500,-392.240,2594.780
666,64488.547000,-46.501,80.949,-205.591,-64.477,-373.515,-279.518,423.500,-611.240,2625.780
667,64488.572000,-63.143,92.079,-205.591,-91.096,-372.318,-268.220,382.500,-866.240,2644.780
668,64488.588000,-98.386,103.209,-202.625,-114.692,-373.079,-260.910,455.500,-945.240,2635.780
669,64488.597000,-121.881,101.186,-196.695,-143.354,-369.934,-245.640,493.500,-795.240,2616.780
670,64488.616000,-134.608,107.257,-194.718,-160.025,-363.977,-246.336,552.500,-659.240,2531.780
671,64488.653000,-175.725,108.269,-199.660,-176.807,-358.994,-240.139,685.500,-481.240,2322.780
672,64488.672000,-217.820,90.055,-203.614,-195.436,-349.148,-242.774,749.500,-138.240,2077.780
673,64488.701000,-229.568,68.806,-202.625,-198.416,-342.349,-243.714,713.500,155.760,1777.780
674,64488.714000,-237.400,50.593,-203.614,-207.225,-332.590,-248.491,664.500,240.760,1600.780
675,64488.734000,-241.315,47.557,-203.614,-219.905,-323.761,-255.169,531.500,329.760,1239.780
676,64488.756000,-243.273,37.439,-204.602,-219.899,-313.114,-261.088,362.500,389.760,875.780
677,64488.777000,-241.315,30.356,-209.544,-225.710,-310.153,-265.911,178.500,319.760,460.780
678,64488.806000,-235.442,30.356,-212.510,-221.805,-307.285,-266.968,18.500,130.760,55.780
679,64488.814000,-236.421,38.451,-213.498,-225.700,-313.056,-264.923,-117.500,-54.240,-326.220
680,64488.837000,-239.358,52.617,-213.498,-220.850,-316.007,-261.068,-223.500,-144.240,-690.220
681,64488.859000,-227.610,56.664,-215.475,-212.926,-322.848,-263.169,-308.500,-115.240,-1032.220
682,64488.882000,-211.946,62.735,-214.486,-206.110,-326.784,-259.347,-383.500,-67.240,-1337.220
683,64488.902000,-193.346,64.759,-210.533,-189.412,-339.514,-256.674,-417.500,-49.240,-1476.220
684,64488.920000,-178.662,66.783,-207.568,-181.522,-344.421,-257.792,-480.500,-32.240,-1729.220
685,64488.943000,-159.082,65.771,-209.544,-166.868,-353.267,-252.135,-547.500,-69.240,-1971.220
686,64488.957000,-143.419,68.806,-209.544,-140.376,-367.054,-249.634,-628.500,-145.240,-2203.220
687,64488.989000,-132.650,70.830,-212.510,-132.450,-379.703,-248.775,-724.500,-215.240,-2395.220
688,64489.26000,-124.818,73.866,-221.405,-112.896,-387.625,-244.189,-816.500,-241.240,-2535.220
689,64489.37000,-118.945,81.960,-228.324,-93.316,-392.642,-242.561,-875.500,-207.240,-2644.220
690,64489.51000,-111.113,86.008,-236.232,-66.895,-398.689,-240.068,-869.500,-147.240,-2719.220
691,64489.66000,-97.407,84.996,-240.185,-51.238,-404.639,-237.385,-838.500,-49.240,-2792.220
692,64489.88000,-90.554,88.032,-241.174,-19.847,-409.759,-239.903,-819.500,16.760,-2815.220
693,64489.106000,-79.786,87.020,-241.174,11.550,-406.167,-247.354,-762.500,200.760,-2811.220
694,64489.128000,-64.122,83.984,-237.220,23.300,-401.434,-250.520,-694.500,426.760,-2791.220
695,64489.137000,-44.543,76.901,-228.324,51.778,-395.878,-259.891,-616.500,571.760,-2747.220
696,64489.164000,-34.753,65.771,-219.429,74.316,-388.338,-266.205,-550.500,627.760,-2695.220
697,64489.182000,-14.195,51.605,-212.510,103.806,-376.982,-280.523,-548.500,662.760,-2628.220
698,64489.200000,5.384,41.486,-213.498,111.606,-368.344,-283.624,-604.500,549.760,-2605.220
699,64489.222000,9.300,32.379,-213.498,139.079,-357.942,-293.967,-659.500,293.760,-2609.220
700,64489.243000,8.321,28.332,-216.463,164.482,-346.561,-298.367,-716.500,103.760,-2608.220
701,64489.272000,6.363,27.320,-221.405,178.188,-337.974,-303.542,-744.500,84.760,-2610.220
702,64489.294000,1.468,32.379,-231.290,193.761,-317.795,-309.748,-798.500,216.760,-2618.220
703,64489.317000,14.195,36.427,-242.162,208.478,-305.343,-318.883,-797.500,497.760,-2606.220
704,64489.334000,50.417,32.379,-248.093,225.097,-279.362,-332.006,-756.500,740.760,-2542.220
705,64489.354000,83.702,32.379,-252.046,227.068,-265.828,-339.932,-702.500,764.760,-2427.220
706,64489.392000,110.134,27.320,-258.965,250.546,-244.748,-351.201,-626.500,661.760,-2200.220
707,64489.406000,135.587,20.237,-265.884,252.456,-228.314,-357.161,-529.500,551.760,-1836.220
708,64489.424000,162.998,14.166,-270.826,258.315,-217.721,-362.199,-419.500,352.760,-1387.220
709,64489.438000,180.620,7.083,-273.792,257.246,-202.231,-365.152,-313.500,204.760,-925.220
710,64489.462000,182.577,4.047,-280.710,259.229,-201.279,-367.157,-263.500,-83.240,-712.220
711,64489.474000,165.935,1.012,-280.710,259.195,-203.217,-364.200,-164.500,-295.240,-333.220
712,64489.497000,140.482,-4.047,-284.664,256.277,-205.125,-364.147,-77.500,-265.240,-15.220
713,64489.519000,132.650,-9.107,-283.676,251.403,-208.951,-363.071,-1.500,-103.240,248.780
714,64489.539000,127.755,-10.119,-284.664,256.322,-209.962,-364.142,62.500,-37.240,482.780
715,64489.561000,114.050,-11.130,-278.734,248.531,-217.632,-362.026,133.500,-24.240,710.780
716,64489.581000,101.323,-11.130,-273.792,251.494,-224.433,-360.102,199.500,-17.240,936.780
717,64489.604000,90.554,-8.095,-270.826,238.792,-228.188,-358.888,256.500,-28.240,1144.780
718,64489.624000,84.681,-4.047,-266.873,230.040,-241.655,-354.780,278.500,-46.240,1319.780
719,64489.647000,71.954,0.000,-267.861,230.041,-245.527,-352.806,321.500,-92.240,1400.780
720,64489.672000,62.164,3.036,-265.884,218.285,-255.100,-346.680,358.500,-66.240,1539.780
721,64489.691000,58.249,5.059,-266.873,217.438,-263.795,-349.608,390.500,-50.240,1663.780
722,64489.710000,59.228,14.166,-265.884,203.804,-280.121,-344.426,414.500,-98.240,1773.780
723,64489.723000,52.375,17.202,-261.931,192.021,-288.727,-337.316,447.500,-187.240,1891.780
724,64489.746000,43.564,23.273,-256.000,178.377,-298.279,-335.095,477.500,-231.240,2016.780
725,64489.764000,40.627,28.332,-249.081,161.798,-311.675,-330.848,494.500,-250.240,2152.780
726,64489.786000,35.732,32.379,-242.162,156.898,-318.406,-326.815,498.500,-290.240,2276.780
727,64489.813000,31.816,34.403,-242.162,132.423,-333.671,-317.504,500.500,-334.240,2329.780
728,64489.833000,23.006,40.474,-241.174,123.688,-345.202,-315.367,525.500,-440.240,2419.780
729,64489.848000,11.258,39.462,-239.197,104.053,-358.578,-304.175,553.500,-490.240,2489.780
730,64489.871000,1.468,39.462,-238.208,87.359,-365.206,-296.981,551.500,-474.240,2515.780
731,64489.888000,-9.300,44.522,-240.185,60.969,-377.547,-291.577,560.500,-462.240,2519.780
732,64489.906000,-21.048,50.593,-241.174,39.323,-385.101,-280.357,593.500,-432.240,2524.780
733,64489.924000,-32.795,55.652,-237.220,23.649,-381.088,-281.069,627.500,-362.240,2536.780
734,64489.938000,-41.606,58.688,-237.220,-2.856,-382.788,-274.691,641.500,-287.240,2553.780
735,64489.963000,-49.438,62.735,-240.185,-20.520,-386.503,-269.452,673.500,-212.240,2554.780
736,64489.991000,-59.228,66.783,-247.104,-46.004,-387.242,-266.047,697.500,-157.240,2548.780
737,64490.8000,-68.038,67.794,-240.185,-59.712,-382.278,-267.779,731.500,-31.240,2522.780
738,64490.33000,-79.786,68.806,-224.371,-83.189,-375.289,-271.309,729.500,139.760,2483.780
739,64490.51000,-90.554,65.771,-216.463,-105.767,-363.473,-272.893,677.500,362.760,2457.780
740,64490.73000,-82.723,59.700,-211.521,-115.492,-358.542,-278.633,568.500,427.760,2439.780
741,64490.93000,-75.870,64.759,-225.359,-137.048,-347.701,-282.202,520.500,152.760,2414.780
742,64490.117000,-79.786,79.937,-226.347,-153.718,-343.680,-281.912,527.500,-245.240,2370.780
743,64490.144000,-107.197,80.949,-220.417,-170.527,-335.795,-275.717,529.500,-511.240,2273.780
744,64490.163000,-185.514,71.842,-219.429,-175.534,-328.982,-272.683,535.500,-550.240,2076.780
745,64490.182000,-217.820,57.676,-218.440,-193.190,-327.856,-270.403,536.500,-482.240,1957.780
746,64490.201000,-239.358,46.545,-214.486,-205.029,-319.044,-269.220,493.500,-256.240,1656.780
747,64490.221000,-254.042,35.415,-210.533,-216.737,-316.999,-271.968,418.500,-9.240,1299.780
748,64490.242000,-259.916,28.332,-210.533,-212.815,-314.131,-274.010,317.500,132.760,881.780
749,64490.256000,-260.895,29.344,-211.521,-225.607,-306.276,-273.793,195.500,93.760,409.780
750,64490.269000,-261.874,41.486,-210.533,-219.772,-302.459,-273.900,101.500,-12.240,-77.220
751,64490.303000,-258.937,45.534,-206.579,-212.817,-308.323,-276.970,13.500,-4.240,-501.220
752,64490.323000,-242.294,49.581,-200.649,-206.875,-316.116,-277.066,-93.500,69.760,-870.220
753,64490.343000,-217.820,48.569,-196.695,-206.840,-318.050,-278.049,-203.500,131.760,-1189.220
754,64490.362000,-188.451,50.593,-196.695,-194.084,-320.099,-279.257,-262.500,141.760,-1335.220
755,64490.382000,-167.893,52.617,-195.707,-178.365,-332.821,-276.566,-376.500,91.760,-1614.220
756,64490.404000,-152.229,56.664,-195.707,-162.630,-337.798,-278.808,-480.500,5.760,-1849.220
757,64490.419000,-137.545,57.676,-197.683,-148.963,-345.668,-273.134,-577.500,-57.240,-2035.220
758,64490.451000,-124.818,61.723,-201.637,-142.068,-356.374,-270.290,-658.500,-132.240,-2208.220
759,64490.468000,-113.071,64.759,-203.614,-117.561,-363.370,-269.731,-731.500,-233.240,-2338.220
760,64490.496000,-103.281,64.759,-205.591,-111.654,-369.228,-268.844,-806.500,-338.240,-2436.220
761,64490.514000,-97.407,63.747,-217.452,-86.236,-382.044,-261.403,-903.500,-453.240,-2512.220
762,64490.547000,-93.491,65.771,-225.359,-58.887,-393.911,-253.013,-975.500,-505.240,-2590.220
763,64490.547000,-99.365,66.783,-235.243,-47.161,-397.890,-250.262,-1004.500,-573.240,-2610.220
764,64490.564000,-107.197,69.818,-240.185,-19.832,-402.014,-244.834,-1041.500,-465.240,-2654.220
765,64490.593000,-101.323,72.854,-240.185,-12.920,-406.913,-245.935,-1052.500,-179.240,-2679.220
766,64490.611000,-84.681,73.866,-241.174,15.490,-405.233,-249.393,-1033.500,119.760,-2712.220
767,64490.628000,-67.059,69.818,-238.208,38.038,-404.467,-252.747,-978.500,307.760,-2762.220
768,64490.653000,-56.291,72.854,-238.208,58.646,-397.876,-260.010,-923.500,420.760,-2772.220
769,64490.676000,-41.606,68.806,-236.232,88.057,-381.685,-272.363,-893.500,531.760,-2765.220
770,64490.706000,-25.943,60.711,-235.243,100.802,-378.895,-275.545,-875.500,573.760,-2774.220
771,64490.710000,-8.321,54.640,-231.290,132.188,-362.722,-288.917,-888.500,570.760,-2801.220
772,64490.733000,8.321,54.640,-229.313,138.091,-353.094,-295.924,-918.500,505.760,-2809.220
773,64490.756000,16.153,51.605,-228.324,160.608,-333.940,-307.174,-934.500,423.760,-2777.220
774,64490.791000,23.006,50.593,-231.290,178.228,-325.389,-312.418,-964.500,401.760,-2717.220
775,64490.804000,32.795,49.581,-240.185,194.900,-305.212,-325.534,-948.500,437.760,-2636.220
776,64490.824000,46.501,51.605,-248.093,204.661,-280.136,-337.550,-911.500,533.760,-2524.220
777,64490.837000,65.101,53.628,-256.988,212.452,-270.531,-340.652,-842.500,639.760,-2368.220
778,64490.857000,83.702,56.664,-267.861,222.301,-251.258,-354.631,-743.500,715.760,-2165.220
779,64490.873000,94.470,49.581,-276.757,227.216,-236.783,-363.595,-618.500,836.760,-1859.220
780,64490.897000,127.755,45.534,-286.641,233.012,-211.675,-372.587,-544.500,882.760,-1678.220
781,64490.914000,153.208,33.391,-286.641,238.890,-206.888,-375.650,-376.500,779.760,-1266.220
782,64490.942000,166.914,26.308,-287.629,239.821,-192.381,-380.606,-238.500,476.760,-853.220
783,64490.964000,156.145,21.249,-289.606,240.791,-189.487,-381.611,-119.500,203.760,-475.220
784,64490.983000,150.272,12.142,-290.595,235.923,-186.537,-384.482,-36.500,120.760,-166.220
785,64491.7000,145.377,10.119,-291.583,237.889,-187.522,-384.515,32.500,51.760,68.780
786,64491.24000,133.629,8.095,-286.641,241.776,-184.656,-384.588,94.500,93.760,296.780
787,64491.42000,130.692,6.071,-280.710,242.772,-184.664,-385.590,156.500,150.760,550.780
788,64491.58000,135.587,11.130,-278.734,232.989,-190.382,-382.456,217.500,75.760,819.780
789,64491.82000,128.734,9.107,-275.768,233.034,-199.091,-380.478,248.500,-0.240,954.780
790,64491.128000,115.029,15.178,-270.826,232.126,-204.885,-381.440,315.500,-80.240,1215.780
791,64491.128000,104.260,18.213,-267.861,228.224,-217.432,-375.449,375.500,-100.240,1448.780
792,64491.151000,100.344,22.261,-262.919,215.593,-228.926,-374.228,426.500,-114.240,1644.780
793,64491.171000,95.449,24.285,-254.023,214.566,-238.599,-366.323,452.500,-175.240,1802.780
794,64491.179000,88.597,26.308,-252.046,204.871,-253.991,-363.180,461.500,-232.240,1959.780
795,64491.203000,89.576,30.356,-247.104,194.144,-261.634,-361.012,473.500,-372.240,2119.780
796,64491.226000,80.765,37.439,-241.174,182.373,-280.888,-348.968,495.500,-543.240,2291.780
797,64491.241000,66.080,43.510,-237.220,173.621,-292.419,-345.846,514.500,-629.240,2453.780
798,64491.268000,52.375,50.593,-235.243,150.143,-313.499,-334.577,526.500,-656.240,2526.780
799,64491.291000,40.627,57.676,-229.313,126.620,-331.678,-322.326,549.500,-685.240,2648.780
800,64491.308000,27.901,60.711,-223.382,113.876,-340.275,-316.184,564.500,-680.240,2746.780
801,64491.333000,14.195,62.735,-219.429,87.426,-355.523,-305.854,572.500,-660.240,2831.780
802,64491.353000,7.342,63.747,-214.486,73.739,-367.980,-299.690,553.500,-666.240,2892.780
803,64491.371000,-4.405,70.830,-211.521,36.498,-376.357,-291.146,561.500,-715.240,2925.780
804,64491.391000,-22.027,74.877,-206.579,25.632,-380.136,-283.074,565.500,-679.240,2939.780
805,64491.413000,-32.795,73.866,-202.625,-5.799,-387.602,-271.680,528.500,-620.240,2924.780
806,64491.436000,-42.585,75.889,-204.602,-25.411,-390.330,-267.392,508.500,-580.240,2872.780
807,64491.459000,-62.164,77.913,-205.591,-53.918,-389.111,-259.998,501.500,-531.240,2845.780
808,64491.473000,-64.122,78.925,-202.625,-92.261,-385.871,-250.463,458.500,-418.240,2780.780
809,64491.493000,-66.080,86.008,-202.625,-104.999,-383.820,-250.240,381.500,-348.240,2707.780
810,64491.513000,-74.891,97.138,-209.544,-134.512,-375.819,-244.805,326.500,-339.240,2633.780
811,64491.541000,-93.491,110.292,-218.440,-142.462,-371.883,-239.747,311.500,-397.240,2575.780
812,64491.569000,-114.050,122.435,-223.382,-176.867,-363.837,-234.225,376.500,-453.240,2508.780
813,64491.582000,-133.629,129.518,-223.382,-191.606,-356.932,-233.972,440.500,-396.240,2446.780
814,64491.594000,-161.040,136.601,-227.336,-211.291,-346.114,-232.652,510.500,-304.240,2370.780
815,64491.617000,-194.325,134.577,-224.371,-236.883,-329.436,-232.219,586.500,-152.240,2205.780
816,64491.637000,-210.967,120.411,-218.440,-237.899,-321.686,-234.179,606.500,-33.240,2127.780
817,64491.659000,-226.631,111.304,-221.405,-254.554,-307.986,-239.807,569.500,86.760,1910.780
818,64491.684000,-251.105,102.198,-215.475,-258.582,-299.245,-237.777,501.500,-20.240,1579.780
819,64491.699000,-277.537,84.996,-217.452,-269.321,-294.307,-241.531,400.500,-160.240,1186.780
820,64491.722000,-295.159,83.984,-222.394,-274.319,-288.461,-238.496,257.500,-196.240,718.780
821,64491.742000,-303.969,80.949,-223.382,-276.258,-288.442,-239.446,148.500,-172.240,229.780
822,64491.764000,-299.075,79.937,-222.394,-273.314,-289.436,-239.497,43.500,-46.240,-252.220
823,64491.788000,-275.579,82.972,-222.394,-267.390,-295.294,-239.595,-44.500,81.760,-711.220
824,64491.807000,-244.252,84.996,-221.405,-256.521,-303.129,-241.747,-127.500,146.760,-1117.220
825,64491.833000,-215.862,88.032,-219.429,-253.576,-304.123,-241.798,-166.500,162.760,-1297.220
826,64491.866000,-192.367,92.079,-218.440,-238.766,-316.832,-243.030,-233.500,154.760,-1617.220
827,64491.874000,-179.641,92.079,-214.486,-220.112,-323.773,-243.351,-276.500,154.760,-1903.220
828,64491.891000,-165.935,90.055,-215.475,-202.314,-338.441,-246.603,-314.500,215.760,-2146.220
829,64491.913000,-149.293,92.079,-216.463,-194.406,-345.283,-247.719,-346.500,311.760,-2358.220
830,64491.922000,-127.755,94.103,-219.429,-160.927,-359.124,-253.217,-372.500,366.760,-2547.220
831,64491.949000,-115.029,90.055,-218.440,-138.298,-367.065,-256.562,-389.500,359.760,-2707.220
832,64491.967000,-105.239,86.008,-217.452,-126.469,-371.039,-259.720,-424.500,382.760,-2827.220
833,64491.989000,-92.512,87.020,-216.463,-91.129,-376.192,-264.277,-456.500,433.760,-2903.220
834,64492.9000,-76.849,91.067,-214.486,-67.568,-377.369,-268.630,-467.500,456.760,-2924.220
835,64492.27000,-59.228,77.913,-214.486,-39.096,-376.654,-275.041,-474.500,464.760,-2943.220
836,64492.49000,-49.438,81.960,-214.486,-29.242,-378.675,-278.167,-507.500,388.760,-2961.220
837,64492.67000,-45.522,74.877,-217.452,7.022,-376.097,-283.734,-527.500,289.760,-2943.220
838,64492.81000,-36.711,68.806,-219.429,34.462,-371.504,-289.147,-545.500,221.760,-2926.220
839,64492.113000,-32.795,62.735,-222.394,57.971,-368.812,-292.519,-561.500,214.760,-2914.220
840,64492.138000,-24.964,60.711,-225.359,87.359,-363.270,-297.968,-577.500,261.760,-2913.220
841,64492.153000,-17.132,58.688,-224.371,95.264,-358.497,-305.004,-578.500,261.760,-2892.220
842,64492.171000,-5.384,51.605,-222.394,134.322,-346.275,-307.679,-607.500,251.760,-2854.220
843,64492.194000,9.300,49.581,-225.359,137.212,-335.657,-310.696,-639.500,171.760,-2861.220
844,64492.213000,12.237,52.617,-231.290,164.624,-324.291,-318.085,-699.500,9.760,-2910.220
845,64492.251000,8.321,53.628,-230.301,190.995,-306.143,-325.464,-723.500,-11.240,-2931.220
846,64492.264000,15.174,51.605,-229.313,202.700,-298.509,-327.649,-755.500,163.760,-2890.220
847,64492.284000,26.922,58.688,-236.232,221.190,-272.550,-335.882,-784.500,374.760,-2860.220
848,64492.297000,43.564,65.771,-248.093,225.109,-258.067,-343.844,-736.500,585.760,-2792.220
849,64492.319000,74.891,64.759,-260.942,241.719,-229.183,-357.954,-636.500,784.760,-2619.220
850,64492.337000,116.987,58.688,-264.896,254.437,-219.619,-363.113,-475.500,789.760,-2282.220
851,64492.362000,146.356,42.498,-263.907,261.167,-193.555,-370.153,-400.500,726.760,-1793.220
852,64492.383000,167.893,34.403,-265.884,259.136,-176.119,-375.060,-256.500,512.760,-1528.220
853,64492.406000,171.809,26.308,-271.815,275.770,-172.399,-377.328,-146.500,333.760,-1018.220
854,64492.429000,187.472,23.273,-273.792,274.737,-164.650,-378.303,-76.500,202.760,-634.220
855,64492.447000,191.388,15.178,-272.803,275.732,-158.850,-382.265,-35.500,115.760,-356.220
856,64492.469000,183.556,7.083,-271.815,270.848,-159.773,-382.178,-0.500,121.760,-73.220
857,64492.492000,180.620,5.059,-267.861,275.697,-158.852,-380.296,45.500,173.760,277.780
858,64492.514000,173.767,1.012,-263.907,270.796,-159.776,-379.223,97.500,207.760,660.780
859,64492.533000,162.019,1.012,-261.931,264.970,-164.560,-379.115,147.500,219.760,1020.780
860,64492.552000,162.998,6.071,-259.954,258.209,-172.236,-379.971,173.500,180.760,1318.780
861,64492.569000,154.187,10.119,-252.046,257.277,-186.743,-375.015,218.500,-36.240,1447.780
862,64492.583000,129.713,13.154,-244.139,256.369,-192.537,-375.976,238.500,-169.240,1670.780
863,64492.605000,112.092,16.190,-242.162,233.011,-207.803,-374.561,249.500,-171.240,1867.780
864,64492.631000,101.323,24.285,-243.151,233.031,-221.353,-368.639,249.500,-220.240,2050.780
865,64492.648000,94.470,28.332,-244.139,218.454,-239.604,-364.421,251.500,-344.240,2202.780
866,64492.668000,82.723,36.427,-246.116,206.792,-250.139,-363.218,274.500,-537.240,2333.780
867,64492.693000,65.101,42.498,-253.035,190.155,-272.250,-351.085,316.500,-672.240,2432.780
868,64492.717000,41.606,48.569,-260.942,169.595,-295.294,-337.896,394.500,-676.240,2516.780
869,64492.733000,21.048,52.617,-266.873,166.706,-305.911,-334.879,434.500,-624.240,2557.780
870,64492.757000,-0.489,59.700,-260.942,135.477,-324.012,-329.383,514.500,-490.240,2632.780
871,64492.779000,-4.405,57.676,-256.988,119.718,-327.747,-321.224,572.500,-355.240,2697.780
872,64492.794000,-1.468,60.711,-249.081,103.183,-345.981,-316.973,589.500,-260.240,2744.780
873,64492.822000,-5.384,61.723,-240.185,85.536,-347.758,-313.705,605.500,-285.240,2768.780
874,64492.850000,-8.321,62.735,-238.208,59.173,-361.065,-309.285,587.500,-373.240,2783.780
875,64492.871000,-23.985,62.735,-238.208,44.438,-373.518,-299.165,603.500,-510.240,2775.780
876,64492.879000,-36.711,61.723,-231.290,25.743,-373.355,-292.928,632.500,-556.240,2764.780
877,64492.893000,-40.627,59.700,-225.359,-7.594,-378.864,-285.441,613.500,-551.240,2745.780
878,64492.916000,-50.417,66.783,-227.336,-27.267,-378.691,-279.186,593.500,-564.240,2726.780
879,64492.933000,-76.849,72.854,-225.359,-54.812,-381.354,-268.851,625.500,-628.240,2658.780
880,64492.961000,-89.576,64.759,-214.486,-64.613,-383.202,-266.707,697.500,-473.240,2605.780
881,64492.979000,-85.660,67.794,-209.544,-90.159,-379.105,-262.322,660.500,-258.240,2586.780
882,64492.997000,-91.533,79.937,-206.579,-109.738,-376.024,-262.963,622.500,-190.240,2573.780
883,64493.18000,-98.386,74.877,-195.707,-132.375,-367.116,-259.620,593.500,-150.240,2572.780
884,64493.37000,-97.407,61.723,-192.741,-159.862,-357.192,-259.145,506.500,-191.240,2524.780
885,64493.63000,-106.218,61.723,-196.695,-166.791,-352.295,-257.059,391.500,-368.240,2395.780
886,64493.81000,-124.818,65.771,-203.614,-193.350,-346.255,-251.674,341.500,-529.240,2237.780
887,64493.94000,-149.293,67.794,-202.625,-205.188,-343.250,-247.530,356.500,-548.240,2142.780
888,64493.117000,-171.809,57.676,-206.579,-221.037,-329.568,-243.328,367.500,-401.240,1975.780
889,64493.137000,-184.535,54.640,-211.521,-231.845,-324.633,-243.143,335.500,-187.240,1776.780
890,64493.161000,-190.409,57.676,-214.486,-246.691,-309.991,-240.928,321.500,-23.240,1542.780
891,64493.183000,-199.220,52.617,-217.452,-248.607,-299.324,-248.783,293.500,90.760,1308.780
892,64493.201000,-206.073,52.617,-219.429,-252.513,-296.384,-250.686,239.500,108.760,1023.780
893,64493.214000,-219.778,55.652,-219.429,-257.441,-294.406,-249.617,178.500,90.760,707.780
894,64493.233000,-237.400,55.652,-218.440,-268.231,-291.405,-249.429,110.500,95.760,396.780
895,64493.266000,-246.210,61.723,-219.429,-268.249,-287.535,-250.418,38.500,102.760,86.780
896,64493.286000,-246.210,65.771,-219.429,-267.254,-285.607,-252.407,0.500,104.760,-55.220
897,64493.303000,-240.337,63.747,-212.510,-263.313,-288.545,-252.473,-70.500,36.760,-360.220
898,64493.326000,-233.484,57.676,-212.510,-262.237,-299.195,-252.479,-171.500,-81.240,-700.220
899,64493.343000,-222.715,52.617,-211.521,-250.529,-303.175,-248.744,-283.500,-151.240,-1076.220
900,64493.368000,-214.883,57.676,-211.521,-235.822,-315.890,-244.067,-394.500,-132.240,-1415.220
901,64493.387000,-204.115,63.747,-206.579,-237.743,-319.742,-244.029,-470.500,-52.240,-1709.220
902,64493.422000,-187.472,64.759,-203.614,-220.984,-333.437,-244.309,-538.500,36.760,-1951.220
903,64493.436000,-163.977,66.783,-203.614,-201.404,-342.325,-240.707,-596.500,88.760,-2182.220
904,64493.451000,-147.335,75.889,-204.602,-185.640,-357.948,-238.999,-614.500,77.760,-2383.220
905,64493.471000,-134.608,81.960,-208.556,-177.777,-361.889,-239.134,-660.500,75.760,-2460.220
906,64493.493000,-116.008,78.925,-214.486,-152.176,-379.533,-239.566,-701.500,81.760,-2585.220
907,64493.516000,-106.218,74.877,-216.463,-121.780,-386.581,-240.095,-730.500,61.760,-2671.220
908,64493.533000,-103.281,75.889,-217.452,-100.217,-394.518,-238.499,-771.500,51.760,-2722.220
909,64493.556000,-101.323,76.901,-217.452,-78.629,-397.614,-240.846,-790.500,97.760,-2751.220
910,64493.583000,-94.470,76.901,-221.405,-57.092,-400.713,-240.239,-782.500,158.760,-2749.220
911,64493.603000,-86.639,76.901,-220.417,-28.594,-404.836,-245.661,-768.500,182.760,-2752.220
912,64493.622000,-78.807,70.830,-217.452,-18.783,-403.955,-247.804,-758.500,202.760,-2789.220
913,64493.641000,-73.912,68.806,-215.475,8.692,-403.232,-253.213,-770.500,223.760,-2804.220
914,64493.659000,-68.038,72.854,-215.475,41.058,-396.746,-261.669,-793.500,313.760,-2796.220
915,64493.677000,-65.101,74.877,-212.510,64.515,-392.122,-263.074,-761.500,497.760,-2807.220
916,64493.702000,-48.459,65.771,-214.486,84.167,-376.808,-276.238,-814.500,649.760,-2782.220
917,64493.718000,-24.964,66.783,-216.463,100.878,-372.116,-283.430,-833.500,632.760,-2812.220
918,64493.746000,-9.300,65.771,-219.429,127.355,-357.834,-294.744,-862.500,540.760,-2819.220
919,64493.759000,-1.468,62.735,-223.382,140.125,-350.204,-301.870,-885.500,483.760,-2830.220
920,64493.779000,4.405,61.723,-223.382,159.689,-329.088,-313.070,-892.500,498.760,-2790.220
921,64493.797000,14.195,61.723,-228.324,179.322,-306.033,-329.195,-868.500,528.760,-2690.220
922,64493.824000,33.774,60.711,-235.243,198.821,-296.536,-330.536,-850.500,526.760,-2634.220
923,64493.847000,48.459,61.723,-244.139,207.605,-277.259,-339.574,-790.500,450.760,-2511.220
924,64493.863000,47.480,55.652,-252.046,208.555,-266.623,-343.541,-705.500,462.760,-2346.220
925,64493.877000,42.585,51.605,-254.023,222.256,-242.549,-356.610,-614.500,669.760,-2098.220
926,64493.905000,59.228,50.593,-251.058,232.047,-231.991,-362.702,-513.500,813.760,-1835.220
927,64493.933000,79.786,46.545,-256.000,235.964,-209.765,-374.611,-457.500,783.760,-1609.220
928,64493.962000,98.386,43.510,-260.942,235.918,-201.056,-376.589,-390.500,621.760,-1423.220
929,64493.966000,95.449,33.391,-264.896,242.719,-180.795,-384.609,-335.500,571.760,-1246.220
930,64493.997000,100.344,30.356,-263.907,247.557,-167.292,-388.648,-285.500,565.760,-1067.220
931,64494.9000,109.155,24.285,-267.861,245.606,-158.563,-393.546,-271.500,535.760,-978.220
932,64494.34000,138.524,24.285,-270.826,244.581,-147.909,-396.494,-245.500,328.760,-811.220
933,64494.62000,159.082,19.225,-274.780,245.499,-146.954,-393.558,-215.500,-61.240,-606.220
934,64494.78000,133.629,23.273,-282.687,248.505,-150.848,-395.575,-159.500,-302.240,-339.220
935,64494.87000,136.566,26.308,-287.629,246.582,-150.828,-397.510,-89.500,-132.240,-26.220
936,64494.109000,154.187,25.296,-283.676,239.742,-153.669,-396.401,-2.500,75.760,288.780
937,64494.143000,157.124,23.273,-278.734,240.739,-155.613,-396.417,76.500,146.760,609.780
938,64494.146000,158.103,26.308,-279.722,237.821,-157.521,-396.363,139.500,170.760,935.780
939,64494.166000,161.040,32.379,-265.884,232.982,-163.281,-396.270,200.500,127.760,1260.780
940,64494.187000,157.124,37.439,-256.988,233.988,-170.064,-394.311,229.500,71.760,1423.780
941,64494.208000,142.440,42.498,-254.023,233.178,-184.564,-396.249,272.500,1.760,1724.780
942,64494.221000,134.608,45.534,-251.058,218.484,-190.239,-392.045,301.500,-40.240,2000.780
943,64494.253000,126.776,48.569,-244.139,203.889,-204.619,-388.816,328.500,-55.240,2240.780
944,64494.276000,119.924,53.628,-240.185,191.250,-220.953,-384.636,342.500,-134.240,2447.780
945,64494.323000,113.071,58.688,-240.185,186.369,-229.619,-380.601,337.500,-309.240,2612.780
946,64494.352000,92.512,63.747,-240.185,170.867,-257.538,-374.388,352.500,-573.240,2737.780
947,64494.352000,63.143,67.794,-241.174,151.317,-267.038,-370.093,383.500,-707.240,2846.780
948,64494.356000,44.543,71.842,-244.139,133.719,-293.010,-356.953,420.500,-701.240,2937.780
949,64494.382000,33.774,75.889,-245.127,119.096,-300.617,-355.701,437.500,-653.240,2973.780
950,64494.416000,23.985,81.960,-244.139,96.544,-321.709,-341.495,473.500,-670.240,3011.780
951,64494.420000,7.342,83.984,-241.174,79.886,-328.334,-336.270,518.500,-733.240,3008.780
952,64494.440000,-17.132,84.996,-238.208,55.365,-338.762,-326.964,576.500,-694.240,2966.780
953,64494.466000,-34.753,81.960,-235.243,28.853,-347.238,-316.641,615.500,-452.240,2906.780
954,64494.481000,-38.669,78.925,-230.301,9.283,-347.060,-316.295,610.500,-125.240,2838.780
955,64494.503000,-25.943,76.901,-225.359,-15.169,-351.677,-313.888,534.500,71.760,2818.780
956,64494.523000,-11.258,86.008,-219.429,-28.877,-348.649,-314.633,449.500,-58.240,2840.780
957,64494.549000,-10.279,99.162,-217.452,-56.388,-347.438,-308.241,411.500,-192.240,2909.780
958,64494.563000,-30.837,116.364,-221.405,-76.979,-350.158,-303.936,386.500,-509.240,2945.780
959,64494.581000,-57.270,125.470,-219.429,-103.563,-348.959,-294.607,458.500,-692.240,2999.780
960,64494.608000,-71.954,123.447,-215.475,-134.070,-342.885,-287.183,513.500,-666.240,3021.780
961,64494.626000,-83.702,122.435,-224.371,-149.779,-340.810,-284.938,526.500,-641.240,3012.780
962,64494.653000,-93.491,128.506,-225.359,-172.485,-331.906,-277.656,546.500,-684.240,2960.780
963,64494.668000,-116.987,129.518,-225.359,-184.341,-326.966,-273.514,626.500,-732.240,2874.780
964,64494.693000,-147.335,121.423,-219.429,-207.974,-316.114,-270.155,692.500,-679.240,2728.780
965,64494.716000,-173.767,111.304,-215.475,-223.702,-306.296,-270.873,716.500,-544.240,2514.780
966,64494.733000,-200.199,95.115,-206.579,-242.451,-298.393,-265.628,726.500,-454.240,2370.780
967,64494.756000,-226.631,69.818,-197.683,-240.584,-282.929,-268.633,693.500,-224.240,2022.780
968,64494.779000,-247.189,46.545,-190.764,-250.361,-279.936,-270.432,561.500,-67.240,1581.780
969,64494.793000,-264.811,26.308,-188.788,-258.225,-274.060,-271.284,377.500,-11.240,1039.780
970,64494.822000,-271.663,29.344,-193.730,-262.193,-268.220,-271.221,139.500,31.760,515.780
971,64494.840000,-268.727,47.557,-208.556,-261.153,-269.193,-274.192,-29.500,66.760,25.780
972,64494.848000,-262.853,58.688,-209.544,-256.278,-269.239,-273.293,-160.500,141.760,-420.220
973,64494.882000,-246.210,67.794,-210.533,-261.126,-274.031,-273.202,-265.500,186.760,-812.220
974,64494.902000,-230.547,74.877,-212.510,-250.310,-276.062,-275.360,-350.500,189.760,-1166.220
975,64494.922000,-210.967,77.913,-215.475,-240.532,-284.862,-270.600,-388.500,172.760,-1331.220
976,64494.942000,-195.304,78.925,-220.417,-228.701,-296.579,-269.812,-448.500,117.760,-1647.220
977,64494.958000,-184.535,81.960,-223.382,-226.638,-302.398,-272.795,-500.500,80.760,-1940.220
978,64494.979000,-173.767,80.949,-221.405,-200.093,-320.054,-271.275,-549.500,88.760,-2208.220
979,64495.4000,-158.103,86.008,-223.382,-190.212,-326.912,-273.410,-606.500,109.760,-2440.220
980,64495.23000,-146.356,94.103,-226.347,-171.556,-341.596,-269.785,-658.500,118.760,-2647.220
981,64495.41000,-130.692,101.186,-227.336,-159.796,-345.574,-269.004,-684.500,134.760,-2806.220
982,64495.68000,-111.113,107.257,-230.301,-131.278,-359.374,-270.477,-706.500,113.760,-2932.220
983,64495.83000,-102.302,107.257,-233.266,-102.787,-368.337,-272.940,-711.500,124.760,-3035.220
984,64495.103000,-95.449,109.281,-233.266,-92.031,-371.339,-271.158,-710.500,171.760,-3064.220
985,64495.123000,-81.744,111.304,-229.313,-55.713,-376.502,-275.732,-696.500,288.760,-3105.220
986,64495.142000,-68.038,112.316,-229.313,-38.984,-377.615,-280.949,-669.500,384.760,-3100.220
987,64495.159000,-51.396,102.198,-227.336,0.225,-376.032,-286.567,-644.500,432.760,-3105.220
988,64495.182000,-37.690,102.198,-226.347,7.126,-374.155,-290.629,-630.500,401.760,-3094.220
989,64495.208000,-25.943,96.126,-227.336,40.453,-367.679,-298.117,-629.500,361.760,-3074.220
990,64495.223000,-15.174,91.067,-225.359,69.865,-355.360,-308.497,-621.500,314.760,-3025.220
991,64495.261000,-7.342,86.008,-223.382,83.537,-350.646,-309.728,-627.500,237.760,-2952.220
992,64495.278000,2.447,80.949,-225.359,114.821,-342.222,-313.245,-636.500,125.760,-2898.220
993,64495.307000,6.363,77.913,-227.336,130.474,-334.621,-317.469,-650.500,82.760,-2883.220
994,64495.317000,7.342,74.877,-237.220,153.973,-325.154,-323.802,-689.500,77.760,-2883.220
995,64495.331000,5.384,76.901,-243.151,165.625,-311.716,-325.993,-677.500,221.760,-2903.220
996,64495.353000,6.363,76.901,-242.162,191.105,-295.490,-337.292,-658.500,492.760,-2912.220
997,64495.376000,23.006,72.854,-245.127,202.817,-279.144,-344.409,-654.500,721.760,-2945.220
998,64495.378000,41.606,75.889,-250.069,220.361,-249.303,-356.568,-628.500,815.760,-2978.220
999,64495.409000,64.122,71.842,-243.151,240.806,-215.619,-368.783,-585.500,1008.760,-2950.220
1000,64495.425000,96.428,69.818,-243.151,242.689,-196.283,-374.746,-520.500,1205.760,-2781.220
