Sample, Time, ACCX, ACCY, ACCZ, MAGX, MAGY, MAGZ, GYRX, GYRY, GYRZ
0,64749.208000,-46.501,-46.545,-237.220,96.132,-369.159,-293.194,1.500,-9.240,-9.220
1,64749.235000,-45.522,-47.557,-237.220,100.072,-370.161,-294.247,0.500,-6.240,-5.220
2,64749.250000,-45.522,-46.545,-236.232,100.134,-373.062,-296.214,0.500,-7.240,-5.220
3,64749.254000,-45.522,-47.557,-237.220,102.038,-371.147,-294.280,0.500,-9.240,-3.220
4,64749.280000,-47.480,-44.522,-238.208,101.034,-370.171,-293.279,-0.500,-13.240,-4.220
5,64749.303000,-46.501,-46.545,-235.243,95.145,-370.119,-292.191,1.500,-5.240,-4.220
6,64749.323000,-46.501,-46.545,-237.220,101.068,-370.169,-295.249,0.500,1.760,-3.220
7,64749.343000,-46.501,-46.545,-237.220,101.051,-370.170,-294.264,-0.500,-4.240,-4.220
8,64749.361000,-45.522,-46.545,-237.220,95.119,-369.152,-291.207,-1.500,-11.240,-4.220
9,64749.384000,-46.501,-46.545,-237.220,98.125,-373.047,-293.225,-2.500,-20.240,-6.220
10,64749.404000,-47.480,-45.534,-236.232,100.134,-373.062,-296.214,-0.500,-11.240,-6.220
11,64749.424000,-49.438,-48.569,-238.208,96.184,-369.156,-296.148,-2.500,-3.240,-10.220
12,64749.446000,-46.501,-46.545,-236.232,96.114,-367.225,-293.196,-6.500,10.760,-16.220
13,64749.463000,-45.522,-46.545,-236.232,100.125,-374.030,-295.228,-7.500,-1.240,-22.220
14,64749.480000,-45.522,-44.522,-234.255,103.008,-372.124,-293.312,-9.500,-15.240,-19.220
15,64749.500000,-47.480,-46.545,-235.243,96.124,-370.128,-292.208,-6.500,-2.240,-9.220
16,64749.523000,-44.543,-44.522,-234.255,94.123,-367.209,-291.192,-3.500,-7.240,-3.220
17,64749.543000,-45.522,-45.534,-235.243,97.120,-370.136,-293.210,-3.500,-12.240,-2.220
18,64749.561000,-44.543,-46.545,-236.232,98.063,-366.275,-293.231,-8.500,-10.240,-0.220
19,64749.589000,-45.522,-46.545,-235.243,97.111,-369.168,-293.211,-11.500,-12.240,0.780
20,64749.626000,-45.522,-46.545,-234.255,97.129,-371.103,-293.209,-13.500,-12.240,0.780
21,64749.643000,-45.522,-46.545,-236.232,100.046,-369.195,-293.263,-13.500,-7.240,1.780
22,64749.656000,-46.501,-45.534,-235.243,100.999,-368.237,-292.297,-11.500,-2.240,3.780
23,64749.671000,-45.522,-45.534,-236.232,98.125,-373.047,-293.225,-10.500,-1.240,4.780
24,64749.691000,-47.480,-44.522,-238.208,101.068,-368.234,-296.236,-12.500,2.760,5.780
25,64749.709000,-45.522,-45.534,-236.232,100.046,-367.259,-294.250,-12.500,3.760,7.780
26,64749.731000,-46.501,-44.522,-237.220,101.015,-366.301,-294.268,-16.500,-5.240,7.780
27,64749.753000,-46.501,-44.522,-236.232,98.089,-369.177,-293.229,-14.500,-11.240,9.780
28,64749.780000,-46.501,-44.522,-236.232,95.198,-372.052,-294.158,-14.500,-6.240,8.780
29,64749.795000,-47.480,-44.522,-236.232,96.124,-370.128,-292.208,-13.500,-1.240,8.780
30,64749.818000,-47.480,-45.534,-236.232,94.166,-366.238,-294.147,-16.500,3.760,7.780
31,64749.838000,-48.459,-45.534,-235.243,95.128,-368.184,-292.193,-19.500,1.760,5.780
32,64749.860000,-46.501,-46.545,-236.232,97.154,-370.134,-295.180,-22.500,-7.240,2.780
33,64749.873000,-48.459,-44.522,-237.220,100.064,-371.130,-293.261,-22.500,-8.240,1.780
34,64749.895000,-46.501,-45.534,-237.220,97.137,-370.135,-294.195,-22.500,-6.240,4.780
35,64749.913000,-46.501,-44.522,-238.208,89.310,-371.999,-293.070,-21.500,-9.240,4.780
36,64749.965000,-46.501,-43.510,-238.208,97.155,-372.069,-294.193,-18.500,-6.240,2.780
37,64749.978000,-47.480,-44.522,-237.220,101.069,-372.105,-294.262,-15.500,-5.240,2.780
38,64749.978000,-47.480,-44.522,-238.208,90.296,-369.104,-295.060,-13.500,3.760,3.780
39,64750.5000,-46.501,-44.522,-236.232,94.219,-372.043,-294.141,-12.500,-2.240,2.780
40,64750.18000,-45.522,-43.510,-236.232,94.262,-371.072,-297.096,-13.500,-7.240,2.780
41,64750.34000,-46.501,-43.510,-236.232,94.131,-366.240,-292.177,-10.500,4.760,3.780
42,64750.65000,-45.522,-43.510,-235.243,91.248,-368.146,-294.093,-11.500,3.760,7.780
43,64750.89000,-45.522,-43.510,-237.220,95.179,-368.181,-295.147,-14.500,2.760,6.780
44,64750.106000,-44.543,-44.522,-236.232,96.176,-372.061,-294.176,-15.500,-5.240,8.780
45,64750.145000,-46.501,-44.522,-235.243,92.227,-368.155,-294.110,-20.500,-16.240,6.780
46,64750.148000,-47.480,-43.510,-238.208,89.282,-365.225,-295.046,-20.500,-18.240,3.780
47,64750.170000,-48.459,-42.498,-238.208,97.207,-374.002,-296.161,-19.500,-11.240,3.780
48,64750.189000,-48.459,-42.498,-236.232,94.175,-367.206,-294.146,-17.500,1.760,4.780
49,64750.206000,-45.522,-42.498,-238.208,94.244,-369.138,-297.098,-17.500,6.760,6.780
50,64750.229000,-47.480,-43.510,-238.208,85.430,-371.962,-294.970,-18.500,-9.240,1.780
51,64750.246000,-48.459,-42.498,-237.220,91.301,-370.079,-296.061,-14.500,-8.240,0.780
52,64750.281000,-47.480,-42.498,-238.208,91.265,-366.210,-296.065,-12.500,-0.240,1.780
53,64750.296000,-47.480,-42.498,-238.208,92.262,-370.089,-295.093,-12.500,6.760,0.780
54,64750.309000,-46.501,-41.486,-237.220,94.183,-366.237,-295.132,-10.500,11.760,2.780
55,64750.341000,-45.522,-41.486,-237.220,94.236,-370.106,-296.113,-11.500,5.760,0.780
56,64750.360000,-47.480,-42.498,-237.220,94.184,-368.173,-294.145,-10.500,0.760,3.780
57,64750.379000,-46.501,-41.486,-237.220,95.232,-372.050,-296.128,-9.500,6.760,4.780
58,64750.396000,-46.501,-42.498,-236.232,91.317,-368.143,-298.032,-8.500,12.760,6.780
59,64750.419000,-45.522,-41.486,-236.232,97.163,-369.165,-296.165,-10.500,12.760,7.780
60,64750.428000,-46.501,-41.486,-236.232,87.352,-368.110,-295.009,-11.500,11.760,7.780
61,64750.449000,-45.522,-42.498,-236.232,88.374,-369.084,-296.995,-12.500,12.760,9.780
62,64750.470000,-44.543,-43.510,-237.220,90.304,-368.136,-296.045,-15.500,13.760,11.780
63,64750.493000,-43.564,-41.486,-236.232,91.291,-367.176,-297.048,-20.500,10.760,12.780
64,64750.510000,-46.501,-41.486,-235.243,87.412,-369.074,-297.962,-22.500,3.760,11.780
65,64750.533000,-46.501,-41.486,-238.208,87.403,-368.107,-297.963,-21.500,8.760,12.780
66,64750.555000,-45.522,-40.474,-237.220,93.196,-367.197,-294.129,-18.500,8.760,13.780
67,64750.573000,-46.501,-40.474,-239.197,92.288,-369.120,-297.064,-14.500,2.760,12.780
68,64750.598000,-46.501,-41.486,-239.197,86.407,-366.163,-297.948,-15.500,-0.240,9.780
69,64750.620000,-47.480,-41.486,-239.197,84.485,-366.144,-299.883,-13.500,7.760,4.780
70,64750.644000,-48.459,-42.498,-239.197,86.399,-367.132,-296.962,-11.500,12.760,2.780
71,64750.665000,-44.543,-41.486,-237.220,89.325,-366.191,-297.015,-11.500,14.760,-1.220
72,64750.683000,-45.522,-40.474,-239.197,85.463,-366.152,-299.900,-14.500,-0.240,-5.220
73,64750.703000,-46.501,-41.486,-240.185,88.425,-369.081,-299.949,-11.500,-8.240,-9.220
74,64750.725000,-46.501,-40.474,-240.185,89.378,-368.124,-298.982,-11.500,0.760,-10.220
75,64750.748000,-44.543,-39.462,-238.208,85.376,-364.222,-295.963,-7.500,3.760,-8.220
76,64750.768000,-43.564,-40.474,-240.185,82.511,-369.998,-296.890,-6.500,-3.240,-7.220
77,64750.785000,-42.585,-41.486,-239.197,86.442,-368.097,-298.930,-6.500,-19.240,-5.220
78,64750.803000,-43.564,-41.486,-241.174,87.394,-365.204,-298.951,-3.500,-35.240,-2.220
79,64750.825000,-45.522,-40.474,-241.174,91.343,-367.173,-300.003,-0.500,-36.240,-3.220
80,64750.848000,-44.543,-41.486,-242.162,90.313,-369.103,-296.044,5.500,-19.240,1.780
81,64750.866000,-43.564,-40.474,-240.185,81.506,-367.087,-296.875,13.500,-12.240,5.780
82,64750.889000,-42.585,-40.474,-240.185,88.321,-365.216,-296.014,17.500,-15.240,8.780
83,64750.902000,8.321,-351.115,-228.324,80.392,-378.701,-283.060,424.500,-1869.240,330.780
84,64750.928000,-95.449,-22.261,-211.521,74.438,-392.203,-271.125,-471.500,-1759.240,-156.220
85,64750.945000,-200.199,9.107,-248.093,79.279,-394.186,-267.271,-17.500,103.760,66.780
86,64750.968000,-116.008,-33.391,-240.185,80.471,-383.536,-285.024,102.500,1161.760,14.780
87,64750.985000,-38.669,-35.415,-237.220,74.607,-376.707,-288.866,118.500,1234.760,24.780
88,64751.8000,23.006,-34.403,-243.151,76.633,-374.785,-293.827,76.500,553.760,18.780
89,64751.30000,-50.417,-31.368,-256.988,77.568,-373.828,-291.876,12.500,-148.240,-25.220
90,64751.48000,-61.185,-34.403,-259.954,75.594,-373.811,-290.856,45.500,-54.240,-10.220
91,64751.70000,-58.249,-34.403,-259.954,72.667,-372.816,-291.790,51.500,59.760,15.780
92,64751.93000,-58.249,-34.403,-255.012,70.771,-373.763,-294.709,49.500,192.760,20.780
93,64751.111000,-36.711,-34.403,-247.104,85.439,-372.929,-294.969,50.500,108.760,17.780
94,64751.143000,-33.774,-34.403,-242.162,75.671,-372.839,-295.781,48.500,-93.240,27.780
95,64751.161000,-49.438,-33.391,-240.185,80.521,-373.854,-292.912,52.500,-126.240,35.780
96,64751.180000,-56.291,-33.391,-242.162,77.585,-373.827,-292.860,54.500,-92.240,28.780
97,64751.195000,-54.333,-33.391,-238.208,80.477,-372.889,-290.944,54.500,-9.240,21.780
98,64751.218000,-52.375,-33.391,-235.243,80.547,-374.820,-293.896,57.500,21.760,9.780
99,64751.240000,-49.438,-35.415,-232.278,76.572,-371.885,-291.860,53.500,3.760,1.780
100,64751.263000,-51.396,-35.415,-231.290,82.522,-376.773,-293.929,46.500,-18.240,-3.220
101,64751.283000,-50.417,-37.439,-232.278,80.495,-372.888,-291.928,30.500,-13.240,-6.220
102,64751.298000,-48.459,-38.451,-231.290,82.468,-370.969,-293.934,15.500,-13.240,-8.220
103,64751.320000,-48.459,-37.439,-231.290,76.624,-373.817,-293.828,4.500,-30.240,-11.220
104,64751.338000,-48.459,-36.427,-233.266,78.521,-376.742,-288.936,-5.500,-38.240,-13.220
105,64751.354000,-49.438,-35.415,-233.266,79.473,-373.849,-288.956,-10.500,-37.240,-14.220
106,64751.375000,-50.417,-36.427,-235.243,80.495,-374.823,-290.942,-11.500,-29.240,-15.220
107,64751.398000,-50.417,-36.427,-237.220,86.339,-370.039,-292.035,-21.500,-9.240,-18.220
108,64751.412000,-34.753,-270.166,-251.058,76.522,-379.631,-284.959,-179.500,-1326.240,235.780
109,64751.438000,-37.690,-11.130,-205.591,79.381,-384.501,-278.113,-266.500,-992.240,-75.220
110,64751.461000,-168.872,-8.095,-244.139,71.570,-384.429,-278.959,-1.500,272.760,75.780
111,64751.483000,-40.627,-33.391,-243.151,73.620,-375.730,-288.850,42.500,712.760,26.780
112,64751.500000,-12.237,-57.676,-253.035,79.533,-372.878,-292.896,-14.500,445.760,2.780
113,64751.523000,-39.648,-16.190,-261.931,77.604,-377.698,-291.872,-56.500,-107.240,-37.220
114,64751.540000,-67.059,-32.379,-266.873,79.490,-373.848,-289.941,-20.500,-222.240,-43.220
115,64751.575000,-67.059,-31.368,-262.919,79.517,-376.750,-289.938,13.500,-101.240,-26.220
116,64751.594000,-58.249,-31.368,-256.988,74.616,-375.738,-289.852,36.500,79.760,-14.220
117,64751.616000,-40.627,-30.356,-250.069,80.486,-373.856,-290.943,60.500,164.760,-11.220
118,64751.635000,-40.627,-33.391,-245.127,77.515,-369.960,-290.895,77.500,33.760,-4.220
119,64751.645000,-51.396,-32.379,-243.151,75.603,-374.779,-290.855,81.500,-87.240,5.780
120,64751.668000,-55.312,-33.391,-237.220,77.560,-376.732,-289.903,85.500,-62.240,7.780
121,64751.690000,-53.354,-34.403,-236.232,78.565,-377.708,-290.904,81.500,15.760,0.780
122,64751.710000,-48.459,-36.427,-230.301,78.564,-375.772,-291.891,75.500,49.760,-5.220
123,64751.733000,-46.501,-36.427,-228.324,83.353,-375.822,-286.069,70.500,37.760,-9.220
124,64751.755000,-48.459,-36.427,-228.324,82.426,-375.811,-289.006,60.500,0.760,-11.220
125,64751.773000,-48.459,-36.427,-229.313,78.521,-374.807,-289.922,43.500,-15.240,-11.220
126,64751.795000,-48.459,-36.427,-229.313,78.539,-376.741,-289.920,28.500,-0.240,-8.220
127,64751.813000,-46.501,-39.462,-229.313,85.414,-375.834,-292.012,14.500,3.760,-7.220
128,64751.835000,-47.480,-38.451,-230.301,77.595,-376.731,-291.873,-0.500,-21.240,-5.220
129,64751.853000,-48.459,-37.439,-234.255,78.503,-370.936,-290.911,-9.500,-39.240,-3.220
130,64751.875000,-49.438,-37.439,-235.243,79.525,-371.910,-292.897,-15.500,-39.240,-0.220
131,64751.900000,-49.438,-37.439,-239.197,86.384,-376.812,-291.044,-14.500,-37.240,2.780
132,64751.918000,-50.417,-37.439,-240.185,85.335,-372.935,-289.061,-14.500,-31.240,2.780
133,64751.939000,-93.491,-412.838,-213.498,75.569,-378.652,-286.912,-565.500,803.760,-147.220
134,64751.960000,-31.816,-28.332,-196.695,69.631,-386.346,-278.923,-379.500,-734.240,13.780
135,64751.978000,-181.598,-11.130,-248.093,74.480,-387.361,-276.054,-121.500,-541.240,-71.220
136,64751.994000,-106.218,-34.403,-245.127,75.544,-381.558,-283.955,30.500,755.760,35.780
137,64752.30000,-23.985,-27.320,-237.220,71.732,-375.709,-292.755,27.500,860.760,-5.220
138,64752.59000,-8.321,-27.320,-251.058,71.792,-370.866,-298.668,9.500,217.760,-39.220
139,64752.68000,-33.774,-36.427,-264.896,73.708,-379.597,-291.800,36.500,-310.240,-45.220
140,64752.85000,-58.249,-24.285,-263.907,74.607,-374.771,-289.853,-38.500,-405.240,-75.220
141,64752.102000,-84.681,-29.344,-268.849,71.663,-375.713,-288.815,19.500,-231.240,-54.220
142,64752.125000,-60.207,-28.332,-259.954,80.486,-373.856,-290.943,57.500,139.760,-36.220
143,64752.143000,-39.648,-31.368,-249.081,77.550,-371.893,-291.877,84.500,186.760,-32.220
144,64752.159000,-38.669,-30.356,-244.139,79.508,-373.847,-290.925,99.500,44.760,-21.220
145,64752.190000,-46.501,-33.391,-237.220,78.555,-374.805,-291.892,101.500,-47.240,-5.220
146,64752.205000,-52.375,-35.415,-236.232,77.560,-374.797,-290.890,92.500,-22.240,-5.220
147,64752.236000,-51.396,-35.415,-232.278,79.533,-372.878,-292.896,85.500,47.760,-10.220
148,64752.245000,-46.501,-37.439,-228.324,82.495,-373.871,-293.932,70.500,54.760,-13.220
149,64752.268000,-41.606,-37.439,-227.336,81.517,-375.798,-292.928,61.500,31.760,-16.220
150,64752.290000,-44.543,-37.439,-227.336,83.465,-372.912,-293.950,42.500,-15.240,-17.220
151,64752.313000,-47.480,-38.451,-228.324,81.499,-373.863,-292.930,25.500,-11.240,-13.220
152,64752.328000,-45.522,-38.451,-230.301,78.564,-375.772,-291.891,6.500,1.760,-6.220
153,64752.348000,-44.543,-38.451,-230.301,86.383,-372.940,-293.017,-8.500,-8.240,-5.220
154,64752.366000,-45.522,-37.439,-231.290,86.383,-374.876,-292.030,-21.500,-27.240,-2.220
155,64752.388000,-46.501,-38.451,-234.255,87.301,-371.984,-290.081,-27.500,-30.240,1.780
156,64752.410000,-47.480,-36.427,-238.208,79.516,-372.879,-291.911,-28.500,-22.240,7.780
157,64752.428000,-48.459,-37.439,-242.162,78.538,-372.870,-291.894,-25.500,-18.240,13.780
158,64752.450000,175.725,478.609,162.100,77.524,-370.927,-290.894,-840.500,1073.760,-217.220
159,64752.473000,31.816,-48.569,-191.753,72.540,-383.471,-278.977,-440.500,-932.240,60.780
160,64752.505000,-192.367,-46.545,-246.116,75.460,-393.177,-273.111,-88.500,-877.240,-55.220
161,64752.524000,-148.314,-25.296,-258.965,78.349,-378.688,-278.101,88.500,757.760,63.780
162,64752.560000,-38.669,-36.427,-243.151,75.620,-374.778,-291.840,61.500,849.760,18.780
163,64752.560000,-1.468,-49.581,-247.104,76.590,-373.819,-291.858,-126.500,210.760,-18.220
164,64752.578000,-35.732,-18.213,-259.954,69.679,-372.793,-288.784,-29.500,-229.240,-71.220
165,64752.591000,-66.080,-27.320,-265.884,75.577,-375.748,-288.885,39.500,-131.240,-49.220
166,64752.614000,-67.059,-31.368,-260.942,78.512,-375.775,-288.937,62.500,83.760,-34.220
167,64752.634000,-66.080,-29.344,-256.988,83.448,-374.849,-291.978,75.500,191.760,-33.220
168,64752.656000,-45.522,-31.368,-246.116,73.680,-374.759,-292.790,96.500,220.760,-31.220
169,64752.674000,-33.774,-33.391,-240.185,77.550,-371.893,-291.877,95.500,27.760,-18.220
170,64752.708000,-43.564,-35.415,-235.243,82.487,-374.839,-292.946,86.500,-75.240,-2.220
171,64752.714000,-50.417,-37.439,-233.266,80.433,-369.987,-289.962,74.500,-41.240,-5.220
172,64752.740000,-52.375,-36.427,-230.301,83.508,-373.878,-295.918,60.500,24.760,-13.220
173,64752.760000,-47.480,-37.439,-228.324,85.414,-375.834,-292.012,49.500,23.760,-17.220
174,64752.777000,-46.501,-40.474,-227.336,79.482,-372.881,-289.942,33.500,-10.240,-21.220
175,64752.798000,-47.480,-40.474,-229.313,79.490,-371.912,-290.927,14.500,-22.240,-24.220
176,64752.820000,-45.522,-39.462,-231.290,89.275,-372.001,-291.100,5.500,-14.240,-24.220
177,64752.848000,-43.564,-38.451,-231.290,86.348,-371.006,-292.034,-8.500,-5.240,-20.220
178,64752.866000,-12.237,-386.530,-152.216,84.419,-377.762,-290.023,-946.500,1068.760,-277.220
179,64752.907000,-49.438,-115.352,-191.753,72.514,-384.440,-277.007,-651.500,-1376.240,181.780
180,64752.909000,-279.495,7.083,-272.803,70.404,-394.110,-263.176,-195.500,-1332.240,-169.220
181,64752.925000,-145.377,-50.593,-255.012,81.226,-385.493,-271.253,89.500,1170.760,-3.220
182,64752.953000,112.092,-30.356,-220.417,73.714,-372.821,-295.746,-36.500,1640.760,107.780
183,64752.973000,-13.216,-11.130,-261.931,82.521,-372.901,-295.902,-163.500,-71.240,-72.220
184,64752.993000,-73.912,-26.308,-278.734,74.686,-377.670,-292.804,-76.500,-323.240,-80.220
185,64753.13000,-65.101,-28.332,-272.803,78.548,-377.709,-289.919,-21.500,-287.240,-78.220
186,64753.33000,-80.765,-30.356,-270.826,73.637,-375.729,-289.835,32.500,-149.240,-31.220
187,64753.51000,-69.017,-24.285,-264.896,82.521,-374.837,-294.915,62.500,194.760,-21.220
188,64753.74000,-39.648,-30.356,-251.058,80.538,-371.917,-294.884,109.500,349.760,-33.220
189,64753.90000,-34.753,-33.391,-242.162,78.598,-371.898,-295.834,118.500,157.760,-29.220
190,64753.115000,-44.543,-33.391,-240.185,84.452,-371.953,-294.953,115.500,-19.240,-10.220
191,64753.136000,-52.375,-35.415,-235.243,77.620,-371.890,-295.817,108.500,-44.240,-15.220
192,64753.154000,-52.375,-36.427,-235.243,81.499,-373.863,-292.930,92.500,25.760,-27.220
193,64753.179000,-47.480,-37.439,-232.278,83.472,-368.072,-296.909,83.500,61.760,-33.220
194,64753.196000,-43.564,-39.462,-232.278,86.408,-370.035,-295.974,80.500,53.760,-34.220
195,64753.219000,-43.564,-38.451,-236.232,87.370,-371.980,-294.020,79.500,20.760,-41.220
196,64753.256000,-47.480,-39.462,-240.185,88.347,-368.118,-296.011,89.500,24.760,-46.220
197,64753.256000,-43.564,-39.462,-246.116,92.243,-364.283,-297.069,90.500,82.760,-49.220
198,64753.281000,-40.627,-40.474,-251.058,91.317,-368.143,-298.032,104.500,119.760,-52.220
199,64753.304000,-38.669,-41.486,-254.023,88.398,-364.243,-300.938,141.500,150.760,-49.220
200,64753.324000,-37.690,-42.498,-256.000,92.287,-365.248,-299.037,184.500,213.760,-29.220
201,64753.339000,-36.711,-43.510,-258.965,96.235,-363.346,-302.063,222.500,252.760,-5.220
202,64753.373000,-33.774,-44.522,-258.965,95.281,-360.432,-305.002,254.500,263.760,19.780
203,64753.377000,-29.859,-47.557,-255.012,105.083,-356.649,-308.134,266.500,245.760,34.780
204,64753.398000,-26.922,-49.581,-249.081,102.173,-357.588,-309.066,281.500,202.760,64.780
205,64753.419000,-25.943,-50.593,-248.093,99.185,-355.629,-307.046,279.500,122.760,88.780
206,64753.433000,-28.880,-50.593,-244.139,103.082,-353.730,-307.117,292.500,43.760,96.780
207,64753.455000,-31.816,-51.605,-241.174,111.941,-357.678,-308.254,301.500,28.760,111.780
208,64753.475000,-35.732,-53.628,-242.162,108.954,-357.654,-305.248,311.500,70.760,120.780
209,64753.493000,-32.795,-53.628,-239.197,108.000,-354.740,-308.188,337.500,182.760,139.780
210,64753.513000,-26.922,-54.640,-238.208,110.018,-355.723,-311.175,367.500,292.760,179.780
211,64753.543000,-12.237,-56.664,-236.232,114.867,-352.866,-310.280,385.500,323.760,238.780
212,64753.564000,-1.468,-60.711,-234.255,112.035,-352.833,-316.137,414.500,344.760,278.780
213,64753.586000,8.321,-63.747,-235.243,111.973,-347.997,-315.157,439.500,330.760,357.780
214,64753.605000,13.216,-63.747,-235.243,114.942,-344.151,-319.152,479.500,376.760,442.780
215,64753.623000,23.006,-68.806,-229.313,113.972,-341.238,-321.107,525.500,494.760,557.780
216,64753.644000,42.585,-70.830,-225.359,121.851,-341.306,-324.200,544.500,537.760,698.780
217,64753.665000,54.333,-74.877,-217.452,105.251,-337.281,-327.848,553.500,524.760,864.780
218,64753.688000,67.059,-76.901,-206.579,111.130,-336.366,-328.938,538.500,488.760,1051.780
219,64753.711000,69.996,-72.854,-192.741,101.457,-333.367,-336.646,514.500,454.760,1258.780
220,64753.729000,67.059,-67.794,-173.961,86.727,-331.301,-334.419,496.500,473.760,1471.780
221,64753.751000,69.996,-67.794,-149.251,83.879,-335.141,-337.317,417.500,583.760,1580.780
222,64753.771000,76.849,-62.735,-128.494,55.536,-331.009,-340.759,283.500,603.760,1799.780
223,64753.792000,69.017,-50.593,-119.598,46.789,-326.086,-346.516,117.500,517.760,2019.780
224,64753.828000,57.270,-42.498,-111.691,23.331,-324.903,-348.072,-74.500,447.760,2212.780
225,64753.859000,42.585,-36.427,-101.807,10.680,-322.848,-352.772,-315.500,423.760,2334.780
226,64753.860000,24.964,-27.320,-96.865,-23.569,-318.665,-354.140,-563.500,454.760,2355.780
227,64753.875000,-5.384,-5.059,-102.795,-45.177,-305.891,-355.742,-780.500,565.760,2364.780
228,64753.895000,-23.006,4.047,-103.784,-80.440,-292.022,-360.056,-1022.500,721.760,2331.780
229,64753.918000,-31.816,17.202,-109.714,-119.644,-277.151,-363.318,-1128.500,750.760,2275.780
230,64753.940000,-57.270,35.415,-130.471,-133.519,-265.422,-359.148,-1337.500,689.760,2129.780
231,64753.958000,-67.059,40.474,-153.205,-170.888,-248.640,-356.538,-1566.500,647.760,1944.780
232,64753.976000,-71.954,58.688,-161.112,-198.400,-239.686,-354.093,-1768.500,641.760,1683.780
233,64753.990000,-93.491,75.889,-176.927,-228.168,-215.245,-342.766,-1960.500,799.760,1376.780
234,64754.20000,-91.533,101.186,-221.405,-242.968,-207.375,-339.560,-2162.500,1063.760,1030.780
235,64754.42000,-72.933,115.352,-233.266,-273.784,-180.993,-325.263,-2342.500,1180.760,615.780
236,64754.63000,-77.828,145.708,-253.035,-300.640,-165.291,-308.071,-2445.500,1138.760,170.780
237,64754.79000,-90.554,173.028,-266.873,-310.590,-160.372,-301.009,-2427.500,1190.760,-244.220
238,64754.103000,-82.723,193.265,-271.815,-329.608,-151.515,-280.994,-2411.500,1276.760,-429.220
239,64754.125000,-70.975,222.609,-272.803,-337.627,-145.648,-272.983,-2337.500,1490.760,-793.220
240,64754.148000,-65.101,245.881,-263.907,-359.502,-137.728,-256.854,-2146.500,1604.760,-1166.220
241,64754.165000,-54.333,254.988,-262.919,-359.553,-143.539,-250.940,-1953.500,1728.760,-1520.220
242,64754.188000,-39.648,269.154,-279.722,-364.678,-144.475,-237.066,-1825.500,1713.760,-1840.220
243,64754.203000,-45.522,284.332,-279.722,-371.595,-150.224,-230.045,-1657.500,1595.760,-2185.220
244,64754.235000,-58.249,295.462,-276.757,-368.751,-164.775,-217.281,-1508.500,1583.760,-2496.220
245,64754.263000,-54.333,300.522,-285.652,-362.868,-181.282,-209.490,-1338.500,1715.760,-2806.220
246,64754.281000,-46.501,317.723,-287.629,-360.952,-188.077,-203.609,-1108.500,1769.760,-3138.220
247,64754.290000,-47.480,330.877,-284.664,-348.028,-206.571,-205.785,-978.500,1797.760,-3286.220
248,64754.308000,-53.354,345.043,-282.687,-333.209,-218.312,-208.002,-707.500,2003.760,-3523.220
249,64754.328000,-46.501,363.257,-279.722,-306.433,-227.243,-224.217,-426.500,2446.760,-3686.220
250,64754.345000,-19.090,374.387,-273.792,-298.363,-229.236,-237.155,-96.500,2937.760,-3751.220
251,64754.376000,18.111,380.459,-272.803,-267.493,-229.482,-268.219,292.500,3138.760,-3726.220
252,64754.390000,41.606,378.435,-268.849,-237.586,-225.846,-302.224,709.500,3061.760,-3645.220
253,64754.408000,66.080,372.364,-263.907,-211.826,-219.284,-324.346,1069.500,3008.760,-3465.220
254,64754.430000,100.344,353.138,-263.907,-176.129,-205.059,-359.450,1391.500,2962.760,-3156.220
255,64754.448000,158.103,338.972,-262.919,-150.439,-196.565,-378.619,1690.500,2624.760,-2727.220
256,64754.475000,194.325,318.735,-264.896,-113.045,-176.566,-401.946,1832.500,2278.760,-2462.220
257,64754.495000,180.620,287.368,-262.919,-89.407,-170.963,-414.184,2093.500,1618.760,-1884.220
258,64754.513000,173.767,272.190,-260.942,-50.082,-153.886,-434.589,2308.500,1494.760,-1301.220
259,64754.535000,191.388,250.941,-250.069,-9.010,-125.224,-449.132,2527.500,1622.760,-721.220
260,64754.561000,209.989,225.644,-234.255,16.420,-116.745,-453.529,2686.500,1558.760,-241.220
261,64754.581000,203.136,207.431,-215.475,64.292,-95.891,-461.292,2774.500,1260.760,129.780
262,64754.596000,180.620,184.158,-197.683,88.638,-83.537,-461.737,2791.500,1065.760,453.780
263,64754.619000,163.977,165.945,-182.857,125.619,-71.304,-457.484,2765.500,974.760,728.780
264,64754.634000,159.082,140.648,-171.985,151.898,-63.809,-454.019,2667.500,843.760,967.780
265,64754.655000,162.019,117.375,-164.077,190.899,-64.173,-446.833,2609.500,696.760,1052.780
266,64754.676000,153.208,94.103,-155.181,211.179,-65.342,-431.440,2483.500,257.760,1170.780
267,64754.699000,138.524,69.818,-148.263,246.382,-76.311,-425.158,2316.500,-108.240,1208.780
268,64754.756000,114.050,52.617,-157.158,280.355,-88.253,-404.088,2181.500,-273.240,1206.780
269,64754.759000,105.239,26.308,-150.239,291.025,-95.131,-395.408,2041.500,-168.240,1194.780
270,64754.766000,107.197,23.273,-144.309,311.473,-108.874,-382.956,1885.500,-70.240,1233.780
271,64754.784000,113.071,6.071,-139.367,326.949,-115.802,-369.439,1781.500,-76.240,1302.780
272,64754.804000,108.176,-19.225,-138.378,343.379,-129.516,-351.009,1662.500,-164.240,1357.780
273,64754.829000,103.281,-21.249,-138.378,343.304,-140.167,-341.151,1544.500,-198.240,1504.780
274,64754.847000,99.365,-42.498,-141.344,362.750,-162.614,-322.764,1483.500,-198.240,1563.780
275,64754.869000,95.449,-56.664,-141.344,364.522,-183.936,-301.113,1389.500,-215.240,1657.780
276,64754.893000,92.512,-62.735,-136.402,368.473,-193.648,-298.218,1311.500,-236.240,1723.780
277,64754.906000,84.681,-73.866,-140.355,369.337,-218.829,-278.514,1234.500,-196.240,1794.780
278,64754.929000,79.786,-88.032,-139.367,365.400,-229.442,-271.541,1146.500,-116.240,1885.780
279,64754.951000,70.975,-89.043,-135.413,361.500,-253.603,-259.631,1065.500,-31.240,1994.780
280,64754.969000,66.080,-98.150,-127.506,352.653,-264.172,-251.586,945.500,35.760,2099.780
281,64754.991000,65.101,-98.150,-126.517,335.090,-290.143,-240.416,833.500,-65.240,2193.780
282,64755.11000,50.417,-93.091,-124.541,317.589,-319.013,-231.212,766.500,-111.240,2301.780
283,64755.30000,37.690,-91.067,-123.552,314.735,-333.501,-228.192,740.500,-79.240,2364.780
284,64755.68000,17.132,-91.067,-120.587,285.446,-353.556,-220.759,713.500,85.760,2446.780
285,64755.74000,2.447,-86.008,-115.645,271.862,-364.072,-221.491,682.500,440.760,2480.780
286,64755.96000,-4.405,-86.008,-102.795,244.658,-377.363,-224.931,628.500,871.760,2522.780
287,64755.110000,13.216,-87.020,-87.969,229.124,-379.149,-230.561,491.500,1171.760,2591.780
288,64755.134000,33.774,-93.091,-71.166,196.177,-387.540,-243.751,228.500,1173.760,2667.780
289,64755.153000,39.648,-82.972,-66.224,163.143,-390.128,-254.977,-62.500,937.760,2741.780
290,64755.175000,27.901,-63.747,-64.247,141.791,-397.665,-260.497,-293.500,625.760,2750.780
291,64755.195000,-17.132,-37.439,-66.224,96.001,-398.204,-270.515,-462.500,721.760,2787.780
292,64755.218000,-41.606,-26.308,-75.120,66.723,-393.093,-276.894,-564.500,870.760,2822.780
293,64755.235000,-38.669,-9.107,-90.934,20.880,-387.827,-286.918,-798.500,983.760,2878.780
294,64755.267000,-47.480,32.379,-112.680,1.325,-379.905,-291.504,-891.500,976.760,2847.780
295,64755.285000,-92.512,25.296,-130.471,-44.538,-364.961,-305.477,-905.500,1182.760,2723.780
296,64755.304000,-69.996,30.356,-146.286,-69.950,-341.499,-318.837,-1145.500,1412.760,2622.780
297,64755.323000,-84.681,70.830,-159.135,-110.096,-332.424,-321.091,-1432.500,1241.760,2457.780
298,64755.340000,-116.008,84.996,-156.170,-152.274,-303.978,-329.238,-1532.500,1202.760,2217.780
299,64755.363000,-116.987,63.747,-177.915,-177.822,-288.266,-330.773,-1688.500,1447.760,1903.780
300,64755.385000,-94.470,78.925,-214.486,-211.401,-257.976,-328.246,-2023.500,1498.760,1520.780
301,64755.405000,-113.071,115.352,-227.336,-224.184,-249.153,-329.014,-2121.500,1278.760,1301.780
302,64755.420000,-142.440,129.518,-217.452,-253.954,-216.969,-321.634,-2133.500,1231.760,819.780
303,64755.440000,-125.797,130.530,-224.371,-271.716,-208.106,-317.392,-2138.500,1707.760,375.780
304,64755.458000,-89.576,144.696,-239.197,-295.570,-182.748,-309.124,-2302.500,2100.760,-60.220
305,64755.483000,-68.038,157.850,-233.266,-318.452,-162.238,-297.914,-2437.500,2212.760,-512.220
306,64755.505000,-54.333,198.324,-233.266,-324.542,-151.550,-290.928,-2590.500,2229.760,-914.220
307,64755.525000,-45.522,247.905,-236.232,-345.474,-139.770,-274.820,-2615.500,2211.760,-1269.220
308,64755.549000,-37.690,273.202,-235.243,-353.527,-139.712,-261.880,-2533.500,2193.760,-1615.220
309,64755.567000,-29.859,286.356,-244.139,-364.541,-138.660,-247.904,-2466.500,2157.760,-1963.220
310,64755.589000,-36.711,307.605,-254.023,-371.529,-140.541,-238.918,-2410.500,1980.760,-2164.220
311,64755.611000,-47.480,326.830,-265.884,-371.732,-156.039,-219.207,-2273.500,1794.760,-2542.220
312,64755.626000,-52.375,335.937,-266.873,-381.739,-169.513,-199.325,-2112.500,1765.760,-2886.220
313,64755.649000,-51.396,353.138,-272.803,-369.094,-180.280,-189.692,-2020.500,1856.760,-3184.220
314,64755.671000,-60.207,375.399,-294.548,-360.342,-204.561,-174.067,-1919.500,1891.760,-3514.220
315,64755.698000,-65.101,401.708,-311.351,-361.274,-217.132,-170.098,-1724.500,2021.760,-3851.220
316,64755.716000,-73.912,422.957,-329.143,-332.754,-238.676,-167.624,-1403.500,2253.760,-4142.220
317,64755.735000,-67.059,439.146,-339.027,-316.013,-246.565,-169.880,-945.500,2624.760,-4329.220
318,64755.754000,-43.564,456.348,-339.027,-291.798,-266.095,-201.788,-389.500,2831.760,-4372.220
319,64755.770000,-23.985,458.372,-343.969,-258.701,-275.054,-243.710,-72.500,3268.760,-4333.220
320,64755.791000,8.321,453.312,-341.004,-230.915,-272.378,-267.832,600.500,3782.760,-4142.220
321,64755.817000,66.080,445.217,-319.259,-185.121,-254.353,-322.808,1285.500,4136.760,-3776.220
322,64755.835000,127.755,415.874,-297.514,-159.417,-236.179,-347.895,1905.500,4105.760,-3209.220
323,64755.851000,183.556,378.435,-284.664,-101.236,-202.802,-392.280,2399.500,3574.760,-2524.220
324,64755.874000,206.073,346.055,-272.803,-83.454,-187.466,-410.333,2755.500,2744.760,-1881.220
325,64755.901000,196.283,316.711,-262.919,-29.524,-156.976,-433.965,2976.500,2112.760,-1291.220
326,64755.916000,205.094,285.344,-258.965,-7.017,-129.111,-449.162,3129.500,1637.760,-819.220
327,64755.939000,188.451,267.130,-244.139,48.738,-123.812,-452.124,3196.500,1426.760,-461.220
328,64755.956000,161.040,247.905,-233.266,105.329,-103.043,-455.119,3296.500,1280.760,-316.220
329,64755.979000,146.356,225.644,-217.452,134.445,-82.998,-452.704,3365.500,1449.760,-61.220
330,64756.1000,151.250,200.348,-196.695,189.833,-62.233,-442.879,3348.500,1706.760,235.780
331,64756.19000,173.767,169.992,-170.996,217.064,-51.844,-439.435,3236.500,1579.760,567.780
332,64756.41000,185.514,138.625,-145.297,269.459,-41.703,-420.685,3048.500,1065.760,853.780
333,64756.64000,175.725,118.387,-125.529,286.794,-38.007,-407.214,2863.500,485.760,1070.780
334,64756.84000,153.208,95.115,-116.633,328.509,-50.025,-381.357,2686.500,220.760,1269.780
335,64756.101000,144.398,82.972,-106.749,361.400,-61.963,-354.361,2531.500,121.760,1506.780
336,64756.127000,136.566,47.557,-90.934,377.792,-64.064,-339.881,2484.500,117.760,1602.780
337,64756.149000,127.755,33.391,-85.004,400.054,-92.352,-311.693,2307.500,149.760,1821.780
338,64756.161000,125.797,-14.166,-74.131,405.789,-102.092,-298.985,2153.500,143.760,2003.780
339,64756.194000,125.797,-36.427,-73.143,420.249,-133.210,-270.655,1968.500,9.760,2122.780
340,64756.214000,112.092,-46.545,-69.189,421.179,-146.773,-260.811,1802.500,-122.240,2231.780
341,64756.234000,91.533,-66.783,-74.131,426.886,-181.680,-233.307,1656.500,-85.240,2316.780
342,64756.246000,82.723,-88.032,-80.062,420.902,-212.606,-210.522,1525.500,59.760,2358.780
343,64756.264000,71.954,-98.150,-80.062,423.868,-229.085,-203.664,1369.500,237.760,2411.780
344,64756.286000,69.017,-105.233,-76.108,408.245,-258.946,-189.571,1221.500,355.760,2501.780
345,64756.309000,71.954,-118.387,-70.178,404.405,-278.265,-183.573,1130.500,352.760,2539.780
346,64756.326000,69.017,-121.423,-68.201,373.223,-308.946,-174.126,910.500,229.760,2613.780
347,64756.349000,47.480,-108.269,-72.154,366.429,-322.431,-170.052,775.500,143.760,2696.780
348,64756.371000,20.069,-97.138,-80.062,331.402,-355.008,-163.487,746.500,291.760,2777.780
349,64756.389000,5.384,-92.079,-85.992,298.355,-376.955,-163.861,725.500,574.760,2848.780
350,64756.411000,8.321,-90.055,-84.015,279.836,-388.397,-161.551,681.500,760.760,2884.780
351,64756.436000,3.426,-74.877,-83.027,245.852,-405.493,-166.837,633.500,904.760,2908.780
352,64756.455000,-7.342,-67.794,-70.178,226.587,-414.009,-179.284,435.500,1065.760,3048.780
353,64756.471000,-4.405,-78.925,-59.305,180.931,-429.058,-189.288,147.500,981.760,3119.780
354,64756.491000,-7.342,-86.008,-62.270,161.474,-429.842,-194.849,-9.500,872.760,3104.780
355,64756.511000,-75.870,-39.462,-82.039,111.867,-437.115,-206.761,-170.500,756.760,3011.780
356,64756.550000,-69.996,-41.486,-87.969,86.597,-429.130,-220.105,-301.500,1023.760,2957.780
357,64756.569000,-72.933,-23.273,-99.830,34.979,-428.645,-232.975,-554.500,1228.760,2887.780
358,64756.583000,-89.576,-4.047,-96.865,-9.853,-415.643,-248.933,-795.500,1252.760,2765.780
359,64756.599000,-100.344,8.095,-98.842,-34.196,-407.671,-259.340,-1015.500,1366.760,2615.780
360,64756.619000,-106.218,13.154,-113.668,-80.996,-387.876,-278.225,-1238.500,1522.760,2425.780
361,64756.640000,-101.323,24.285,-133.436,-91.754,-373.259,-285.927,-1485.500,1644.760,2163.780
362,64756.663000,-110.134,49.581,-159.135,-137.794,-344.775,-296.959,-1705.500,1584.760,1828.780
363,64756.683000,-110.134,65.771,-164.077,-158.406,-330.073,-300.550,-1822.500,1605.760,1686.780
364,64756.700000,-109.155,91.067,-180.880,-196.757,-299.732,-304.829,-2078.500,1717.760,1426.780
365,64756.723000,-106.218,110.292,-202.625,-231.210,-271.363,-307.206,-2268.500,1820.760,1115.780
366,64756.746000,-99.365,132.553,-221.405,-242.158,-258.692,-303.089,-2419.500,1784.760,769.780
367,64756.761000,-100.344,164.933,-230.301,-271.892,-230.378,-295.705,-2545.500,1719.760,443.780
368,64756.784000,-102.302,189.217,-249.081,-293.630,-218.579,-289.428,-2622.500,1633.760,188.780
369,64756.801000,-100.344,200.348,-259.954,-309.661,-203.939,-275.379,-2606.500,1519.760,-149.220
370,64756.827000,-113.071,211.478,-273.792,-324.513,-196.072,-269.218,-2565.500,1417.760,-576.220
371,64756.845000,-129.713,231.715,-273.792,-340.535,-186.271,-253.195,-2465.500,1536.760,-1041.220
372,64756.863000,-136.566,244.870,-266.873,-350.675,-183.299,-234.315,-2415.500,1720.760,-1252.220
373,64756.885000,-119.924,258.024,-265.884,-354.624,-183.265,-232.276,-2354.500,2163.760,-1640.220
374,64756.903000,-98.386,259.036,-253.035,-357.714,-187.119,-221.388,-2269.500,2504.760,-2122.220
375,64756.925000,-84.681,273.202,-252.046,-365.568,-186.081,-220.266,-2267.500,2573.760,-2610.220
376,64756.948000,-92.512,296.474,-255.012,-361.773,-197.738,-207.521,-2216.500,2533.760,-3062.220
377,64756.968000,-83.702,320.759,-257.977,-352.938,-206.528,-204.714,-2070.500,2604.760,-3478.220
378,64756.995000,-59.228,339.984,-252.046,-340.160,-227.934,-197.039,-1876.500,2612.760,-3864.220
379,64757.9000,-56.291,372.364,-261.931,-315.504,-243.632,-200.410,-1719.500,2624.760,-4203.220
380,64757.38000,-62.164,409.802,-275.768,-313.397,-254.289,-203.389,-1452.500,2966.760,-4429.220
381,64757.55000,-47.480,431.051,-268.849,-285.599,-262.258,-222.576,-1267.500,3232.760,-4475.220
382,64757.75000,-7.342,446.229,-256.000,-263.830,-262.440,-236.743,-832.500,3582.760,-4474.220
383,64757.90000,22.027,442.182,-272.803,-235.801,-261.686,-273.665,-359.500,3565.760,-4335.220
384,64757.115000,50.417,421.945,-303.444,-215.012,-257.988,-289.788,124.500,3422.760,-4034.220
385,64757.138000,75.870,397.660,-318.270,-176.249,-242.814,-332.823,664.500,3314.760,-3586.220
386,64757.156000,83.702,373.376,-321.236,-164.372,-229.363,-347.816,1217.500,3289.760,-3027.220
387,64757.178000,99.365,352.126,-318.270,-121.889,-198.749,-387.981,1742.500,3334.760,-2506.220
388,64757.195000,155.166,331.889,-305.421,-79.615,-166.212,-417.317,2138.500,3009.760,-2083.220
389,64757.213000,191.388,309.628,-310.363,-48.160,-151.970,-433.641,2448.500,2195.760,-1771.220
390,64757.235000,163.977,292.427,-307.398,-0.230,-122.402,-449.290,2569.500,1922.760,-1604.220
391,64757.258000,159.082,284.332,-298.502,31.088,-112.039,-455.763,2793.500,1812.760,-1239.220
392,64757.275000,158.103,271.178,-284.664,72.886,-80.497,-457.524,3009.500,1786.760,-805.220
393,64757.298000,155.166,258.024,-261.931,102.142,-64.315,-461.014,3161.500,1792.760,-418.220
394,64757.315000,169.851,237.787,-233.266,159.493,-32.920,-457.143,3211.500,1731.760,-47.220
395,64757.329000,173.767,215.526,-205.591,209.867,-10.182,-441.326,3181.500,1480.760,310.780
396,64757.354000,181.598,189.217,-183.846,240.052,-7.562,-434.971,3098.500,1143.760,619.780
397,64757.372000,180.620,161.897,-165.066,287.485,2.620,-412.196,2979.500,863.760,904.780
398,64757.398000,174.746,141.660,-146.286,307.704,6.286,-395.822,2898.500,762.760,1180.780
399,64757.423000,162.998,117.375,-132.448,348.342,4.919,-369.959,2852.500,822.760,1332.780
400,64757.443000,181.598,95.115,-112.680,371.568,-1.117,-352.643,2769.500,1007.760,1728.780
401,64757.465000,197.262,79.937,-96.865,405.395,-14.035,-322.708,2601.500,905.760,2191.780
402,64757.503000,209.989,63.747,-81.050,430.523,-44.289,-289.646,2496.500,476.760,2611.780
403,64757.517000,201.178,33.391,-63.259,437.326,-65.647,-275.959,2391.500,1.760,2943.780
404,64757.530000,174.746,14.166,-55.351,448.821,-116.099,-235.741,2307.500,-311.240,3216.780
405,64757.550000,133.629,-4.047,-49.421,451.694,-141.295,-219.026,2216.500,-301.240,3393.780
406,64757.566000,105.239,-40.474,-48.432,446.728,-191.586,-188.361,2067.500,-114.240,3457.780
407,64757.589000,94.470,-63.747,-45.467,442.821,-220.587,-173.492,1892.500,-31.240,3451.780
408,64757.606000,73.912,-86.008,-38.548,424.268,-267.843,-150.466,1765.500,1.760,3427.780
409,64757.634000,56.291,-94.103,-27.676,397.885,-309.221,-130.261,1522.500,42.760,3370.780
410,64757.651000,27.901,-104.221,-29.653,382.295,-331.336,-122.084,1292.500,166.760,3288.780
411,64757.671000,6.363,-103.209,-30.641,349.279,-371.672,-114.561,1097.500,412.760,3197.780
412,64757.694000,-12.237,-112.316,-30.641,326.873,-385.980,-112.179,873.500,694.760,3099.780
413,64757.712000,-25.943,-109.281,-33.606,285.131,-404.937,-120.279,671.500,1001.760,3003.780
414,64757.728000,-40.627,-88.032,-21.745,264.768,-417.322,-123.842,494.500,1257.760,2953.780
415,64757.758000,-30.837,-83.984,-25.699,224.211,-430.469,-146.736,164.500,1454.760,2955.780
416,64757.778000,-30.837,-64.759,-21.745,176.743,-440.653,-167.542,-228.500,1347.760,2923.780
417,64757.799000,-45.522,-30.356,-26.687,149.502,-442.331,-174.934,-410.500,1214.760,2887.780
418,64757.838000,-67.059,-7.083,-33.606,104.855,-445.773,-192.844,-679.500,956.760,2782.780
419,64757.838000,-78.807,-13.154,-42.502,82.531,-444.590,-203.280,-864.500,956.760,2688.780
420,64757.858000,-75.870,-9.107,-65.236,35.856,-436.403,-223.137,-1108.500,1163.760,2618.780
421,64757.878000,-80.765,8.095,-92.911,3.685,-430.295,-232.419,-1383.500,1325.760,2505.780
422,64757.895000,-91.533,23.273,-108.726,-38.186,-416.351,-250.400,-1599.500,1362.760,2331.780
423,64757.918000,-89.576,34.403,-110.703,-58.806,-404.553,-252.018,-1745.500,1478.760,2111.780
424,64757.935000,-87.618,45.534,-145.297,-109.582,-377.951,-270.839,-1898.500,1674.760,1866.780
425,64757.953000,-81.744,69.818,-185.822,-150.764,-349.513,-279.989,-2153.500,1671.760,1698.780
426,64757.980000,-81.744,107.257,-196.695,-168.327,-339.671,-287.565,-2243.500,1585.760,1610.780
427,64757.993000,-101.323,125.470,-202.625,-202.788,-314.206,-287.970,-2229.500,1453.760,1327.780
428,64758.11000,-110.134,130.530,-233.266,-224.467,-295.629,-288.592,-2228.500,1565.760,991.780
429,64758.34000,-100.344,159.874,-259.954,-256.062,-270.194,-285.110,-2434.500,1725.760,785.780
430,64758.56000,-98.386,197.312,-264.896,-268.950,-255.569,-282.930,-2460.500,1820.760,561.780
431,64758.81000,-102.302,207.431,-243.151,-291.765,-229.249,-278.619,-2346.500,1984.760,263.780
432,64758.115000,-80.765,209.455,-251.058,-311.643,-206.826,-272.387,-2389.500,2211.760,-68.220
433,64758.129000,-61.185,227.668,-273.792,-321.621,-197.069,-266.315,-2444.500,2042.760,-435.220
434,64758.158000,-84.681,242.846,-276.757,-343.479,-187.213,-252.158,-2336.500,1715.760,-843.220
435,64758.160000,-102.302,252.964,-265.884,-344.596,-185.276,-245.249,-2234.500,1647.760,-1070.220
436,64758.179000,-104.260,261.059,-257.977,-359.499,-183.220,-233.174,-2070.500,1750.760,-1522.220
437,64758.193000,-104.260,271.178,-266.873,-351.705,-187.164,-229.370,-2020.500,2026.760,-1920.220
438,64758.218000,-101.323,284.332,-276.757,-356.752,-191.000,-218.447,-1971.500,2272.760,-2320.220
439,64758.240000,-89.576,295.462,-260.942,-353.815,-198.770,-214.552,-1848.500,2420.760,-2795.220
440,64758.263000,-94.470,320.759,-262.919,-349.873,-205.579,-212.645,-1732.500,2598.760,-3234.220
441,64758.285000,-74.891,349.091,-268.849,-339.937,-220.178,-213.788,-1560.500,2854.760,-3600.220
442,64758.310000,-45.522,368.316,-273.792,-325.173,-222.243,-217.985,-1330.500,2933.760,-3975.220
443,64758.323000,-35.732,385.518,-272.803,-305.313,-238.859,-226.192,-1054.500,2905.760,-4325.220
444,64758.351000,-47.480,404.743,-273.792,-296.333,-242.801,-234.222,-909.500,3006.760,-4458.220
445,64758.384000,-35.732,432.063,-275.768,-260.544,-247.929,-264.383,-562.500,3508.760,-4580.220
446,64758.412000,1.468,445.217,-279.722,-246.260,-236.406,-304.027,-77.500,3968.760,-4514.220
447,64758.412000,40.627,439.146,-275.768,-203.962,-227.097,-322.507,479.500,4088.760,-4339.220
448,64758.434000,60.207,432.063,-269.838,-161.375,-198.413,-367.594,1028.500,4133.760,-4036.220
449,64758.458000,91.533,416.885,-265.884,-141.559,-182.123,-390.606,1537.500,4298.760,-3547.220
450,64758.473000,152.229,386.530,-283.676,-92.517,-133.198,-424.018,2023.500,4093.760,-2929.220
451,64758.495000,190.409,351.115,-295.537,-75.880,-107.216,-438.125,2453.500,3527.760,-2309.220
452,64758.524000,203.136,343.020,-291.583,-26.024,-61.212,-460.719,2775.500,3092.760,-1691.220
453,64758.533000,230.547,321.771,-288.618,9.022,-34.442,-465.308,2906.500,2950.760,-1394.220
454,64758.556000,277.537,303.557,-273.792,56.645,9.628,-471.125,3133.500,2523.760,-816.220
455,64758.578000,258.937,280.285,-241.174,111.070,40.082,-467.201,3297.500,2017.760,-241.220
456,64758.603000,243.273,259.036,-220.417,147.997,56.184,-461.967,3303.500,1999.760,356.780
457,64758.618000,262.853,238.798,-179.892,199.262,84.716,-444.202,3254.500,1824.760,965.780
458,64758.635000,273.621,212.490,-156.170,223.428,92.220,-431.841,3144.500,1381.760,1489.780
459,64758.658000,255.021,193.265,-131.459,278.717,95.557,-407.227,3034.500,1093.760,1947.780
460,64758.680000,235.442,172.016,-108.726,307.803,96.243,-392.976,2896.500,1032.760,2382.780
461,64758.698000,242.294,149.755,-88.958,354.402,81.276,-365.233,2740.500,988.760,2780.780
462,64758.718000,232.505,125.470,-71.166,396.147,54.742,-333.454,2664.500,782.760,2933.780
463,64758.738000,222.715,116.364,-50.409,410.716,38.148,-318.926,2452.500,574.760,3309.780
464,64758.763000,209.989,77.913,-36.571,432.125,-9.482,-287.746,2243.500,331.760,3578.780
465,64758.779000,190.409,52.617,-27.676,444.773,-31.863,-272.192,2065.500,130.760,3775.780
466,64758.800000,156.145,27.320,-17.792,452.642,-89.039,-244.700,1905.500,97.760,3928.780
467,64758.823000,126.776,-2.024,-12.849,461.517,-122.992,-231.035,1682.500,148.760,4024.780
468,64758.850000,106.218,-34.403,-10.873,445.062,-179.937,-210.988,1427.500,195.760,4037.780
469,64758.870000,83.702,-61.723,-9.884,426.674,-233.959,-193.864,1161.500,218.760,3952.780
470,64758.885000,74.891,-55.652,-5.931,405.293,-260.856,-187.547,939.500,150.760,3844.780
471,64758.908000,43.564,-76.901,-10.873,382.989,-303.228,-176.274,839.500,12.760,3754.780
472,64758.926000,4.405,-80.949,-22.734,359.666,-324.299,-173.868,663.500,239.760,3579.780
473,64758.943000,-10.279,-76.901,-28.664,321.886,-359.743,-176.111,514.500,573.760,3456.780
474,64758.970000,-29.859,-84.996,-47.444,294.735,-378.839,-179.546,320.500,865.760,3355.780
475,64758.985000,-34.753,-75.889,-44.479,250.119,-396.797,-191.534,115.500,1030.760,3253.780
476,64759.8000,-42.585,-74.877,-44.479,228.076,-411.085,-209.832,-96.500,1080.760,3132.780
477,64759.30000,-51.396,-60.711,-57.328,181.256,-413.553,-215.892,-343.500,1125.760,3007.780
478,64759.50000,-52.375,-62.735,-68.201,135.614,-418.923,-231.814,-599.500,1122.760,2885.780
479,64759.70000,-56.291,-40.474,-80.062,114.313,-420.651,-243.248,-748.500,1061.760,2753.780
480,64759.90000,-75.870,-10.119,-80.062,65.586,-415.355,-256.175,-991.500,850.760,2675.780
481,64759.110000,-95.449,-15.178,-88.958,35.286,-409.270,-260.568,-1138.500,795.760,2510.780
482,64759.125000,-100.344,-10.119,-115.645,-12.515,-400.115,-272.531,-1337.500,865.760,2360.780
483,64759.147000,-101.323,3.036,-132.448,-28.121,-394.162,-278.168,-1535.500,854.760,2187.780
484,64759.174000,-115.029,31.368,-130.471,-71.178,-380.220,-284.314,-1692.500,866.760,2031.780
485,64759.209000,-124.818,46.545,-128.494,-116.185,-359.485,-294.371,-1719.500,1192.760,1800.780
486,64759.228000,-112.092,39.462,-150.239,-129.878,-348.713,-300.048,-1827.500,1657.760,1556.780
487,64759.250000,-88.597,65.771,-181.869,-172.056,-318.331,-309.182,-2101.500,1775.760,1373.780
488,64759.265000,-86.639,96.126,-194.718,-187.837,-302.709,-309.905,-2187.500,1672.760,1136.780
489,64759.288000,-99.365,114.340,-195.707,-223.259,-279.170,-310.291,-2266.500,1441.760,996.780
490,64759.296000,-97.407,120.411,-205.591,-231.297,-267.496,-304.256,-2297.500,1463.760,642.780
491,64759.310000,-81.744,139.636,-232.278,-263.862,-244.956,-299.768,-2456.500,1557.760,330.780
492,64759.333000,-88.597,180.111,-245.127,-287.705,-224.437,-289.526,-2439.500,1532.760,-17.220
493,64759.355000,-101.323,194.277,-227.336,-305.423,-218.475,-286.266,-2298.500,1757.760,-359.220
494,64759.379000,-85.660,209.455,-230.301,-317.438,-199.993,-280.168,-2276.500,2148.760,-624.220
495,64759.395000,-54.333,223.621,-234.255,-321.563,-188.355,-274.202,-2326.500,2352.760,-922.220
496,64759.427000,-40.627,249.929,-234.255,-342.339,-176.566,-266.957,-2357.500,2206.760,-1213.220
497,64759.448000,-55.312,275.225,-234.255,-348.375,-171.682,-259.965,-2323.500,2131.760,-1529.220
498,64759.461000,-58.249,300.522,-228.324,-346.644,-169.777,-248.184,-2188.500,2154.760,-1694.220
499,64759.479000,-44.543,316.711,-229.313,-358.576,-169.681,-237.144,-2024.500,2306.760,-2031.220
500,64759.499000,-32.795,321.771,-233.266,-363.451,-171.571,-237.056,-1818.500,2396.760,-2423.220
501,64759.522000,-46.501,327.842,-256.000,-360.582,-179.345,-229.222,-1748.500,2441.760,-2761.220
502,64759.544000,-39.648,350.103,-276.757,-352.727,-184.254,-228.371,-1664.500,2440.760,-3055.220
503,64759.566000,-20.069,355.162,-284.664,-345.882,-200.771,-219.612,-1518.500,2177.760,-3398.220
504,64759.581000,-21.048,358.198,-309.375,-343.836,-212.399,-218.650,-1346.500,1851.760,-3769.220
505,64759.604000,-34.753,382.482,-338.039,-321.091,-236.788,-220.009,-1088.500,1703.760,-4167.220
506,64759.626000,-47.480,400.696,-353.853,-304.088,-258.212,-230.129,-921.500,1744.760,-4516.220
507,64759.644000,-47.480,417.897,-356.819,-275.485,-264.265,-240.472,-525.500,2045.760,-4664.220
508,64759.658000,-38.669,439.146,-356.819,-228.878,-279.167,-268.844,-89.500,2572.760,-4878.220
509,64759.690000,-8.321,459.383,-362.749,-201.065,-279.392,-292.963,416.500,3212.760,-4908.220
510,64759.733000,33.774,466.466,-363.737,-144.593,-267.277,-340.246,1051.500,3711.760,-4733.220
511,64759.741000,77.828,458.372,-342.981,-110.082,-251.119,-364.502,1753.500,4018.760,-4277.220
512,64759.756000,124.818,432.063,-305.421,-56.936,-202.219,-408.816,2338.500,4289.760,-3500.220
513,64759.775000,177.683,387.542,-293.560,-20.609,-174.472,-431.149,2841.500,4153.760,-2576.220
514,64759.793000,217.820,336.949,-271.815,32.102,-115.918,-455.777,3158.500,3488.760,-1693.220
515,64759.818000,260.895,296.474,-251.058,97.347,-72.976,-461.904,3232.500,3031.760,-1302.220
516,64759.839000,262.853,271.178,-230.301,128.490,-56.816,-461.489,3342.500,1918.760,-660.220
517,64759.856000,214.883,250.941,-225.359,181.004,-40.860,-452.592,3380.500,1144.760,-166.220
518,64759.879000,186.493,221.597,-209.544,206.165,-29.492,-443.206,3386.500,907.760,212.780
519,64759.896000,168.872,198.324,-205.591,260.482,-19.371,-422.521,3389.500,826.760,546.780
520,64759.916000,168.872,166.957,-175.938,293.473,-15.817,-409.327,3313.500,726.760,816.780
521,64759.936000,165.935,147.731,-148.263,341.862,-16.292,-379.664,3204.500,551.760,1046.780
522,64759.954000,148.314,123.447,-130.471,381.402,-23.465,-343.931,3113.500,509.760,1265.780
523,64759.985000,139.503,86.008,-115.645,401.657,-27.540,-325.580,2966.500,644.760,1480.780
524,64760.4000,156.145,60.711,-101.807,426.574,-42.319,-288.594,2897.500,671.760,1590.780
525,64760.19000,159.082,38.451,-65.236,448.874,-54.150,-271.254,2750.500,608.760,1806.780
526,64760.39000,138.524,11.130,-50.409,470.874,-72.774,-233.228,2593.500,682.760,2059.780
527,64760.64000,124.818,-24.285,-42.502,469.700,-87.294,-214.486,2411.500,996.760,2299.780
528,64760.86000,137.545,-49.581,-30.641,479.286,-122.239,-185.081,2183.500,1165.760,2596.780
529,64760.105000,155.166,-71.842,-22.734,480.136,-159.036,-158.473,1902.500,936.760,2839.780
530,64760.134000,141.461,-77.913,-26.687,478.193,-179.343,-148.570,1695.500,657.760,3069.780
531,64760.149000,112.092,-88.032,-27.676,458.730,-224.651,-130.452,1502.500,648.760,3259.780
532,64760.167000,95.449,-100.174,-28.664,451.004,-250.707,-122.410,1273.500,754.760,3385.780
533,64760.187000,89.576,-105.233,-31.629,419.953,-292.028,-114.921,1154.500,753.760,3433.780
534,64760.203000,56.291,-119.399,-35.583,401.515,-316.048,-110.628,905.500,703.760,3497.780
535,64760.226000,29.859,-107.257,-31.629,365.737,-358.282,-111.915,649.500,627.760,3515.780
536,64760.249000,-4.405,-95.115,-27.676,344.582,-392.910,-114.453,387.500,573.760,3468.780
537,64760.266000,-19.090,-79.937,-21.745,292.995,-408.878,-120.413,122.500,764.760,3414.780
538,64760.289000,-23.985,-59.700,-26.687,237.675,-425.767,-136.150,-166.500,980.760,3381.780
539,64760.309000,-47.480,-29.344,-30.641,221.338,-437.214,-146.677,-376.500,1084.760,3311.780
540,64760.332000,-57.270,-33.391,-32.618,160.258,-447.269,-172.165,-564.500,1251.760,3226.780
541,64760.349000,-53.354,-39.462,-37.560,131.102,-447.958,-182.477,-846.500,1331.760,3109.780
542,64760.385000,-61.185,-13.154,-55.351,80.592,-446.507,-203.243,-1020.500,1296.760,3031.780
543,64760.413000,-89.576,25.296,-72.154,51.453,-445.260,-215.527,-1306.500,1186.760,2831.780
544,64760.431000,-110.134,35.415,-83.027,-1.145,-435.087,-233.313,-1434.500,1276.760,2626.780
545,64760.435000,-96.428,32.379,-95.876,-46.881,-411.425,-259.112,-1541.500,1680.760,2432.780
546,64760.458000,-77.828,28.332,-135.413,-73.261,-396.664,-268.507,-1766.500,2016.760,2195.780
547,64760.467000,-69.996,88.032,-174.950,-122.097,-368.145,-287.365,-2093.500,1863.760,1959.780
548,64760.498000,-98.386,129.518,-166.054,-143.758,-351.502,-287.986,-2140.500,1590.760,1697.780
549,64760.520000,-114.050,115.352,-169.019,-181.961,-322.120,-300.142,-2164.500,1866.760,1488.780
550,64760.533000,-71.954,126.482,-214.486,-198.721,-306.490,-300.848,-2471.500,2053.760,1288.780
551,64760.554000,-62.164,192.253,-255.012,-235.175,-275.202,-302.209,-2583.500,1873.760,1139.780
552,64760.573000,-106.218,217.549,-232.278,-266.839,-249.771,-294.787,-2509.500,1493.760,803.780
553,64760.594000,-122.860,222.609,-216.463,-285.650,-235.096,-289.549,-2352.500,1780.760,470.780
554,64760.615000,-93.491,217.549,-233.266,-310.397,-205.852,-288.161,-2313.500,2331.760,148.780
555,64760.635000,-64.122,221.597,-250.069,-312.495,-194.228,-286.169,-2362.500,2502.760,-246.220
556,64760.655000,-65.101,237.787,-239.197,-330.477,-172.794,-276.031,-2286.500,2516.760,-778.220
557,64760.678000,-51.396,247.905,-235.243,-336.409,-169.841,-273.961,-2267.500,2593.760,-1311.220
558,64760.717000,-30.837,262.071,-255.012,-355.341,-155.172,-261.830,-2264.500,2519.760,-1866.220
559,64760.730000,-29.859,279.273,-274.780,-356.492,-160.980,-249.005,-2223.500,2411.760,-2383.220
560,64760.756000,-43.564,308.617,-279.722,-360.491,-162.886,-243.025,-2176.500,2190.760,-2627.220
561,64760.759000,-61.185,332.901,-287.629,-357.639,-178.403,-230.259,-2020.500,2142.760,-3061.220
562,64760.780000,-55.312,348.079,-292.571,-352.734,-191.030,-224.425,-1794.500,2261.760,-3457.220
563,64760.799000,-42.585,361.233,-300.479,-337.049,-203.753,-219.765,-1553.500,2350.760,-3842.220
564,64760.820000,-44.543,381.470,-307.398,-331.011,-216.380,-222.810,-1294.500,2526.760,-4170.220
565,64760.843000,-40.627,407.779,-309.375,-312.130,-231.051,-231.987,-1005.500,2920.760,-4423.220
566,64760.865000,-11.258,436.111,-317.282,-294.309,-235.072,-242.143,-672.500,3295.760,-4563.220
567,64760.888000,30.837,455.336,-329.143,-260.555,-239.218,-268.331,-213.500,3433.760,-4525.220
568,64760.904000,79.786,453.312,-334.085,-225.667,-241.429,-304.386,58.500,3360.760,-4438.220
569,64760.921000,113.071,437.123,-346.934,-200.989,-238.736,-318.608,597.500,2991.760,-4116.220
570,64760.944000,114.050,406.767,-351.876,-162.382,-223.571,-352.780,1156.500,2679.760,-3642.220
571,64760.990000,125.797,385.518,-360.772,-141.567,-215.032,-372.847,1729.500,2720.760,-3045.220
572,64760.990000,139.503,364.269,-348.911,-89.412,-185.482,-406.292,2319.500,2947.760,-2396.220
573,64761.18000,175.725,328.854,-326.178,-61.881,-166.365,-424.521,2764.500,3101.760,-1723.220
574,64761.40000,231.526,298.498,-320.247,-13.937,-123.246,-448.062,3093.500,2698.760,-1107.220
575,64761.49000,239.358,273.202,-296.525,44.634,-91.846,-457.996,3337.500,2005.760,-640.220
576,64761.71000,224.673,261.059,-280.710,70.980,-76.604,-462.417,3528.500,1593.760,-265.220
577,64761.97000,199.220,244.870,-256.000,131.268,-51.044,-455.638,3585.500,1550.760,-85.220
578,64761.119000,182.577,228.680,-232.278,164.369,-38.773,-453.285,3656.500,1648.760,292.780
579,64761.134000,178.662,204.395,-202.625,223.514,-10.309,-438.613,3627.500,1867.760,700.780
580,64761.160000,204.115,181.123,-165.066,252.615,-1.879,-429.294,3514.500,1782.760,1130.780
581,64761.178000,209.989,149.755,-125.529,306.768,7.265,-398.760,3332.500,1363.760,1535.780
582,64761.200000,214.883,117.375,-116.633,327.127,3.196,-386.318,3083.500,814.760,1853.780
583,64761.213000,203.136,90.055,-103.784,366.720,-7.845,-351.565,2906.500,319.760,2077.780
584,64761.235000,188.451,65.771,-72.154,406.613,-38.228,-323.686,2682.500,112.760,2283.780
585,64761.258000,180.620,50.593,-48.432,416.185,-52.847,-304.149,2419.500,-53.240,2576.780
586,64761.275000,167.893,27.320,-38.548,436.553,-93.696,-272.959,2355.500,-144.240,2679.780
587,64761.298000,140.482,16.190,-32.618,434.481,-116.915,-254.191,2151.500,-196.240,2895.780
588,64761.312000,124.818,-18.213,-29.653,440.250,-158.594,-226.679,2005.500,-70.240,3040.780
589,64761.334000,102.302,-38.451,-21.745,437.225,-178.898,-210.851,1863.500,111.760,3183.780
590,64761.357000,86.639,-63.747,-13.838,429.478,-227.218,-189.983,1682.500,307.760,3292.780
591,64761.376000,79.786,-82.972,-11.861,409.989,-269.623,-171.869,1422.500,356.760,3333.780
592,64761.396000,69.017,-93.091,-20.757,397.379,-296.602,-163.739,1179.500,287.760,3322.780
593,64761.415000,46.501,-100.174,-25.699,366.362,-334.049,-160.193,979.500,341.760,3308.780
594,64761.438000,25.943,-96.126,-22.734,344.839,-347.404,-152.905,808.500,409.760,3307.780
595,64761.460000,2.447,-92.079,-24.710,304.097,-379.919,-155.099,736.500,589.760,3303.780
596,64761.480000,-17.132,-86.008,-33.606,290.583,-392.367,-158.784,592.500,863.760,3281.780
597,64761.498000,-29.859,-84.996,-39.537,243.066,-414.169,-170.715,422.500,1117.760,3209.780
598,64761.520000,-40.627,-84.996,-32.618,195.519,-419.518,-189.557,181.500,1392.760,3130.780
599,64761.545000,-41.606,-80.949,-39.537,175.276,-426.089,-202.973,-159.500,1525.760,3037.780
600,64761.566000,-48.459,-63.747,-47.444,125.788,-427.548,-224.738,-503.500,1473.760,2906.780
601,64761.586000,-65.101,-49.581,-49.421,104.408,-424.440,-234.208,-813.500,1363.760,2720.780
602,64761.604000,-78.807,-21.249,-61.282,58.841,-417.223,-260.975,-1054.500,1340.760,2482.780
603,64761.627000,-89.576,-29.344,-74.131,36.402,-407.335,-269.450,-1143.500,1404.760,2369.780
604,64761.649000,-79.786,-11.130,-98.842,-13.263,-391.382,-290.248,-1448.500,1628.760,2226.780
605,64761.669000,-79.786,23.273,-121.575,-40.603,-378.546,-299.624,-1737.500,1714.760,2033.780
606,64761.688000,-88.597,50.593,-125.529,-72.856,-355.989,-312.862,-1860.500,1633.760,1747.780
607,64761.710000,-88.597,57.676,-125.529,-119.787,-327.491,-328.801,-1883.500,1770.760,1389.780
608,64761.730000,-71.954,61.723,-143.320,-127.672,-306.129,-336.562,-1974.500,2184.760,1008.780
609,64761.750000,-68.038,75.889,-192.741,-165.911,-274.813,-347.735,-2248.500,2423.760,680.780
610,64761.768000,-55.312,115.352,-199.660,-180.627,-259.195,-353.400,-2430.500,2455.760,361.780
611,64761.785000,-50.417,129.518,-176.927,-210.294,-219.262,-355.875,-2498.500,2594.760,-10.220
612,64761.832000,-26.922,139.636,-214.486,-224.144,-202.691,-355.650,-2638.500,2671.760,-158.220
613,64761.850000,5.384,193.265,-266.873,-262.728,-173.331,-346.141,-3021.500,2394.760,-420.220
614,64761.859000,-9.300,248.917,-276.757,-289.583,-163.436,-325.989,-3078.500,1623.760,-775.220
615,64761.874000,-41.606,274.213,-252.046,-298.623,-160.466,-314.019,-2970.500,1097.760,-1078.220
616,64761.891000,-66.080,294.451,-249.081,-321.527,-158.348,-291.958,-2936.500,1138.760,-1342.220
617,64761.919000,-70.975,310.640,-266.873,-337.408,-156.282,-279.866,-2872.500,1509.760,-1648.220
618,64761.937000,-70.975,324.806,-273.792,-352.406,-157.135,-260.895,-2667.500,1899.760,-2050.220
619,64761.960000,-69.017,333.913,-264.896,-354.518,-157.126,-251.997,-2327.500,2115.760,-2484.220
620,64761.980000,-72.933,335.937,-248.093,-358.551,-166.776,-240.101,-2033.500,2408.760,-2888.220
621,64762.0,-59.228,343.020,-252.046,-354.721,-176.495,-230.313,-1928.500,2591.760,-3076.220
622,64762.28000,-40.627,365.281,-263.907,-347.826,-183.330,-229.443,-1750.500,2841.760,-3486.220
623,64762.43000,-21.048,383.494,-268.849,-334.981,-200.861,-227.681,-1535.500,2844.760,-3920.220
624,64762.59000,-23.985,410.814,-287.629,-329.056,-206.719,-227.779,-1323.500,2784.760,-4312.220
625,64762.90000,-23.006,456.348,-313.328,-300.382,-222.447,-237.128,-1047.500,2918.760,-4646.220
626,64762.109000,-1.468,483.668,-330.131,-284.526,-227.417,-246.262,-602.500,3166.760,-4821.220
627,64762.137000,23.985,497.834,-345.946,-248.745,-231.578,-276.424,-27.500,3471.760,-4794.220
628,64762.149000,38.669,503.905,-353.853,-238.632,-231.648,-295.308,673.500,4015.760,-4525.220
629,64762.163000,82.723,493.787,-338.039,-191.966,-205.895,-348.339,1451.500,4640.760,-3903.220
630,64762.183000,166.914,453.312,-318.270,-134.792,-161.864,-396.656,1832.500,4780.760,-3494.220
631,64762.205000,226.631,407.779,-303.444,-120.996,-134.881,-416.621,2490.500,4559.760,-2578.220
632,64762.223000,246.210,365.281,-287.629,-67.142,-79.230,-449.142,2986.500,3940.760,-1671.220
633,64762.245000,262.853,328.854,-262.919,-33.922,-55.338,-459.602,3313.500,3343.760,-924.220
634,64762.268000,293.201,298.498,-245.127,24.560,-12.329,-470.531,3489.500,2578.760,-409.220
635,64762.284000,271.663,281.296,-234.255,48.889,1.960,-470.979,3609.500,1760.760,-59.220
636,64762.297000,220.757,268.142,-214.486,116.069,26.493,-466.289,3664.500,1591.760,271.780
637,64762.321000,230.547,238.798,-182.857,170.338,58.873,-454.489,3573.500,1588.760,631.780
638,64762.344000,236.421,226.656,-162.100,206.254,67.239,-443.321,3457.500,1446.760,1038.780
639,64762.366000,213.904,199.336,-150.239,259.610,77.371,-423.603,3385.500,1098.760,1214.780
640,64762.386000,214.883,163.921,-131.459,289.650,75.143,-406.412,3214.500,836.760,1500.780
641,64762.406000,215.862,142.672,-106.749,340.092,65.944,-377.760,3061.500,530.760,1728.780
642,64762.428000,194.325,126.482,-93.900,358.425,59.953,-360.357,2906.500,350.760,1946.780
643,64762.443000,170.830,90.055,-85.992,398.160,39.241,-328.549,2778.500,364.760,2115.780
644,64762.469000,168.872,61.723,-68.201,430.014,16.661,-292.662,2570.500,440.760,2295.780
645,64762.490000,184.535,30.356,-54.363,445.554,-2.846,-276.178,2363.500,220.760,2446.780
646,64762.509000,175.725,-2.024,-48.432,472.674,-35.052,-244.133,2195.500,-76.240,2539.780
647,64762.531000,139.503,-17.202,-42.502,469.633,-59.229,-225.346,2119.500,-99.240,2630.780
648,64762.564000,116.008,-42.498,-41.514,479.298,-99.009,-197.906,1960.500,160.760,2685.780
649,64762.583000,117.966,-68.806,-36.571,485.105,-120.360,-183.217,1776.500,434.760,2798.780
650,64762.611000,116.987,-79.937,-30.641,483.133,-163.898,-159.504,1583.500,505.760,2890.780
651,64762.619000,109.155,-87.020,-21.745,471.441,-187.986,-149.425,1383.500,481.760,2995.780
652,64762.638000,93.491,-102.198,-11.861,465.745,-229.543,-137.462,1129.500,453.760,3132.780
653,64762.658000,85.660,-119.399,-9.884,432.660,-273.754,-124.027,834.500,336.760,3223.780
654,64762.675000,75.870,-115.352,-8.896,413.313,-297.761,-123.656,571.500,178.760,3274.780
655,64762.690000,49.438,-105.233,-13.838,382.340,-338.109,-121.092,354.500,189.760,3321.780
656,64762.713000,26.922,-91.067,-17.792,360.030,-357.252,-121.660,259.500,242.760,3352.780
657,64762.742000,11.258,-82.972,-19.768,314.396,-391.658,-122.781,104.500,350.760,3390.780
658,64762.763000,-4.405,-69.818,-21.745,285.313,-405.895,-130.125,-44.500,456.760,3404.780
659,64762.775000,-29.859,-44.522,-26.687,238.759,-431.578,-139.116,-121.500,647.760,3361.780
660,64762.803000,-49.438,-27.320,-23.722,182.478,-448.457,-155.821,-198.500,946.760,3313.780
661,64762.825000,-61.185,-41.486,-26.687,152.300,-446.237,-165.134,-424.500,1243.760,3270.780
662,64762.843000,-63.143,-31.368,-30.641,98.977,-452.495,-188.795,-750.500,1352.760,3180.780
663,64762.865000,-78.807,-11.130,-35.583,74.662,-451.296,-197.226,-994.500,1351.760,2979.780
664,64762.883000,-103.281,-13.154,-48.432,24.149,-438.230,-223.912,-1161.500,1483.760,2695.780
665,64762.915000,-85.660,-20.237,-76.108,-6.039,-431.171,-235.200,-1278.500,1648.760,2580.780
666,64762.933000,-71.954,1.012,-110.703,-50.779,-405.581,-262.987,-1621.500,1926.760,2382.780
667,64762.947000,-76.849,57.676,-132.448,-101.563,-379.947,-280.823,-1944.500,1857.760,2144.780
668,64762.965000,-94.470,72.854,-120.587,-113.343,-366.292,-285.553,-2005.500,1776.760,1829.780
669,64762.988000,-83.702,59.700,-145.297,-155.375,-332.998,-304.538,-2113.500,2194.760,1557.780
670,64763.10000,-52.375,90.055,-189.776,-176.958,-313.447,-311.070,-2487.500,2435.760,1306.780
671,64763.28000,-51.396,149.755,-214.486,-224.159,-280.125,-314.212,-2793.500,2105.760,1014.780
672,64763.50000,-83.702,182.134,-191.753,-237.065,-265.501,-311.047,-2736.500,1923.760,636.780
673,64763.71000,-99.365,172.016,-190.764,-269.692,-234.253,-307.553,-2763.500,2357.760,215.780
674,64763.93000,-56.291,193.265,-244.139,-286.741,-204.120,-299.411,-2913.500,2516.760,38.780
675,64763.108000,-45.522,245.881,-282.687,-309.482,-195.218,-290.159,-3066.500,2261.760,-442.220
676,64763.139000,-86.639,279.273,-275.768,-326.586,-185.414,-268.210,-2890.500,1665.760,-1053.220
677,64763.159000,-116.008,289.391,-236.232,-340.441,-181.427,-261.078,-2664.500,1693.760,-1631.220
678,64763.176000,-86.639,313.676,-229.313,-352.451,-184.239,-244.127,-2709.500,2267.760,-2075.220
679,64763.204000,-61.185,357.186,-274.780,-349.628,-183.304,-238.271,-2770.500,2463.760,-2446.220
680,64763.223000,-86.639,384.506,-295.537,-351.790,-192.977,-221.486,-2615.500,2337.760,-2808.220
681,64763.251000,-100.344,391.589,-310.363,-362.578,-197.720,-217.351,-2393.500,2276.760,-3123.220
682,64763.251000,-80.765,389.565,-323.212,-353.810,-218.128,-204.685,-2124.500,2073.760,-3482.220
683,64763.275000,-71.954,399.684,-337.050,-337.144,-238.603,-196.096,-2005.500,1935.760,-3652.220
684,64763.297000,-96.428,416.885,-355.830,-328.283,-250.295,-193.285,-1704.500,1798.760,-3920.220
685,64763.313000,-110.134,431.051,-358.795,-306.440,-269.831,-201.525,-1321.500,2154.760,-4115.220
686,64763.339000,-79.786,449.265,-350.888,-281.742,-276.816,-211.798,-880.500,2754.760,-4263.220
687,64763.361000,-44.543,452.300,-348.911,-248.836,-283.850,-243.874,-353.500,3119.760,-4318.220
688,64763.381000,-28.880,445.217,-341.004,-232.860,-284.942,-261.876,245.500,3396.760,-4267.220
689,64763.402000,-14.195,439.146,-320.247,-188.095,-272.719,-310.920,869.500,3922.760,-4038.220
690,64763.419000,30.837,425.992,-296.525,-140.591,-239.239,-360.038,1501.500,4467.760,-3583.220
691,64763.442000,99.365,390.577,-287.629,-112.006,-213.351,-386.170,2081.500,4589.760,-2995.220
692,64763.465000,171.809,351.115,-274.780,-57.941,-165.432,-426.561,2324.500,4366.760,-2648.220
693,64763.484000,244.252,313.676,-282.687,-29.476,-143.423,-443.826,2658.500,3409.760,-1982.220
694,64763.505000,236.421,293.439,-275.768,26.212,-111.994,-456.662,2909.500,2101.760,-1415.220
695,64763.525000,206.073,268.142,-274.780,47.623,-97.678,-458.042,3101.500,1441.760,-978.220
696,64763.544000,196.283,260.047,-275.768,113.013,-77.957,-460.206,3248.500,1325.760,-669.220
697,64763.562000,168.872,239.810,-260.942,137.042,-44.327,-453.779,3404.500,1617.760,-338.220
698,64763.584000,157.124,222.609,-222.394,198.380,-26.515,-447.010,3505.500,2141.760,99.780
699,64763.625000,189.430,193.265,-180.880,256.440,7.759,-429.373,3449.500,2288.760,553.780
700,64763.634000,226.631,165.945,-166.054,282.511,17.178,-415.078,3392.500,2053.760,744.780
701,64763.663000,207.052,136.601,-150.239,326.932,22.543,-385.352,3278.500,1308.760,1056.780
702,64763.665000,185.514,115.352,-121.575,356.945,23.217,-368.164,3101.500,918.760,1295.780
703,64763.686000,187.472,78.925,-98.842,392.605,19.954,-336.304,2892.500,794.760,1528.780
704,64763.710000,201.178,70.830,-87.969,411.909,11.050,-316.946,2706.500,602.760,1688.780
705,64763.734000,185.514,45.534,-62.270,447.659,-7.695,-282.116,2542.500,537.760,1861.780
706,64763.750000,167.893,5.059,-43.490,467.789,-28.232,-247.993,2360.500,750.760,2160.780
707,64763.767000,162.019,-24.285,-31.629,468.642,-44.702,-232.237,2185.500,904.760,2534.780
708,64763.789000,155.166,-37.439,-26.687,481.165,-85.481,-199.924,2016.500,820.760,2869.780
709,64763.809000,154.187,-49.581,-15.815,483.109,-104.857,-189.107,1924.500,733.760,3007.780
710,64763.829000,144.398,-55.652,-13.838,483.104,-151.317,-164.441,1730.500,465.760,3274.780
711,64763.850000,116.008,-63.747,-13.838,469.456,-183.131,-150.380,1555.500,278.760,3517.780
712,64763.872000,85.660,-65.771,-7.907,454.975,-240.093,-131.352,1423.500,252.760,3699.780
713,64763.895000,65.101,-76.901,-1.977,425.911,-292.076,-119.948,1246.500,350.760,3784.780
714,64763.913000,49.438,-89.043,2.965,401.540,-313.142,-113.586,1033.500,459.760,3800.780
715,64763.927000,31.816,-88.032,6.919,360.810,-360.176,-108.872,795.500,609.760,3801.780
716,64763.954000,16.153,-74.877,21.745,341.426,-376.441,-110.479,544.500,739.760,3808.780
717,64763.977000,-7.342,-74.877,27.676,283.236,-409.755,-121.224,235.500,914.760,3767.780
718,64763.994000,-35.732,-82.972,30.641,253.183,-423.014,-129.537,47.500,1026.760,3722.780
719,64764.11000,-38.669,-87.020,35.583,196.981,-442.793,-149.193,-416.500,1129.760,3592.780
720,64764.52000,-53.354,-69.818,30.641,136.783,-449.958,-170.762,-857.500,1039.760,3407.780
721,64764.54000,-77.828,-42.498,25.699,109.620,-452.600,-182.092,-1155.500,1085.760,3158.780
722,64764.73000,-92.512,-19.225,-31.629,49.341,-445.251,-206.630,-1426.500,1378.760,2916.780
723,64764.93000,-81.744,7.083,-74.131,28.072,-441.169,-222.994,-1686.500,1619.760,2684.780
724,64764.115000,-93.491,27.320,-95.876,-25.551,-420.343,-243.727,-1842.500,1606.760,2389.780
725,64764.129000,-103.281,30.356,-106.749,-48.889,-413.346,-255.136,-1884.500,1794.760,2042.780
726,64764.161000,-95.449,33.391,-145.297,-93.813,-379.055,-277.024,-2043.500,2184.760,1712.780
727,64764.184000,-70.975,67.794,-188.788,-110.347,-367.283,-288.558,-2188.500,2287.760,1572.780
728,64764.199000,-62.164,104.221,-203.614,-148.499,-334.027,-305.643,-2418.500,2277.760,1257.780
729,64764.227000,-70.975,115.352,-197.683,-182.859,-300.813,-315.903,-2453.500,2211.760,882.780
730,64764.243000,-60.207,127.494,-227.336,-206.494,-282.218,-316.491,-2649.500,2428.760,573.780
731,64764.270000,-23.985,172.016,-269.838,-240.038,-253.861,-314.946,-3028.500,2380.760,382.780
732,64764.293000,-11.258,224.632,-278.734,-257.836,-239.193,-311.695,-3103.500,1700.760,122.780
733,64764.308000,-48.459,235.763,-249.081,-282.761,-224.478,-292.566,-2855.500,987.760,-219.220
734,64764.330000,-69.017,222.609,-257.977,-296.642,-221.460,-283.464,-2772.500,783.760,-537.220
735,64764.350000,-71.954,238.798,-303.444,-317.572,-219.359,-262.423,-2796.500,582.760,-827.220
736,64764.380000,-109.155,257.012,-310.363,-329.737,-222.180,-236.609,-2726.500,492.760,-993.220
737,64764.399000,-161.040,266.119,-288.618,-340.655,-224.027,-226.569,-2499.500,753.760,-1349.220
738,64764.418000,-163.977,269.154,-287.629,-343.763,-227.881,-214.696,-2339.500,1528.760,-1688.220
739,64764.427000,-142.440,282.308,-313.328,-339.918,-229.856,-209.839,-2244.500,2193.760,-2011.220
740,64764.450000,-130.692,295.462,-309.375,-343.917,-233.697,-202.873,-2059.500,2378.760,-2373.220
741,64764.472000,-123.839,308.617,-297.514,-333.118,-237.665,-203.059,-1850.500,2328.760,-2716.220
742,64764.494000,-115.029,320.759,-307.398,-328.110,-248.350,-204.120,-1669.500,2190.760,-3047.220
743,64764.511000,-104.260,331.889,-319.259,-310.329,-263.019,-206.386,-1497.500,2047.760,-3394.220
744,64764.529000,-112.092,347.067,-325.189,-302.343,-272.760,-210.454,-1272.500,2021.760,-3707.220
745,64764.552000,-115.029,367.304,-328.154,-276.597,-283.621,-222.710,-1137.500,2138.760,-3830.220
746,64764.572000,-105.239,384.506,-333.097,-253.822,-290.586,-234.918,-779.500,2528.760,-4011.220
747,64764.585000,-81.744,390.577,-329.143,-218.077,-290.877,-265.084,-341.500,3031.760,-4125.220
748,64764.610000,-46.501,391.589,-327.166,-201.089,-288.105,-287.046,137.500,3514.760,-4116.220
749,64764.633000,4.405,383.494,-331.120,-165.306,-268.068,-330.034,649.500,3743.760,-3970.220
750,64764.650000,64.122,375.399,-336.062,-107.115,-241.465,-371.457,1172.500,3558.760,-3700.220
751,64764.678000,92.512,361.233,-334.085,-90.311,-226.121,-389.492,1693.500,3072.760,-3344.220
752,64764.695000,107.197,340.996,-323.212,-33.343,-191.780,-421.059,2153.500,2828.760,-2883.220
753,64764.720000,138.524,324.806,-321.236,-4.945,-173.646,-432.411,2531.500,2792.760,-2345.220
754,64764.740000,178.662,292.427,-307.398,52.725,-137.394,-449.225,2716.500,2591.760,-2057.220
755,64764.758000,185.514,276.237,-294.548,76.098,-112.449,-456.559,2985.500,2282.760,-1547.220
756,64764.781000,186.493,257.012,-271.815,134.453,-78.158,-455.663,3190.500,2196.760,-1025.220
757,64764.818000,182.577,237.787,-240.185,168.443,-52.350,-455.310,3359.500,2365.760,-511.220
758,64764.831000,195.304,209.455,-217.452,229.455,-14.230,-440.683,3450.500,2621.760,-8.220
759,64764.845000,213.904,179.099,-185.822,280.388,25.898,-410.128,3464.500,2706.760,492.780
760,64764.865000,251.105,154.814,-145.297,299.659,41.190,-401.627,3341.500,2416.760,1089.780
761,64764.883000,260.895,132.553,-113.668,351.831,45.511,-367.115,3149.500,1631.760,1633.780
762,64764.900000,254.042,99.162,-89.946,374.024,45.289,-349.787,2918.500,1188.760,2022.780
763,64764.937000,251.105,79.937,-68.201,413.786,17.803,-316.003,2799.500,346.760,2191.780
764,64764.945000,223.694,61.723,-58.317,430.296,-2.682,-298.551,2607.500,-263.240,2470.780
765,64764.968000,179.641,37.439,-52.386,458.327,-40.707,-259.624,2504.500,-368.240,2698.780
766,64764.994000,140.482,16.190,-42.502,472.774,-85.377,-223.402,2438.500,40.760,2951.780
767,64765.13000,128.734,-6.071,-26.687,471.688,-107.636,-205.637,2341.500,494.760,3221.780
768,64765.28000,133.629,-34.403,-18.780,470.610,-158.932,-173.071,2172.500,604.760,3447.780
769,64765.45000,129.713,-63.747,-15.815,469.568,-180.221,-158.261,1960.500,427.760,3583.780
770,64765.73000,111.113,-75.889,-8.896,452.109,-240.062,-135.239,1719.500,230.760,3634.780
771,64765.83000,86.639,-80.949,-3.954,445.283,-263.228,-124.263,1615.500,172.760,3647.780
772,64765.105000,52.375,-92.079,-0.988,407.212,-310.303,-103.845,1428.500,249.760,3649.780
773,64765.128000,28.880,-98.150,7.907,374.222,-353.541,-96.319,1248.500,489.760,3638.780
774,64765.150000,6.363,-102.198,16.803,344.084,-372.612,-96.748,1039.500,815.760,3587.780
775,64765.175000,-11.258,-105.233,25.699,309.369,-409.044,-105.936,746.500,1188.760,3542.780
776,64765.190000,-8.321,-89.043,38.548,283.265,-420.400,-117.274,361.500,1305.760,3533.780
777,64765.213000,-22.027,-92.079,45.467,226.032,-440.173,-133.959,-77.500,1254.760,3465.780
778,64765.256000,-39.648,-74.877,38.548,194.973,-446.650,-144.231,-518.500,1137.760,3360.780
779,64765.256000,-51.396,-63.747,35.583,137.711,-455.777,-164.865,-920.500,1062.760,3204.780
780,64765.279000,-63.143,-52.617,35.583,80.378,-453.294,-187.480,-1100.500,1081.760,2973.780
781,64765.302000,-85.660,-35.415,19.768,52.252,-452.054,-201.751,-1403.500,1243.760,2824.780
782,64765.320000,-104.260,-2.024,-33.606,0.596,-436.085,-220.545,-1664.500,1536.760,2537.780
783,64765.338000,-88.597,0.000,-53.375,-22.648,-428.114,-237.863,-1944.500,1833.760,2273.780
784,64765.360000,-77.828,34.403,-94.888,-68.428,-399.615,-263.666,-2237.500,2018.760,1956.780
785,64765.378000,-90.554,84.996,-144.309,-93.785,-389.700,-273.074,-2380.500,1939.760,1547.780
786,64765.403000,-95.449,95.115,-150.239,-124.108,-360.387,-288.323,-2419.500,1979.760,1187.780
787,64765.418000,-77.828,114.340,-151.228,-149.552,-346.605,-294.780,-2562.500,2312.760,880.780
788,64765.438000,-65.101,135.589,-184.834,-183.957,-306.618,-306.032,-2768.500,2618.760,590.780
789,64765.465000,-43.564,171.004,-217.452,-215.416,-271.497,-315.361,-2892.500,2740.760,249.780
790,64765.492000,-29.859,200.348,-232.278,-235.119,-254.872,-316.016,-3083.500,2602.760,60.780
791,64765.507000,-37.690,222.609,-226.347,-267.771,-230.401,-307.591,-3090.500,2256.760,-363.220
792,64765.520000,-35.732,249.929,-239.197,-282.632,-219.631,-302.419,-3098.500,2219.760,-688.220
793,64765.545000,-13.216,285.344,-256.000,-301.590,-205.932,-288.317,-3150.500,2338.760,-943.220
794,64765.560000,-6.363,307.605,-268.849,-314.539,-194.215,-281.211,-3133.500,2314.760,-1170.220
795,64765.589000,-7.342,328.854,-276.757,-332.570,-180.527,-264.172,-2944.500,2039.760,-1372.220
796,64765.622000,-31.816,344.032,-274.780,-347.542,-180.411,-247.171,-2591.500,1835.760,-1562.220
797,64765.635000,-42.585,361.233,-280.710,-356.469,-180.337,-240.122,-2250.500,1910.760,-1770.220
798,64765.654000,-47.480,359.210,-297.514,-359.621,-181.291,-227.268,-2081.500,1965.760,-2025.220
799,64765.663000,-59.228,332.901,-312.340,-356.746,-182.289,-223.379,-1758.500,2083.760,-2186.220
800,64765.685000,-71.954,326.830,-313.328,-351.825,-191.043,-220.503,-1444.500,2305.760,-2538.220
801,64765.708000,-68.038,345.043,-330.131,-344.948,-195.943,-219.634,-1186.500,2591.760,-2856.220
802,64765.733000,-44.543,364.269,-336.062,-336.989,-202.782,-223.705,-900.500,2862.760,-3167.220
803,64765.748000,-23.006,380.459,-346.934,-317.141,-206.816,-237.834,-561.500,2939.760,-3520.220
804,64765.775000,-7.342,382.482,-348.911,-305.164,-213.685,-247.882,-176.500,2910.760,-3868.220
805,64765.790000,2.447,380.459,-343.969,-274.294,-217.802,-276.973,192.500,3014.760,-4093.220
806,64765.810000,16.153,388.553,-349.900,-254.491,-213.127,-293.080,630.500,3310.760,-4114.220
807,64765.832000,40.627,411.826,-345.946,-216.757,-203.755,-330.183,887.500,3466.760,-3980.220
808,64765.848000,68.038,416.885,-327.166,-197.867,-189.389,-355.146,1475.500,3803.760,-3852.220
809,64765.879000,124.818,403.731,-301.467,-149.532,-154.958,-396.404,2056.500,4056.760,-3475.220
810,64765.898000,180.620,379.447,-290.595,-98.411,-109.916,-434.770,2523.500,4013.760,-2908.220
811,64765.913000,238.379,351.115,-281.699,-69.045,-86.953,-448.114,2890.500,3488.760,-2239.220
812,64765.933000,258.937,320.759,-275.768,-14.406,-47.776,-460.940,3131.500,2596.760,-1590.220
813,64765.955000,256.000,305.581,-274.780,15.915,-35.469,-467.398,3308.500,1926.760,-1021.220
814,64765.984000,251.105,295.462,-259.954,73.413,-5.034,-471.404,3446.500,1656.760,-453.220
815,64765.998000,232.505,273.202,-241.174,106.462,11.105,-468.070,3558.500,1677.760,81.780
816,64766.30000,241.315,250.941,-220.417,172.524,41.446,-458.445,3572.500,1720.760,327.780
817,64766.34000,250.126,226.656,-189.776,198.385,60.533,-437.267,3571.500,1606.760,790.780
818,64766.59000,228.589,203.383,-172.973,256.755,68.691,-423.543,3539.500,1408.760,1200.780
819,64766.82000,215.862,185.170,-150.239,312.830,77.816,-391.074,3474.500,1434.760,1548.780
820,64766.104000,230.547,159.874,-115.645,341.951,76.568,-377.806,3343.500,1437.760,1892.780
821,64766.122000,242.294,131.542,-85.992,385.328,68.387,-337.216,3138.500,1230.760,2248.780
822,64766.141000,248.168,114.340,-70.178,410.529,58.463,-318.946,2904.500,836.760,2598.780
823,64766.159000,226.631,93.091,-41.514,446.309,27.137,-279.180,2697.500,508.760,2924.780
824,64766.182000,197.262,56.664,-22.734,453.025,5.774,-260.569,2492.500,452.760,3188.780
825,64766.204000,176.704,17.202,-1.977,475.370,-44.771,-225.465,2400.500,462.760,3309.780
826,64766.227000,172.788,-2.024,17.792,484.050,-93.254,-193.075,2148.500,382.760,3508.780
827,64766.229000,163.977,-28.332,24.710,482.075,-123.242,-176.269,1853.500,43.760,3635.780
828,64766.259000,133.629,-28.332,29.653,476.377,-188.996,-151.480,1565.500,-341.240,3772.780
829,64766.285000,90.554,-43.510,33.606,462.746,-218.873,-139.390,1279.500,-417.240,3861.780
830,64766.308000,55.312,-46.545,28.664,433.605,-275.701,-121.088,1070.500,-206.240,3892.780
831,64766.331000,30.837,-49.581,28.664,409.296,-301.603,-115.705,890.500,129.760,3905.780
832,64766.363000,25.943,-59.700,29.653,375.373,-351.604,-107.171,641.500,310.760,3894.780
833,64766.382000,18.111,-54.640,33.606,320.025,-393.661,-108.111,367.500,325.760,3856.780
834,64766.395000,-8.321,-57.676,37.560,290.882,-410.804,-110.529,214.500,356.760,3823.780
835,64766.412000,-32.795,-49.581,41.514,241.402,-441.300,-117.494,-82.500,439.760,3745.780
836,64766.437000,-57.270,-47.557,32.618,206.360,-447.744,-123.757,-371.500,576.760,3597.780
837,64766.454000,-74.891,-37.439,25.699,147.204,-463.626,-144.350,-638.500,830.760,3419.780
838,64766.470000,-89.576,-38.451,20.757,118.005,-463.350,-152.694,-889.500,1135.760,3185.780
839,64766.497000,-100.344,-12.142,-3.954,65.607,-461.877,-177.364,-1015.500,1462.760,2845.780
840,64766.523000,-109.155,1.012,-60.293,13.136,-442.986,-206.976,-1226.500,1887.760,2545.780
841,64766.538000,-105.239,30.356,-88.958,-4.245,-436.037,-223.412,-1399.500,2195.760,2251.780
842,64766.555000,-105.239,60.711,-104.772,-43.964,-407.581,-260.152,-1451.500,2473.760,1910.780
843,64766.575000,-104.260,33.391,-125.529,-69.262,-390.887,-276.460,-1441.500,2690.760,1719.780
844,64766.603000,-61.185,31.368,-164.077,-103.226,-346.036,-315.290,-1677.500,3214.760,1423.780
845,64766.618000,-30.837,78.925,-191.753,-121.762,-325.538,-328.768,-2117.500,3317.760,1091.780
846,64766.640000,-45.522,116.364,-198.672,-153.136,-284.605,-345.981,-2344.500,2896.760,656.780
847,64766.658000,-55.312,105.233,-205.591,-166.909,-265.126,-351.667,-2476.500,2702.760,225.780
848,64766.674000,-14.195,127.494,-247.104,-200.386,-229.023,-358.008,-2861.500,2652.760,-90.220
849,64766.694000,-7.342,182.134,-278.734,-227.192,-203.639,-348.703,-3041.500,2058.760,-481.220
850,64766.717000,-46.501,204.395,-267.861,-250.842,-194.724,-343.373,-3000.500,1618.760,-892.220
851,64766.734000,-58.249,221.597,-275.768,-279.647,-178.035,-327.132,-3091.500,1943.760,-1175.220
852,64766.767000,-33.774,259.036,-309.375,-282.774,-172.212,-319.208,-3130.500,2136.760,-1287.220
853,64766.787000,-17.132,300.522,-321.236,-312.461,-158.413,-306.885,-3018.500,2255.760,-1552.220
854,64766.805000,-14.195,319.747,-299.490,-326.377,-153.461,-296.800,-2678.500,2058.760,-1810.220
855,64766.828000,-18.111,315.700,-285.652,-337.452,-153.381,-278.884,-2306.500,1850.760,-2092.220
856,64766.848000,-27.901,303.557,-291.583,-335.667,-157.280,-267.098,-2051.500,1812.760,-2413.220
857,64766.863000,-40.627,304.569,-290.595,-343.511,-164.953,-262.028,-1810.500,1966.760,-2774.220
858,64766.884000,-39.648,317.723,-290.595,-332.736,-175.697,-257.283,-1569.500,2201.760,-3113.220
859,64766.909000,-35.732,326.830,-286.641,-332.709,-178.599,-257.280,-1298.500,2380.760,-3446.220
860,64766.932000,-23.006,342.008,-292.571,-320.895,-192.253,-254.520,-1008.500,2437.760,-3788.220
861,64766.944000,-20.069,374.387,-298.502,-314.893,-195.203,-260.530,-863.500,2609.760,-3937.220
862,64766.967000,-8.321,400.696,-309.375,-295.062,-203.109,-271.700,-540.500,2935.760,-4139.220
863,64766.989000,21.048,410.814,-308.386,-265.275,-201.416,-297.825,-135.500,3264.760,-4228.220
864,64767.14000,41.606,418.909,-312.340,-244.546,-198.689,-310.008,305.500,3460.760,-4205.220
865,64767.29000,53.354,415.874,-316.293,-213.716,-177.643,-349.957,824.500,3727.760,-4053.220
866,64767.49000,86.639,411.826,-308.386,-188.989,-165.267,-372.067,1387.500,4001.760,-3736.220
867,64767.72000,128.734,394.625,-294.548,-147.659,-128.848,-405.327,1913.500,4070.760,-3298.220
868,64767.100000,181.598,379.447,-287.629,-128.987,-105.782,-422.420,2337.500,3815.760,-2791.220
869,64767.115000,229.568,352.126,-288.618,-74.141,-66.594,-447.064,2522.500,3498.760,-2524.220
870,64767.138000,245.231,325.818,-290.595,-54.603,-44.511,-457.280,2829.500,2729.760,-1972.220
871,64767.157000,264.811,308.617,-285.652,-0.968,-8.231,-467.131,3043.500,2094.760,-1433.220
872,64767.177000,276.558,306.593,-284.664,57.579,16.392,-472.134,3209.500,1477.760,-932.220
873,64767.191000,240.337,290.403,-261.931,78.947,27.802,-469.572,3385.500,1222.760,-437.220
874,64767.213000,234.463,271.178,-241.174,144.084,54.284,-460.911,3482.500,1491.760,58.780
875,64767.245000,257.958,254.988,-214.486,172.171,66.592,-451.577,3517.500,1586.760,561.780
876,64767.275000,261.874,228.680,-173.961,233.223,87.292,-430.039,3476.500,1385.760,1051.780
877,64767.289000,266.769,197.312,-151.228,264.309,90.866,-419.765,3358.500,994.760,1462.780
878,64767.303000,256.979,178.087,-132.448,317.573,88.410,-388.217,3302.500,761.760,1643.780
879,64767.318000,230.547,160.885,-104.772,370.900,75.310,-354.689,3191.500,520.760,1970.780
880,64767.343000,226.631,131.542,-77.097,388.255,67.392,-336.283,3029.500,518.760,2286.780
881,64767.360000,235.442,98.150,-67.212,429.949,35.047,-298.589,2785.500,336.760,2563.780
882,64767.378000,223.694,90.055,-44.479,445.401,19.407,-279.155,2607.500,-15.240,2829.780
883,64767.390000,182.577,70.830,-26.687,467.693,-25.333,-244.056,2466.500,-76.240,3097.780
884,64767.424000,154.187,33.391,-15.815,477.390,-53.497,-224.506,2309.500,120.760,3330.780
885,64767.443000,136.566,1.012,-2.965,483.118,-103.889,-190.092,2148.500,245.760,3474.780
886,64767.466000,124.818,-30.356,-2.965,482.110,-159.052,-159.492,1933.500,250.760,3561.780
887,64767.484000,105.239,-57.676,-7.907,471.310,-183.154,-144.506,1825.500,233.760,3570.780
888,64767.505000,74.891,-68.806,-4.942,452.906,-239.113,-125.410,1616.500,304.760,3610.780
889,64767.528000,59.228,-77.913,4.942,447.145,-264.219,-118.388,1388.500,493.760,3624.780
890,64767.543000,50.417,-73.866,10.873,408.242,-310.309,-106.816,1133.500,607.760,3625.780
891,64767.565000,37.690,-67.794,11.861,386.902,-332.365,-105.429,915.500,701.760,3626.780
892,64767.593000,19.090,-67.794,14.826,342.344,-373.550,-108.530,682.500,886.760,3632.780
893,64767.605000,10.279,-68.806,19.768,322.280,-407.213,-117.980,348.500,1022.760,3637.780
894,64767.638000,-1.468,-65.771,21.745,265.859,-418.293,-129.767,-45.500,1044.760,3629.780
895,64767.664000,-19.090,-50.593,23.722,208.600,-439.035,-144.481,-420.500,976.760,3558.780
896,64767.678000,-37.690,-37.439,23.722,183.430,-449.436,-153.868,-586.500,933.760,3493.780
897,64767.690000,-59.228,-21.249,15.815,127.068,-453.737,-172.554,-870.500,987.760,3303.780
898,64767.708000,-71.954,-26.308,-5.931,103.818,-452.542,-185.927,-1181.500,1230.760,3121.780
899,64767.730000,-72.933,-2.024,-39.537,43.504,-443.260,-209.482,-1428.500,1419.760,2861.780
900,64767.755000,-92.512,21.249,-63.259,17.273,-437.202,-222.807,-1549.500,1704.760,2568.780
901,64767.776000,-100.344,32.379,-72.154,-33.276,-414.458,-252.458,-1661.500,2216.760,2227.780
902,64767.794000,-66.080,53.628,-126.517,-76.053,-380.175,-285.212,-1856.500,2584.760,1870.780
903,64767.817000,-64.122,99.162,-152.216,-98.476,-364.479,-297.632,-2029.500,2677.760,1498.780
904,64767.832000,-80.765,128.506,-153.205,-133.608,-323.501,-323.638,-1981.500,2871.760,1044.780
905,64767.854000,-83.702,116.364,-169.019,-148.274,-300.137,-336.204,-1969.500,3146.760,819.780
906,64767.877000,-33.774,120.411,-214.486,-174.812,-243.765,-358.443,-2202.500,3859.760,410.780
907,64767.895000,4.405,162.909,-256.988,-189.520,-223.308,-367.067,-2668.500,3983.760,-34.220
908,64767.938000,14.195,214.514,-262.919,-224.178,-174.624,-368.480,-2960.500,3349.760,-496.220
909,64767.938000,-2.447,260.047,-261.931,-257.895,-146.278,-357.087,-3083.500,2662.760,-970.220
910,64767.960000,11.258,287.368,-289.606,-279.674,-137.385,-346.868,-3248.500,2109.760,-1337.220
911,64767.978000,1.468,305.581,-311.351,-309.557,-136.180,-316.807,-3235.500,1342.760,-1753.220
912,64768.3000,-49.438,330.877,-319.259,-316.588,-139.031,-304.866,-3021.500,756.760,-2112.220
913,64768.25000,-98.386,347.067,-315.305,-334.465,-151.469,-282.877,-2755.500,739.760,-2360.220
914,64768.35000,-108.176,372.364,-321.236,-337.564,-158.227,-270.016,-2617.500,1226.760,-2450.220
915,64768.67000,-91.533,380.459,-323.212,-338.661,-165.968,-259.159,-2243.500,2036.760,-2669.220
916,64768.87000,-63.143,371.352,-307.398,-345.563,-165.909,-256.083,-1806.500,2702.760,-2928.220
917,64768.102000,-35.732,373.376,-297.514,-341.614,-165.942,-258.122,-1375.500,3147.760,-3230.220
918,64768.119000,7.342,382.482,-284.664,-326.753,-172.841,-265.268,-955.500,3377.760,-3540.220
919,64768.142000,37.690,388.553,-277.745,-318.874,-170.973,-269.348,-530.500,3297.760,-3855.220
920,64768.162000,56.291,390.577,-268.849,-293.086,-176.992,-286.533,-134.500,3106.760,-4152.220
921,64768.183000,70.975,406.767,-268.849,-287.032,-181.875,-294.510,216.500,2984.760,-4366.220
922,64768.200000,67.059,425.992,-274.780,-252.423,-176.358,-318.755,400.500,3031.760,-4416.220
923,64768.214000,80.765,432.063,-271.815,-235.529,-174.559,-334.807,818.500,3361.760,-4398.220
924,64768.252000,106.218,430.040,-263.907,-196.863,-154.552,-374.893,1290.500,3746.760,-4205.220
925,64768.269000,132.650,418.909,-256.988,-149.584,-119.149,-412.196,1782.500,4077.760,-3837.220
926,64768.302000,191.388,390.577,-252.046,-128.029,-94.177,-427.373,2190.500,4227.760,-3248.220
927,64768.304000,263.832,364.269,-265.884,-79.159,-49.134,-448.964,2555.500,3736.760,-2608.220
928,64768.339000,276.558,331.889,-275.768,-45.983,-26.212,-456.469,2855.500,2909.760,-1926.220
929,64768.342000,288.306,314.688,-289.606,-9.972,18.940,-469.957,3093.500,2458.760,-1255.220
930,64768.365000,327.465,302.545,-294.548,24.106,38.945,-471.568,3297.500,2173.760,-574.220
931,64768.388000,324.528,291.415,-267.861,81.422,70.337,-465.727,3401.500,2003.760,-243.220
932,64768.410000,311.801,280.285,-243.151,140.643,101.709,-456.967,3527.500,1933.760,416.780
933,64768.428000,323.549,252.964,-201.637,167.683,115.958,-444.665,3550.500,1932.760,1071.780
934,64768.450000,329.423,235.763,-174.950,231.705,132.762,-423.175,3460.500,1582.760,1668.780
935,64768.473000,309.843,223.621,-142.332,265.684,131.468,-408.023,3334.500,1083.760,2144.780
936,64768.488000,288.306,200.348,-118.610,318.057,125.153,-379.409,3189.500,730.760,2554.780
937,64768.510000,268.727,177.075,-95.876,347.181,114.227,-361.206,3050.500,475.760,2890.780
938,64768.528000,246.210,158.862,-73.143,400.668,85.649,-328.648,2881.500,275.760,3183.780
939,64768.545000,224.673,135.589,-50.409,414.145,40.021,-292.408,2678.500,71.760,3437.780
940,64768.564000,209.010,116.364,-29.653,444.354,15.540,-273.225,2588.500,-86.240,3538.780
941,64768.592000,177.683,92.079,-15.815,466.789,-46.614,-237.124,2405.500,-399.240,3718.780
942,64768.614000,134.608,57.676,2.965,473.569,-78.621,-216.533,2251.500,-502.240,3830.780
943,64768.639000,101.323,27.320,16.803,475.507,-140.586,-183.024,2115.500,-327.240,3920.780
944,64768.677000,74.891,-5.059,21.745,470.614,-172.483,-166.164,1921.500,-23.240,3958.780
945,64768.696000,67.059,-39.462,19.768,456.108,-234.285,-143.193,1671.500,222.760,3930.780
946,64768.704000,59.228,-55.652,24.710,437.496,-256.379,-130.040,1392.500,285.760,3858.780
947,64768.719000,39.648,-61.723,26.687,401.591,-309.268,-118.513,1131.500,378.760,3799.780
948,64768.749000,15.174,-54.640,28.664,368.680,-355.405,-113.939,897.500,467.760,3770.780
949,64768.763000,2.447,-55.652,30.641,341.443,-372.569,-113.437,789.500,683.760,3752.780
950,64768.780000,-6.363,-57.676,31.629,293.955,-405.016,-121.419,522.500,857.760,3693.780
951,64768.800000,-25.943,-45.534,35.583,262.924,-422.138,-127.741,231.500,1074.760,3625.780
952,64768.823000,-37.690,-41.486,34.595,207.716,-436.117,-151.359,-104.500,1347.760,3531.780
953,64768.844000,-51.396,-39.462,31.629,178.605,-441.644,-161.667,-516.500,1552.760,3388.780
954,64768.862000,-52.375,-26.308,22.734,128.339,-444.050,-194.246,-892.500,1644.760,3177.780
955,64768.893000,-64.122,-9.107,0.988,67.116,-436.691,-220.736,-1187.500,1704.760,2907.780
956,64768.908000,-77.828,1.012,-22.734,47.743,-429.726,-235.169,-1446.500,1839.760,2600.780
957,64768.935000,-88.597,8.095,-40.525,-1.766,-411.828,-265.816,-1575.500,1958.760,2277.780
958,64768.949000,-83.702,6.071,-60.293,-24.120,-396.128,-282.175,-1887.500,2248.760,2119.780
959,64768.975000,-69.996,32.379,-93.900,-75.841,-363.708,-305.909,-2245.500,2368.760,1763.780
960,64768.998000,-66.080,86.008,-117.622,-89.458,-346.157,-319.471,-2392.500,2376.760,1342.780
961,64769.7000,-76.849,112.316,-124.541,-129.559,-309.979,-338.493,-2470.500,2755.760,890.780
962,64769.28000,-64.122,100.174,-133.436,-156.080,-283.611,-345.930,-2857.500,3256.760,519.780
963,64769.49000,-14.195,125.470,-173.961,-194.486,-239.722,-354.162,-3307.500,3177.760,134.780
964,64769.75000,-5.384,243.858,-228.324,-232.976,-205.516,-352.537,-3373.500,2565.760,-239.220
965,64769.93000,-25.943,271.178,-229.313,-248.870,-188.933,-347.353,-3316.500,2353.760,-575.220
966,64769.115000,21.048,299.510,-273.792,-288.517,-165.376,-329.943,-3357.500,2354.760,-720.220
967,64769.129000,24.964,340.996,-317.282,-298.502,-162.395,-319.925,-3458.500,1939.760,-1058.220
968,64769.147000,-46.501,368.316,-312.340,-325.432,-159.280,-291.888,-3246.500,1138.760,-1436.220
969,64769.172000,-89.576,374.387,-309.375,-338.403,-162.082,-275.904,-2935.500,1107.760,-1690.220
970,64769.188000,-90.554,370.340,-334.085,-352.421,-162.943,-256.950,-2686.500,1498.760,-1984.220
971,64769.214000,-103.281,375.399,-358.795,-357.510,-173.557,-240.112,-2435.500,1787.760,-2351.220
972,64769.242000,-115.029,376.411,-357.807,-358.600,-176.458,-232.214,-2105.500,2034.760,-2748.220
973,64769.254000,-100.344,370.340,-353.853,-354.717,-190.046,-223.406,-1746.500,2265.760,-3180.220
974,64769.279000,-84.681,379.447,-354.842,-348.739,-203.644,-222.512,-1412.500,2308.760,-3659.220
975,64769.299000,-87.618,400.696,-353.853,-324.196,-216.444,-220.962,-1247.500,2306.760,-3903.220
976,64769.318000,-80.765,436.111,-340.015,-320.028,-227.113,-229.883,-878.500,2465.760,-4327.220
977,64769.348000,-66.080,473.549,-331.120,-286.402,-238.042,-245.232,-460.500,2960.760,-4601.220
978,64769.354000,-37.690,492.775,-316.293,-245.522,-240.300,-288.284,53.500,3637.760,-4757.220
979,64769.376000,13.216,491.763,-303.444,-221.746,-232.753,-309.387,662.500,4197.760,-4751.220
980,64769.398000,49.438,481.644,-283.676,-170.170,-208.979,-362.504,1282.500,4538.760,-4621.220
981,64769.424000,93.491,475.573,-262.919,-142.535,-189.857,-386.642,1871.500,4803.760,-4302.220
982,64769.442000,152.229,444.206,-237.220,-94.396,-134.144,-427.922,2391.500,4859.760,-3770.220
983,64769.464000,245.231,398.672,-229.313,-68.946,-101.466,-446.130,2768.500,4278.760,-3087.220
984,64769.482000,297.117,355.162,-226.347,-6.508,-53.650,-462.058,2897.500,3707.760,-2713.220
985,64769.504000,294.180,313.676,-237.220,17.747,-20.008,-468.433,3068.500,2365.760,-1970.220
986,64769.524000,271.663,294.451,-258.965,78.341,-7.013,-472.474,3163.500,1423.760,-1275.220
987,64769.539000,261.874,288.379,-248.093,137.633,18.556,-464.692,3287.500,1088.760,-644.220
988,64769.557000,238.379,276.237,-228.324,161.877,27.032,-457.256,3401.500,1089.760,-95.220
989,64769.587000,218.799,243.858,-202.625,219.039,52.609,-439.592,3464.500,1351.760,365.780
990,64769.609000,230.547,211.478,-174.950,252.002,61.000,-427.388,3419.500,1506.760,776.780
991,64769.623000,221.736,185.170,-151.228,309.099,71.086,-397.891,3340.500,1410.760,1198.780
992,64769.643000,202.157,153.802,-127.506,326.338,77.680,-380.484,3221.500,1350.760,1584.780
993,64769.660000,213.904,126.482,-104.772,379.499,75.218,-343.028,3138.500,1299.760,1754.780
994,64769.683000,208.031,102.198,-86.981,422.037,61.247,-307.339,2982.500,1012.760,2052.780
995,64769.699000,192.367,91.067,-66.224,436.396,52.385,-284.941,2806.500,765.760,2326.780
996,64769.725000,167.893,64.759,-49.421,468.288,20.128,-246.089,2660.500,636.760,2628.780
997,64769.759000,153.208,17.202,-30.641,487.637,2.515,-224.753,2520.500,721.760,2828.780
998,64769.777000,144.398,-11.130,-19.768,502.056,-35.381,-190.508,2344.500,914.760,2955.780
999,64769.805000,148.314,-40.474,-11.861,500.036,-58.597,-174.693,2101.500,976.760,3136.780
1000,64769.808000,152.229,-63.747,0.988,502.836,-106.059,-142.201,1821.500,795.760,3308.780
