Sample, Time, ACCX, ACCY, ACCZ, MAGX, MAGY, MAGZ, GYRX, GYRY, GYRZ
0,64800.570000,-43.564,-22.261,-240.185,53.363,-365.848,-310.161,-12.500,5.760,-0.220
1,64800.597000,-43.564,-24.285,-240.185,54.325,-367.794,-308.207,-13.500,0.760,2.780
2,64800.614000,-42.585,-22.261,-240.185,57.260,-363.949,-310.232,-14.500,-5.240,3.780
3,64800.637000,-44.543,-23.273,-240.185,54.288,-360.053,-310.184,-15.500,-6.240,2.780
4,64800.660000,-45.522,-22.261,-240.185,52.350,-365.841,-308.174,-14.500,-2.240,3.780
5,64800.682000,-44.543,-21.249,-239.197,56.264,-365.877,-308.244,-12.500,1.760,4.780
6,64800.702000,-43.564,-22.261,-240.185,57.251,-364.917,-309.247,-12.500,-1.240,4.780
7,64800.723000,-45.522,-23.273,-240.185,59.199,-363.968,-309.282,-12.500,-6.240,4.780
8,64800.742000,-45.522,-22.261,-239.197,55.259,-362.966,-308.229,-12.500,-0.240,5.780
9,64800.768000,-44.543,-23.273,-239.197,52.324,-364.875,-307.191,-14.500,2.760,3.780
10,64800.783000,-44.543,-21.249,-240.185,53.328,-363.914,-309.178,-15.500,-6.240,-0.220
11,64800.820000,-46.501,-21.249,-241.174,57.304,-366.850,-311.214,-17.500,-11.240,-4.220
12,64800.834000,-45.522,-21.249,-241.174,55.321,-369.737,-308.222,-16.500,-6.240,-6.220
13,64800.857000,-44.543,-21.249,-240.185,59.208,-364.935,-309.281,-13.500,-4.240,-6.220
14,64800.872000,-45.522,-21.249,-239.197,52.359,-364.873,-309.160,-10.500,4.760,-4.220
15,64800.893000,-43.564,-21.249,-239.197,51.328,-362.931,-307.175,-12.500,8.760,-4.220
16,64800.913000,-44.543,-21.249,-241.174,49.406,-364.847,-308.123,-13.500,2.760,-4.220
17,64800.931000,-44.543,-20.237,-240.185,56.282,-365.876,-309.228,-13.500,-6.240,-4.220
18,64800.948000,-44.543,-22.261,-240.185,55.303,-363.931,-310.198,-11.500,-1.240,-5.220
19,64800.966000,-43.564,-20.237,-239.197,50.410,-363.887,-310.111,-9.500,3.760,-6.220
20,64800.993000,-44.543,-20.237,-239.197,50.410,-363.887,-310.111,-8.500,7.760,-9.220
21,64801.10000,-44.543,-20.237,-239.197,51.415,-364.862,-311.112,-10.500,13.760,-8.220
22,64801.35000,-42.585,-21.249,-239.197,56.246,-362.006,-309.232,-13.500,17.760,-9.220
23,64801.58000,-43.564,-21.249,-239.197,54.350,-364.889,-311.164,-13.500,11.760,-9.220
24,64801.77000,-42.585,-21.249,-239.197,57.277,-365.884,-310.230,-13.500,12.760,-6.220
25,64801.99000,-43.564,-20.237,-238.208,56.289,-362.972,-311.201,-12.500,12.760,-4.220
26,64801.117000,-42.585,-21.249,-239.197,50.418,-362.918,-311.097,-13.500,11.760,-4.220
27,64801.141000,-43.564,-20.237,-239.197,58.273,-365.892,-311.233,-15.500,8.760,-4.220
28,64801.163000,-43.564,-20.237,-240.185,52.374,-359.064,-313.105,-15.500,7.760,-6.220
29,64801.181000,-44.543,-19.225,-239.197,56.316,-363.938,-312.185,-16.500,12.760,-7.220
30,64801.228000,-41.606,-21.249,-240.185,55.337,-363.929,-312.167,-17.500,11.760,-7.220
31,64801.228000,-42.585,-20.237,-241.174,51.423,-361.958,-313.085,-14.500,8.760,-7.220
32,64801.237000,-44.543,-19.225,-241.174,55.337,-361.993,-313.154,-12.500,10.760,-7.220
33,64801.259000,-42.585,-20.237,-240.185,56.280,-360.068,-312.189,-14.500,12.760,-8.220
34,64801.279000,-41.606,-19.225,-242.162,50.461,-360.012,-315.039,-14.500,6.760,-7.220
35,64801.298000,-41.606,-21.249,-240.185,55.328,-362.962,-312.168,-11.500,-0.240,-7.220
36,64801.321000,-42.585,-20.237,-238.208,53.397,-361.975,-314.104,-10.500,7.760,-5.220
37,64801.336000,-41.606,-20.237,-239.197,56.325,-364.905,-312.184,-13.500,7.760,-7.220
38,64801.364000,-41.606,-19.225,-240.185,48.566,-364.830,-315.984,-14.500,-9.240,-10.220
39,64801.382000,-42.585,-18.213,-240.185,60.273,-363.003,-315.209,-13.500,-6.240,-12.220
40,64801.404000,-43.564,-20.237,-242.162,54.402,-362.950,-315.105,-12.500,7.760,-13.220
41,64801.427000,-42.585,-19.225,-242.162,53.345,-361.978,-311.150,-11.500,13.760,-13.220
42,64801.445000,-42.585,-20.237,-241.174,52.410,-360.998,-314.088,-11.500,16.760,-13.220
43,64801.471000,-41.606,-20.237,-239.197,53.371,-362.944,-312.134,-15.500,15.760,-14.220
44,64801.480000,-39.648,-19.225,-242.162,49.465,-360.004,-314.037,-15.500,5.760,-16.220
45,64801.502000,-40.627,-19.225,-240.185,50.426,-360.014,-313.069,-13.500,-2.240,-18.220
46,64801.530000,-41.606,-17.202,-244.139,49.491,-360.971,-315.021,-10.500,1.760,-13.220
47,64801.549000,-40.627,-18.213,-243.151,55.353,-360.057,-315.126,-6.500,5.760,-9.220
48,64801.587000,-41.606,-18.213,-242.162,54.358,-360.049,-314.123,-4.500,4.760,-7.220
49,64801.606000,-39.648,-18.213,-242.162,52.418,-358.094,-316.060,-5.500,-0.240,-5.220
50,64801.610000,-40.627,-19.225,-241.174,48.539,-361.928,-315.987,-4.500,-3.240,-3.220
51,64801.632000,-39.648,-19.225,-240.185,55.372,-363.927,-314.137,-5.500,-6.240,-4.220
52,64801.652000,-41.606,-19.225,-242.162,52.357,-357.130,-313.107,-2.500,-7.240,-1.220
53,64801.672000,-40.627,-19.225,-239.197,52.453,-361.964,-316.056,-7.500,-6.240,-3.220
54,64801.697000,-40.627,-20.237,-241.174,53.353,-361.009,-312.136,-12.500,-10.240,-5.220
55,64801.706000,-41.606,-17.202,-241.174,56.315,-362.002,-313.171,-11.500,-18.240,-8.220
56,64801.726000,-43.564,-17.202,-240.185,50.418,-360.982,-312.084,-9.500,-13.240,-8.220
57,64801.753000,-40.627,-19.225,-242.162,52.436,-361.965,-315.072,-6.500,2.760,-5.220
58,64801.768000,-41.606,-18.213,-242.162,54.340,-360.050,-313.139,-4.500,-3.240,-4.220
59,64801.799000,-42.585,-19.225,-241.174,59.224,-359.127,-313.226,-4.500,-11.240,-2.220
60,64801.817000,-42.585,-18.213,-241.174,47.491,-359.987,-313.018,-4.500,-15.240,-0.220
61,64801.835000,-42.585,-19.225,-243.151,49.491,-360.971,-315.021,-0.500,-12.240,-0.220
62,64801.862000,-42.585,-19.225,-242.162,50.505,-362.913,-316.021,0.500,-8.240,-3.220
63,64801.884000,-42.585,-18.213,-241.174,48.443,-359.030,-312.051,-0.500,-6.240,-7.220
64,64801.927000,-41.606,-19.225,-241.174,53.370,-359.072,-314.107,-1.500,-3.240,-8.220
65,64801.936000,-41.606,-19.225,-240.185,55.372,-363.927,-314.137,-1.500,-5.240,-9.220
66,64801.936000,-41.606,-18.213,-240.185,55.433,-364.892,-317.090,-1.500,-1.240,-7.220
67,64801.958000,-40.627,-18.213,-240.185,50.444,-360.013,-314.054,-1.500,-1.240,-4.220
68,64801.981000,-40.627,-19.225,-239.197,50.496,-361.946,-316.022,-2.500,-0.240,-3.220
69,64801.998000,-40.627,-19.225,-239.197,55.380,-361.023,-316.109,-4.500,-7.240,-2.220
70,64802.28000,-40.627,-19.225,-242.162,52.392,-359.063,-314.090,-7.500,-12.240,-2.220
71,64802.48000,-40.627,-18.213,-241.174,47.534,-359.017,-315.973,-6.500,-13.240,-1.220
72,64802.66000,-42.585,-17.202,-240.185,50.488,-362.914,-315.036,-5.500,-9.240,1.780
73,64802.83000,-40.627,-18.213,-241.174,55.310,-361.027,-312.170,-6.500,-6.240,2.780
74,64802.111000,101.323,311.652,-58.317,50.434,-357.110,-315.042,-503.500,506.760,-47.220
75,64802.126000,86.639,-64.759,-164.077,40.549,-370.577,-302.053,-790.500,-1333.240,131.780
76,64802.135000,-175.725,6.071,-251.058,49.279,-377.437,-294.324,-122.500,-1494.240,-30.220
77,64802.162000,-121.881,0.000,-245.127,43.416,-372.544,-297.180,-21.500,-10.240,-16.220
78,64802.184000,-46.501,-30.356,-245.127,47.441,-367.733,-306.116,61.500,713.760,8.780
79,64802.209000,-20.069,-11.130,-256.988,41.604,-365.742,-308.969,-21.500,613.760,-47.220
80,64802.242000,-35.732,3.036,-263.907,39.673,-366.691,-309.918,-98.500,25.760,-57.220
81,64802.261000,-61.185,-10.119,-274.780,47.475,-365.796,-309.073,-16.500,-40.240,-60.220
82,64802.271000,-52.375,-7.083,-271.815,45.527,-366.745,-309.037,39.500,63.760,-44.220
83,64802.288000,-53.354,-10.119,-263.907,46.522,-364.817,-311.026,66.500,165.760,-25.220
84,64802.320000,-40.627,-9.107,-255.012,44.599,-362.862,-313.947,89.500,195.760,-10.220
85,64802.335000,-29.859,-12.142,-250.069,43.665,-365.754,-314.912,98.500,120.760,-1.220
86,64802.359000,-36.711,-14.166,-242.162,40.651,-362.828,-311.909,98.500,-33.240,8.780
87,64802.375000,-44.543,-15.178,-239.197,44.565,-362.864,-311.978,91.500,-71.240,10.780
88,64802.393000,-44.543,-14.166,-238.208,49.440,-360.974,-312.066,83.500,-26.240,9.780
89,64802.416000,-41.606,-16.190,-232.278,51.466,-362.923,-315.053,74.500,0.760,6.780
90,64802.438000,-39.648,-18.213,-229.313,45.544,-364.809,-311.009,62.500,-7.240,-3.220
91,64802.460000,-40.627,-20.237,-229.313,49.466,-363.876,-312.064,47.500,-12.240,-9.220
92,64802.482000,-40.627,-19.225,-229.313,51.389,-363.896,-310.129,28.500,-8.240,-13.220
93,64802.500000,-40.627,-18.213,-231.290,49.431,-361.942,-311.081,10.500,-12.240,-16.220
94,64802.519000,-40.627,-18.213,-234.255,56.368,-365.871,-314.152,3.500,-19.240,-17.220
95,64802.539000,-40.627,-17.202,-235.243,53.424,-366.813,-313.115,-6.500,-23.240,-12.220
96,64802.562000,-38.669,-18.213,-238.208,55.398,-366.829,-314.134,-14.500,-18.240,-6.220
97,64802.579000,-39.648,-18.213,-243.151,50.426,-360.014,-313.069,-14.500,-28.240,-3.220
98,64802.600000,-87.618,364.269,-154.193,52.402,-363.902,-312.115,-930.500,1317.760,-284.220
99,64802.627000,33.774,-69.818,-181.869,41.597,-370.582,-306.010,-501.500,-1016.240,-18.220
100,64802.641000,-153.208,3.036,-240.185,41.434,-375.431,-294.188,-60.500,-796.240,21.780
101,64802.674000,-121.881,-6.071,-253.035,45.478,-376.427,-301.149,38.500,422.760,89.780
102,64802.684000,-53.354,-8.095,-247.104,47.390,-371.608,-301.189,117.500,629.760,70.780
103,64802.707000,-26.922,-4.047,-257.977,43.536,-368.665,-306.046,124.500,429.760,58.780
104,64802.727000,-32.795,-8.095,-256.988,43.518,-364.795,-307.035,-3.500,55.760,-7.220
105,64802.747000,-61.185,-12.142,-263.907,40.609,-369.606,-305.993,27.500,-44.240,-32.220
106,64802.763000,-62.164,-11.130,-263.907,44.514,-368.674,-306.064,55.500,68.760,-23.220
107,64802.791000,-57.270,-10.119,-255.012,43.552,-364.793,-309.004,65.500,168.760,-20.220
108,64802.800000,-46.501,-10.119,-248.093,42.556,-364.785,-308.002,69.500,129.760,-21.220
109,64802.822000,-35.732,-12.142,-242.162,41.586,-361.872,-309.958,64.500,-17.240,-13.220
110,64802.839000,-42.585,-14.166,-238.208,41.664,-364.771,-312.909,54.500,-73.240,-10.220
111,64802.860000,-48.459,-13.154,-236.232,39.691,-366.690,-310.903,49.500,-67.240,-11.220
112,64802.886000,-47.480,-14.166,-234.255,45.448,-361.910,-307.072,36.500,-29.240,-17.220
113,64802.917000,-45.522,-14.166,-231.290,48.453,-363.869,-310.077,24.500,-15.240,-24.220
114,64802.936000,-44.543,-16.190,-231.290,47.450,-368.701,-306.115,14.500,-27.240,-33.220
115,64802.955000,-44.543,-16.190,-232.278,46.470,-362.885,-309.058,4.500,-26.240,-40.220
116,64802.970000,-45.522,-15.178,-235.243,46.470,-364.820,-308.072,-4.500,-4.240,-38.220
117,64802.992000,-44.543,-16.190,-234.255,47.475,-365.796,-309.073,-11.500,0.760,-36.220
118,64803.8000,-42.585,-16.190,-236.232,52.316,-365.843,-306.205,-17.500,-22.240,-37.220
119,64803.37000,-43.564,-15.178,-237.220,48.480,-366.771,-310.074,-19.500,-29.240,-36.220
120,64803.52000,-46.501,-14.166,-239.197,45.690,-359.961,-321.846,-19.500,-23.240,-34.220
121,64803.74000,15.174,-356.174,-215.475,37.582,-384.103,-293.125,-502.500,-1829.240,461.780
122,64803.97000,-254.042,22.261,-270.826,38.380,-388.962,-280.335,-179.500,-1943.240,-160.220
123,64803.126000,-109.155,3.036,-253.035,41.385,-387.049,-285.313,57.500,384.760,97.780
124,64803.140000,-25.943,-20.237,-250.069,41.478,-380.268,-294.183,168.500,1183.760,85.780
125,64803.157000,10.279,-34.403,-256.988,41.571,-369.616,-305.026,71.500,842.760,46.780
126,64803.180000,-41.606,7.083,-264.896,37.673,-367.643,-306.928,-47.500,80.760,-30.220
127,64803.199000,-71.954,-10.119,-271.815,35.647,-367.630,-302.955,29.500,-112.240,-55.220
128,64803.219000,-64.122,-6.071,-266.873,42.566,-369.624,-306.028,50.500,-26.240,-36.220
129,64803.235000,-60.207,-6.071,-257.977,44.513,-364.803,-308.037,66.500,140.760,-29.220
130,64803.257000,-40.627,-7.083,-248.093,38.668,-363.780,-309.904,81.500,264.760,-23.220
131,64803.280000,-32.795,-8.095,-240.185,40.625,-363.798,-309.938,92.500,146.760,-19.220
132,64803.306000,-43.564,-10.119,-238.208,41.604,-365.742,-308.969,87.500,-41.240,-11.220
133,64803.331000,-50.417,-10.119,-234.255,45.535,-363.841,-311.010,74.500,-71.240,-18.220
134,64803.353000,-50.417,-10.119,-235.243,40.651,-362.828,-311.909,60.500,9.760,-23.220
135,64803.366000,-43.564,-15.178,-231.290,46.487,-362.884,-310.043,49.500,61.760,-25.220
136,64803.388000,-40.627,-15.178,-230.301,45.544,-366.744,-310.022,32.500,26.760,-34.220
137,64803.403000,-42.585,-14.166,-232.278,50.427,-363.886,-311.096,26.500,2.760,-41.220
138,64803.421000,-45.522,-15.178,-234.255,43.621,-364.789,-312.943,12.500,-17.240,-48.220
139,64803.443000,-41.606,-15.178,-234.255,46.487,-360.948,-311.030,0.500,3.760,-45.220
140,64803.466000,-40.627,-14.166,-237.220,45.552,-361.904,-312.981,-11.500,10.760,-40.220
141,64803.488000,-40.627,-13.154,-239.197,50.445,-363.885,-312.081,-14.500,-8.240,-41.220
142,64803.506000,-218.799,120.411,-101.807,49.550,-354.192,-321.921,-112.500,150.760,-108.220
143,64803.528000,94.470,-101.186,-136.402,45.561,-364.808,-311.993,-721.500,-983.240,232.780
144,64803.552000,-170.830,21.249,-250.069,46.318,-376.444,-293.288,-80.500,-1382.240,-128.220
145,64803.566000,-136.566,1.012,-260.942,40.446,-372.519,-295.158,67.500,-422.240,96.780
146,64803.588000,-23.985,-9.107,-243.151,40.609,-369.606,-305.993,97.500,699.760,93.780
147,64803.606000,-31.816,-34.403,-259.954,43.595,-363.822,-311.960,43.500,420.760,47.780
148,64803.637000,-33.774,7.083,-258.965,44.592,-365.766,-311.975,-59.500,252.760,-10.220
149,64803.651000,-47.480,-11.130,-265.884,42.652,-365.747,-312.925,-3.500,8.760,-37.220
150,64803.668000,-58.249,-5.059,-269.838,47.484,-364.827,-310.058,30.500,8.760,-27.220
151,64803.686000,-58.249,-6.071,-262.919,50.497,-365.818,-314.048,55.500,157.760,-19.220
152,64803.706000,-43.564,-8.095,-254.023,43.639,-364.788,-313.928,69.500,193.760,-26.220
153,64803.747000,-33.774,-8.095,-245.127,40.676,-359.923,-314.866,78.500,73.760,-21.220
154,64803.761000,-39.648,-11.130,-241.174,49.562,-364.838,-316.986,80.500,14.760,-20.220
155,64803.780000,-42.585,-10.119,-239.197,47.500,-360.955,-313.017,75.500,-10.240,-21.220
156,64803.795000,-43.564,-9.107,-236.232,47.543,-359.984,-315.972,66.500,24.760,-25.220
157,64803.817000,-40.627,-12.142,-234.255,44.607,-358.022,-316.907,56.500,56.760,-26.220
158,64803.837000,-36.711,-14.166,-231.290,47.569,-360.951,-316.956,42.500,44.760,-28.220
159,64803.857000,-36.711,-15.178,-232.278,47.551,-359.016,-316.958,29.500,10.760,-28.220
160,64803.875000,-37.690,-13.154,-234.255,48.564,-357.087,-319.931,15.500,0.760,-24.220
161,64803.908000,-37.690,-14.166,-236.232,43.662,-356.075,-319.846,4.500,3.760,-22.220
162,64803.911000,-36.711,-13.154,-238.208,49.552,-361.935,-317.974,-0.500,-5.240,-20.220
163,64803.927000,-37.690,-14.166,-239.197,47.551,-357.080,-317.944,0.500,-10.240,-18.220
164,64803.957000,-38.669,-13.154,-241.174,45.737,-342.536,-333.680,0.500,-3.240,-13.220
165,64803.980000,33.774,-339.984,-147.274,42.582,-361.880,-310.960,244.500,-1925.240,733.780
166,64803.997000,-106.218,2.024,-220.417,49.373,-370.656,-303.194,-256.500,-1310.240,-144.220
167,64804.14000,-162.998,10.119,-273.792,44.496,-364.804,-307.052,98.500,221.760,145.780
168,64804.38000,-43.564,-9.107,-248.093,47.527,-365.793,-312.027,131.500,668.760,100.780
169,64804.60000,-4.405,-40.474,-258.965,38.692,-357.003,-314.834,-72.500,273.760,86.780
170,64804.82000,-30.837,9.107,-261.931,45.550,-356.097,-315.941,-26.500,38.760,-8.220
171,64804.115000,-48.459,-9.107,-268.849,37.714,-356.994,-314.817,25.500,-22.240,-23.220
172,64804.128000,-54.333,-4.047,-269.838,43.628,-358.013,-316.889,44.500,-21.240,-18.220
173,64804.147000,-57.270,-7.083,-264.896,41.688,-356.059,-318.826,70.500,135.760,-5.220
174,64804.170000,-45.522,-5.059,-256.000,50.538,-357.104,-320.950,85.500,210.760,-7.220
175,64804.178000,-30.837,-7.083,-248.093,42.666,-354.132,-319.830,90.500,75.760,-5.220
176,64804.201000,-33.774,-9.107,-239.197,41.723,-356.057,-320.796,85.500,-50.240,-5.220
177,64804.223000,-41.606,-10.119,-238.208,53.482,-356.162,-321.988,74.500,-52.240,-12.220
178,64804.246000,-44.543,-10.119,-237.220,49.524,-353.226,-320.937,64.500,14.760,-18.220
179,64804.263000,-41.606,-12.142,-235.243,43.662,-354.140,-320.832,55.500,40.760,-26.220
180,64804.286000,-36.711,-12.142,-232.278,48.563,-355.151,-320.918,48.500,26.760,-31.220
181,64804.307000,-34.753,-14.166,-233.266,48.521,-359.993,-315.989,32.500,-10.240,-39.220
182,64804.324000,-36.711,-15.178,-235.243,52.513,-359.057,-320.983,21.500,-19.240,-44.220
183,64804.345000,-36.711,-14.166,-236.232,52.373,-351.321,-317.052,12.500,1.760,-42.220
184,64804.365000,-33.774,-14.166,-236.232,52.469,-356.155,-320.001,5.500,5.760,-36.220
185,64804.386000,-33.774,-13.154,-238.208,54.443,-356.172,-321.021,3.500,-8.240,-31.220
186,64804.403000,-35.732,-15.178,-239.197,56.400,-356.190,-321.055,2.500,-11.240,-25.220
187,64804.431000,149.293,376.411,294.548,42.634,-363.812,-312.927,337.500,-2310.240,603.780
188,64804.440000,-238.379,32.379,-232.278,44.216,-387.081,-279.456,-605.500,-2465.240,-178.220
189,64804.467000,-219.778,11.130,-270.826,43.265,-389.974,-279.436,-32.500,-1700.240,-118.220
190,64804.505000,-117.966,-19.225,-257.977,42.464,-377.373,-296.173,134.500,777.760,82.780
191,64804.534000,51.396,-23.273,-247.104,38.661,-368.620,-306.944,165.500,1812.760,39.780
192,64804.534000,12.237,-2.024,-256.988,41.785,-360.893,-321.776,-46.500,1045.760,58.780
193,64804.551000,-52.375,-9.107,-273.792,39.766,-356.039,-320.761,-22.500,35.760,-49.220
194,64804.573000,-54.333,-9.107,-273.792,40.719,-358.953,-317.821,44.500,-99.240,-75.220
195,64804.593000,-61.185,-7.083,-269.838,40.719,-358.953,-317.821,57.500,14.760,-40.220
196,64804.616000,-52.375,-3.036,-259.954,46.616,-358.037,-319.896,72.500,229.760,-21.220
197,64804.638000,-27.901,-7.083,-247.104,46.597,-354.166,-320.884,93.500,203.760,-21.220
198,64804.667000,-28.880,-9.107,-242.162,44.615,-355.118,-318.879,94.500,88.760,-17.220
199,64804.677000,-44.543,-10.119,-241.174,53.412,-354.230,-319.036,95.500,-104.240,-6.220
200,64804.695000,-48.459,-10.119,-239.197,47.541,-354.177,-318.932,89.500,-91.240,-14.220
201,64804.717000,-42.585,-11.130,-236.232,52.460,-353.252,-320.989,76.500,14.760,-21.220
202,64804.740000,-37.690,-13.154,-233.266,54.426,-356.173,-320.036,69.500,46.760,-32.220
203,64804.762000,-36.711,-14.166,-231.290,48.606,-354.181,-323.873,59.500,13.760,-47.220
204,64804.785000,-37.690,-14.166,-232.278,51.473,-356.148,-318.999,48.500,-2.240,-59.220
205,64804.800000,-39.648,-14.166,-232.278,49.481,-354.196,-317.982,33.500,28.760,-59.220
206,64804.820000,-34.753,-15.178,-234.255,52.478,-357.123,-320.000,28.500,42.760,-56.220
207,64804.839000,-33.774,-15.178,-234.255,55.448,-357.148,-322.022,12.500,29.760,-54.220
208,64804.862000,-34.753,-14.166,-239.197,58.339,-352.337,-322.079,4.500,-2.240,-54.220
209,64804.885000,-38.669,-15.178,-241.174,56.373,-353.288,-321.058,-0.500,-7.240,-52.220
210,64804.917000,-39.648,-13.154,-244.139,54.381,-351.336,-320.041,4.500,18.760,-45.220
211,64804.931000,-37.690,-16.190,-244.139,58.391,-354.270,-324.046,7.500,36.760,-38.220
212,64804.958000,-37.690,-17.202,-248.093,57.387,-353.295,-323.045,15.500,17.760,-37.220
213,64804.967000,-39.648,-16.190,-251.058,59.448,-357.178,-327.015,22.500,-20.240,-39.220
214,64804.992000,-43.564,-17.202,-252.046,63.249,-352.381,-323.150,32.500,-47.240,-43.220
215,64805.9000,-46.501,-17.202,-256.000,56.418,-358.125,-321.053,42.500,-52.240,-48.220
216,64805.30000,-48.459,-16.190,-261.931,56.400,-354.254,-322.042,61.500,-56.240,-59.220
217,64805.52000,-53.354,-17.202,-265.884,70.056,-355.349,-319.329,98.500,-69.240,-78.220
218,64805.72000,-55.312,-17.202,-270.826,66.159,-357.248,-319.258,145.500,-36.240,-99.220
219,64805.90000,-56.291,-19.225,-274.780,66.133,-354.346,-319.261,200.500,14.760,-127.220
220,64805.112000,-53.354,-21.249,-273.792,75.917,-352.499,-320.420,249.500,59.760,-157.220
221,64805.130000,-49.438,-22.261,-269.838,78.889,-358.331,-319.482,297.500,92.760,-181.220
222,64805.152000,-46.501,-23.273,-263.907,79.901,-354.467,-323.442,347.500,168.760,-185.220
223,64805.168000,-32.795,-26.308,-257.977,83.761,-348.698,-323.517,399.500,258.760,-180.220
224,64805.192000,-21.048,-29.344,-250.069,90.628,-346.824,-325.610,421.500,319.760,-170.220
225,64805.213000,1.468,-36.427,-234.255,101.451,-345.950,-329.740,463.500,451.760,-121.220
226,64805.233000,31.816,-42.498,-216.463,103.424,-338.224,-334.706,483.500,488.760,-39.220
227,64805.253000,59.228,-48.569,-195.707,98.583,-338.176,-337.574,454.500,346.760,68.780
228,64805.273000,82.723,-59.700,-166.054,109.294,-334.406,-336.783,355.500,96.760,188.780
229,64805.298000,90.554,-67.794,-130.471,98.470,-337.215,-331.666,141.500,-136.240,315.780
230,64805.316000,90.554,-64.759,-103.784,103.398,-341.129,-331.749,-144.500,-243.240,472.780
231,64805.333000,85.660,-55.652,-76.108,88.678,-340.030,-329.521,-453.500,-195.240,668.780
232,64805.356000,86.639,-39.462,-54.363,74.062,-346.668,-329.255,-612.500,-157.240,881.780
233,64805.373000,79.786,-23.273,-54.363,53.515,-350.353,-326.918,-931.500,-138.240,979.780
234,64805.401000,69.996,-5.059,-86.981,38.872,-348.282,-329.614,-1204.500,-194.240,1150.780
235,64805.434000,63.143,7.083,-127.506,6.504,-348.961,-324.119,-1410.500,-281.240,1250.780
236,64805.452000,43.564,28.332,-179.892,-22.884,-352.567,-319.657,-1495.500,-359.240,1312.780
237,64805.467000,16.153,39.462,-228.324,-45.502,-353.337,-312.365,-1486.500,-283.240,1365.780
238,64805.489000,5.384,50.593,-279.722,-75.939,-353.067,-305.920,-1430.500,-152.240,1391.780
239,64805.504000,-17.132,79.937,-328.154,-91.570,-350.019,-308.600,-1205.500,29.760,1423.780
240,64805.527000,-40.627,100.174,-358.795,-121.040,-339.112,-307.107,-936.500,411.760,1504.780
241,64805.540000,-34.753,110.292,-384.494,-130.921,-332.253,-304.971,-809.500,563.760,1551.780
242,64805.561000,-30.837,122.435,-409.205,-154.497,-312.687,-309.499,-518.500,611.760,1647.780
243,64805.578000,-38.669,125.470,-410.193,-175.038,-303.788,-314.068,-199.500,543.760,1711.780
244,64805.608000,-46.501,120.411,-413.158,-184.869,-294.991,-315.874,87.500,440.760,1741.780
245,64805.631000,-55.312,118.387,-422.054,-196.641,-278.431,-322.576,362.500,310.760,1740.780
246,64805.643000,-64.122,120.411,-420.077,-203.544,-272.565,-322.461,661.500,200.760,1726.780
247,64805.664000,-70.975,117.375,-410.193,-201.581,-261.935,-328.415,942.500,137.760,1685.780
248,64805.686000,-74.891,111.304,-395.367,-204.499,-259.972,-330.334,1164.500,27.760,1586.780
249,64805.702000,-76.849,104.221,-377.575,-198.544,-250.341,-340.295,1350.500,-85.240,1429.780
250,64805.723000,-90.554,93.091,-354.842,-201.499,-244.508,-342.219,1421.500,-106.240,1342.780
251,64805.752000,-94.470,81.960,-332.108,-189.575,-243.637,-353.260,1542.500,-89.240,1171.780
252,64805.775000,-94.470,73.866,-306.409,-178.666,-240.823,-363.301,1620.500,-95.240,983.780
253,64805.789000,-96.428,63.747,-279.722,-165.894,-237.064,-368.453,1657.500,-120.240,783.780
254,64805.812000,-97.407,52.617,-255.012,-153.035,-241.043,-374.583,1641.500,-127.240,580.780
255,64805.835000,-104.260,37.439,-216.463,-144.185,-242.089,-376.707,1605.500,-162.240,355.780
256,64805.854000,-116.987,23.273,-190.764,-126.406,-249.015,-382.920,1561.500,-188.240,87.780
257,64805.870000,-116.987,12.142,-164.077,-115.600,-244.271,-388.039,1471.500,-83.240,-179.220
258,64805.892000,-115.029,1.012,-141.344,-92.973,-248.340,-393.357,1403.500,-16.240,-472.220
259,64805.918000,-106.218,-4.047,-117.622,-71.351,-247.563,-399.647,1240.500,96.760,-628.220
260,64805.937000,-88.597,-11.130,-96.865,-52.734,-246.762,-401.947,1049.500,249.760,-918.220
261,64805.960000,-66.080,-17.202,-75.120,-29.226,-242.135,-406.306,829.500,366.760,-1184.220
262,64805.977000,-50.417,-21.249,-63.259,-26.204,-242.157,-411.281,555.500,324.760,-1418.220
263,64806.0,-40.627,-13.154,-51.398,-9.587,-240.373,-411.578,258.500,262.760,-1613.220
264,64806.17000,-34.753,-11.130,-42.502,2.180,-235.639,-415.729,-30.500,274.760,-1752.220
265,64806.40000,-22.027,-6.071,-38.548,10.006,-229.903,-418.828,-323.500,389.760,-1859.220
266,64806.58000,-1.468,-4.047,-35.583,11.988,-225.080,-422.806,-632.500,524.760,-1956.220
267,64806.82000,16.153,-2.024,-50.409,17.848,-216.423,-426.858,-810.500,538.760,-1997.220
268,64806.105000,26.922,2.024,-81.050,16.850,-206.736,-430.789,-1183.500,332.760,-2072.220
269,64806.125000,34.753,19.225,-109.714,11.983,-207.658,-431.687,-1501.500,-77.240,-2167.220
270,64806.143000,33.774,37.439,-157.158,-3.722,-215.261,-424.509,-1740.500,-513.240,-2274.220
271,64806.165000,20.069,62.735,-212.510,-4.630,-221.056,-425.470,-1909.500,-837.240,-2387.220
272,64806.180000,-0.489,90.055,-273.792,-13.547,-229.693,-414.473,-1960.500,-952.240,-2487.220
273,64806.197000,-24.964,115.352,-328.154,-22.325,-240.259,-410.368,-1888.500,-711.240,-2534.220
274,64806.225000,-40.627,133.565,-372.633,-23.390,-240.255,-405.427,-1724.500,-169.240,-2553.220
275,64806.250000,-23.006,145.708,-419.089,-26.291,-238.290,-408.331,-1461.500,120.760,-2599.220
276,64806.267000,10.279,155.826,-452.695,-22.370,-233.486,-411.359,-1295.500,520.760,-2621.220
277,64806.290000,26.922,154.814,-469.498,-18.414,-226.744,-417.344,-919.500,637.760,-2617.220
278,64806.305000,52.375,154.814,-476.417,-9.601,-220.048,-421.446,-536.500,703.760,-2575.220
279,64806.325000,79.786,151.779,-480.371,8.979,-207.635,-427.696,-134.500,680.760,-2498.220
280,64806.342000,108.176,148.743,-480.371,15.793,-203.828,-427.821,284.500,614.760,-2366.220
281,64806.365000,132.650,135.589,-469.498,42.235,-191.484,-436.178,693.500,538.760,-2140.220
282,64806.387000,160.061,130.530,-451.707,58.797,-181.960,-437.467,1078.500,440.760,-1851.220
283,64806.412000,168.872,126.482,-420.077,92.974,-178.404,-436.107,1437.500,358.760,-1513.220
284,64806.432000,183.556,114.340,-387.459,127.193,-170.006,-439.676,1587.500,337.760,-1342.220
285,64806.455000,199.220,99.162,-354.842,142.710,-168.220,-433.061,1830.500,193.760,-1010.220
286,64806.469000,196.283,89.043,-313.328,186.587,-168.629,-424.977,2002.500,-60.240,-721.220
287,64806.490000,184.535,72.854,-272.803,206.018,-168.815,-417.445,2109.500,-203.240,-430.220
288,64806.512000,184.535,54.640,-237.220,232.169,-168.102,-403.142,2155.500,-266.240,-145.220
289,64806.532000,186.493,39.462,-206.579,250.658,-174.085,-394.602,2141.500,-446.240,107.780
290,64806.561000,177.683,20.237,-174.950,280.717,-185.991,-373.461,2088.500,-614.240,363.780
291,64806.565000,167.893,0.000,-149.251,305.886,-203.660,-349.275,1989.500,-671.240,601.780
292,64806.601000,155.166,-20.237,-124.541,310.615,-208.553,-337.539,1879.500,-642.240,837.780
293,64806.620000,146.356,-41.486,-104.772,328.908,-225.193,-312.248,1817.500,-610.240,943.780
294,64806.638000,141.461,-59.700,-88.958,336.661,-237.851,-301.541,1679.500,-539.240,1139.780
295,64806.661000,135.587,-72.854,-68.201,344.356,-259.224,-282.948,1509.500,-485.240,1339.780
296,64806.678000,127.755,-87.020,-47.444,338.323,-265.955,-270.035,1288.500,-410.240,1542.780
297,64806.698000,122.860,-96.126,-27.676,328.544,-289.095,-258.021,991.500,-333.240,1740.780
298,64806.716000,116.008,-102.198,-12.849,318.765,-312.236,-246.008,644.500,-387.240,1900.780
299,64806.731000,90.554,-103.209,6.919,305.051,-321.791,-239.847,267.500,-446.240,1991.780
300,64806.745000,60.207,-102.198,20.757,282.724,-344.806,-237.456,-133.500,-350.240,1997.780
301,64806.769000,31.816,-99.162,24.710,269.184,-354.352,-241.144,-557.500,-243.240,1912.780
302,64806.792000,23.006,-101.186,18.780,238.109,-368.572,-246.484,-785.500,-18.240,1821.780
303,64806.812000,25.943,-66.783,12.849,215.734,-371.264,-251.992,-1259.500,104.760,1651.780
304,64806.832000,16.153,-40.474,-6.919,177.825,-375.742,-263.129,-1663.500,128.760,1502.780
305,64806.855000,4.405,-4.047,-37.560,163.339,-379.470,-271.728,-1931.500,313.760,1411.780
306,64806.872000,9.300,30.356,-73.143,120.588,-376.158,-289.681,-2119.500,615.760,1377.780
307,64806.898000,23.006,71.842,-121.575,79.636,-369.000,-300.778,-2229.500,816.760,1364.780
308,64806.926000,29.859,110.292,-183.846,49.440,-364.845,-310.093,-2286.500,872.760,1401.780
309,64806.941000,47.480,126.482,-244.139,5.476,-358.634,-316.214,-2304.500,671.760,1478.780
310,64806.963000,36.711,158.862,-309.375,-14.052,-351.678,-321.783,-2231.500,484.760,1525.780
311,64806.982000,-6.363,175.051,-352.865,-59.178,-340.628,-320.013,-1959.500,372.760,1680.780
312,64807.1000,-19.090,180.111,-394.378,-74.843,-337.583,-320.724,-1664.500,527.760,1865.780
313,64807.23000,-6.363,188.206,-442.811,-115.060,-324.641,-321.012,-1365.500,430.760,2021.780
314,64807.46000,-21.048,199.336,-478.394,-144.625,-312.771,-314.596,-979.500,158.760,2125.780
315,64807.93000,-62.164,194.277,-480.371,-158.413,-304.908,-313.377,-539.500,153.760,2196.780
316,64807.107000,-79.786,177.075,-480.371,-186.931,-289.171,-312.891,-134.500,254.760,2151.780
317,64807.116000,-68.038,179.099,-480.371,-189.911,-286.243,-311.857,293.500,-83.240,2132.780
318,64807.130000,-93.491,172.016,-480.371,-202.747,-273.552,-311.645,762.500,-352.240,2112.780
319,64807.152000,-116.987,181.123,-480.371,-213.467,-274.419,-313.423,1001.500,-399.240,2094.780
320,64807.173000,-128.734,176.063,-451.707,-204.619,-265.786,-320.481,1416.500,-410.240,2047.780
321,64807.188000,-133.629,177.075,-414.147,-214.440,-259.891,-321.298,1752.500,-351.240,1963.780
322,64807.205000,-146.356,164.933,-366.703,-203.505,-254.172,-334.296,2024.500,-243.240,1826.780
323,64807.232000,-149.293,118.387,-282.687,-191.601,-247.494,-347.313,2158.500,-113.240,1624.780
324,64807.249000,-161.040,83.984,-237.220,-180.769,-245.653,-352.429,2139.500,-185.240,1285.780
325,64807.262000,-163.977,50.593,-209.544,-161.051,-246.790,-360.652,2009.500,-289.240,850.780
326,64807.285000,-176.704,36.427,-177.915,-153.101,-250.726,-365.710,1823.500,-425.240,280.780
327,64807.307000,-183.556,29.344,-150.239,-135.357,-255.718,-370.941,1719.500,-434.240,-258.220
328,64807.325000,-173.767,31.368,-134.425,-112.799,-259.792,-372.319,1492.500,-247.240,-486.220
329,64807.352000,-146.356,42.498,-112.680,-95.956,-263.803,-382.457,1273.500,-11.240,-874.220
330,64807.370000,-118.945,36.427,-88.958,-69.407,-266.939,-388.830,1103.500,129.760,-1163.220
331,64807.395000,-91.533,29.344,-71.166,-57.673,-268.014,-388.052,908.500,181.760,-1386.220
332,64807.412000,-73.912,23.273,-57.328,-33.185,-267.268,-390.455,691.500,125.760,-1571.220
333,64807.430000,-69.017,17.202,-47.444,-22.352,-267.362,-394.584,459.500,59.760,-1745.220
334,64807.450000,-58.249,5.059,-41.514,-3.779,-265.596,-394.915,188.500,89.760,-1878.220
335,64807.468000,-50.417,1.012,-37.560,12.890,-265.745,-397.179,-98.500,156.760,-2001.220
336,64807.501000,-36.711,1.012,-31.629,26.587,-256.191,-402.354,-245.500,205.760,-2075.220
337,64807.533000,-18.111,10.119,-27.676,27.616,-254.261,-406.313,-566.500,337.760,-2248.220
338,64807.552000,5.384,21.249,-31.629,31.502,-243.651,-410.332,-914.500,499.760,-2401.220
339,64807.555000,35.732,33.391,-44.479,38.330,-228.228,-417.362,-1271.500,560.760,-2504.220
340,64807.577000,59.228,55.652,-70.178,32.528,-226.235,-422.184,-1625.500,493.760,-2579.220
341,64807.599000,65.101,83.984,-117.622,21.770,-213.554,-428.899,-1890.500,351.760,-2588.220
342,64807.620000,87.618,97.138,-174.950,28.593,-210.714,-429.023,-2006.500,284.760,-2550.220
343,64807.642000,106.218,111.304,-243.151,6.077,-205.671,-430.600,-2039.500,-61.240,-2509.220
344,64807.660000,80.765,124.459,-326.178,-3.768,-206.553,-426.487,-1952.500,-313.240,-2463.220
345,64807.682000,57.270,130.530,-407.228,-4.736,-213.319,-423.508,-1894.500,-552.240,-2457.220
346,64807.702000,47.480,140.648,-480.371,-19.464,-218.996,-417.335,-1734.500,-475.240,-2473.220
347,64807.711000,32.795,154.814,-480.371,-12.579,-222.927,-417.452,-1380.500,-387.240,-2510.220
348,64807.750000,17.132,166.957,-480.371,-4.821,-221.067,-414.638,-878.500,-147.240,-2484.220
349,64807.760000,42.585,168.980,-480.371,-5.668,-225.890,-419.539,-342.500,210.760,-2426.220
350,64807.780000,67.059,165.945,-480.371,15.840,-218.344,-422.882,233.500,399.760,-2318.220
351,64807.802000,96.428,156.838,-480.371,33.468,-210.760,-428.125,769.500,409.760,-2135.220
352,64807.822000,116.987,153.802,-480.371,61.765,-206.183,-426.662,1226.500,364.760,-1900.220
353,64807.840000,132.650,142.672,-454.672,83.290,-200.571,-430.003,1423.500,361.760,-1773.220
354,64807.861000,175.725,129.518,-407.228,119.441,-195.096,-430.649,1737.500,258.760,-1539.220
355,64807.885000,175.725,123.447,-362.749,162.322,-195.497,-421.563,1958.500,-118.240,-1331.220
356,64807.912000,155.166,109.281,-322.224,180.730,-188.901,-415.005,2131.500,-189.240,-1063.220
357,64807.945000,172.788,97.138,-282.687,221.522,-184.452,-400.965,2264.500,-10.240,-737.220
358,64807.963000,193.346,82.972,-239.197,247.803,-184.700,-393.554,2330.500,-102.240,-410.220
359,64807.981000,202.157,69.818,-210.533,286.659,-191.848,-374.544,2328.500,-312.240,-71.220
360,64807.998000,197.262,51.605,-172.973,298.194,-193.902,-361.948,2289.500,-444.240,292.780
361,64808.7000,190.409,29.344,-144.309,324.262,-206.745,-335.814,2221.500,-398.240,658.780
362,64808.28000,186.493,4.047,-111.691,349.377,-220.545,-310.646,2184.500,-342.240,824.780
363,64808.58000,178.662,-21.249,-84.015,346.288,-228.270,-297.785,2077.500,-214.240,1169.780
364,64808.77000,174.746,-42.498,-55.351,356.788,-246.773,-273.337,1934.500,-109.240,1510.780
365,64808.97000,174.746,-59.700,-28.664,361.692,-259.400,-267.503,1713.500,-179.240,1831.780
366,64808.122000,162.998,-76.901,2.965,355.655,-286.457,-243.737,1435.500,-349.240,2105.780
367,64808.137000,143.419,-86.008,27.676,339.977,-302.770,-233.596,1045.500,-575.240,2355.780
368,64808.157000,106.218,-95.115,41.514,319.402,-333.558,-215.476,620.500,-759.240,2485.780
369,64808.177000,68.038,-106.245,55.351,311.704,-366.388,-205.457,123.500,-782.240,2465.780
370,64808.195000,39.648,-95.115,55.351,275.572,-377.670,-202.836,-362.500,-737.240,2351.780
371,64808.215000,10.279,-76.901,48.432,239.476,-396.693,-198.237,-576.500,-568.240,2265.780
372,64808.242000,-11.258,-54.640,34.595,216.134,-406.150,-200.766,-963.500,-287.240,2099.780
373,64808.257000,-25.943,-30.356,14.826,174.338,-415.431,-210.845,-1262.500,89.760,1945.780
374,64808.280000,-37.690,-8.095,-3.954,154.984,-414.273,-223.302,-1494.500,658.760,1797.780
375,64808.302000,-36.711,14.166,-38.548,114.214,-406.138,-245.232,-1743.500,1267.760,1686.780
376,64808.320000,-8.321,40.474,-91.923,99.769,-403.087,-259.747,-1996.500,1515.760,1591.780
377,64808.342000,11.258,68.806,-148.263,53.057,-387.159,-281.582,-2227.500,1408.760,1515.780
378,64808.377000,14.195,106.245,-227.336,12.200,-375.157,-300.562,-2361.500,1190.760,1425.780
379,64808.386000,20.069,142.672,-318.270,-19.114,-365.194,-304.942,-2372.500,1093.760,1371.780
380,64808.415000,-19.090,171.004,-412.170,-53.365,-351.332,-311.243,-2156.500,952.760,1367.780
381,64808.425000,-52.375,173.028,-465.544,-69.976,-340.532,-317.853,-1772.500,1305.760,1483.780
382,64808.447000,-18.111,176.063,-480.371,-106.212,-316.007,-328.070,-1406.500,1455.760,1676.780
383,64808.467000,29.859,184.158,-480.371,-124.866,-309.066,-327.748,-971.500,684.760,1904.780
384,64808.485000,-1.468,189.217,-480.371,-154.336,-298.159,-326.255,-439.500,-22.240,2151.780
385,64808.501000,-58.249,197.312,-480.371,-170.158,-289.315,-321.063,114.500,-252.240,2366.780
386,64808.522000,-87.618,191.241,-480.371,-179.978,-287.292,-319.907,631.500,-452.240,2431.780
387,64808.548000,-102.302,185.170,-480.371,-190.864,-281.394,-315.784,1128.500,-819.240,2370.780
388,64808.557000,-144.398,183.146,-466.533,-190.838,-282.360,-316.767,1370.500,-933.240,2327.780
389,64808.583000,-212.925,168.980,-371.645,-190.768,-284.292,-319.720,1815.500,-830.240,2205.780
390,64808.601000,-209.989,144.696,-334.085,-191.767,-274.605,-323.651,2113.500,-501.240,1974.780
391,64808.623000,-212.925,121.423,-287.629,-179.826,-273.733,-335.677,2261.500,-301.240,1594.780
392,64808.646000,-225.652,83.984,-242.162,-168.016,-269.964,-341.797,2280.500,-112.240,1122.780
393,64808.668000,-218.799,58.688,-212.510,-144.290,-270.164,-355.999,2176.500,93.760,619.780
394,64808.691000,-209.989,37.439,-177.915,-118.685,-269.418,-366.297,2036.500,158.760,84.780
395,64808.711000,-187.472,27.320,-140.355,-109.792,-269.493,-371.377,1829.500,155.760,-445.220
396,64808.733000,-170.830,27.320,-109.714,-81.268,-272.647,-378.769,1600.500,138.760,-929.220
397,64808.753000,-141.461,24.285,-88.958,-65.578,-270.851,-382.002,1477.500,160.760,-1130.220
398,64808.773000,-113.071,17.202,-62.270,-34.127,-273.064,-389.447,1226.500,244.760,-1451.220
399,64808.796000,-86.639,11.130,-39.537,-18.411,-274.171,-392.677,964.500,311.760,-1707.220
400,64808.823000,-58.249,7.083,-15.815,11.973,-268.636,-399.128,676.500,305.760,-1917.220
401,64808.852000,-43.564,5.059,3.954,36.339,-265.961,-395.624,362.500,234.760,-2091.220
402,64808.861000,-35.732,2.024,23.722,43.247,-257.308,-403.632,36.500,246.760,-2194.220
403,64808.876000,-22.027,1.012,38.548,55.004,-247.735,-409.758,-331.500,386.760,-2249.220
404,64808.906000,-10.279,6.071,35.583,63.774,-240.074,-411.891,-781.500,427.760,-2337.220
405,64808.921000,-1.468,13.154,21.745,70.629,-227.553,-418.919,-1022.500,391.760,-2409.220
406,64808.941000,7.342,25.296,-13.838,62.825,-222.641,-422.724,-1513.500,228.760,-2593.220
407,64808.963000,12.237,64.759,-68.201,55.004,-215.794,-426.531,-1986.500,25.760,-2780.220
408,64808.981000,17.132,109.281,-152.216,50.155,-214.780,-429.400,-2284.500,-170.240,-2966.220
409,64809.12000,25.943,131.542,-248.093,37.391,-213.698,-427.207,-2366.500,-379.240,-3161.220
410,64809.27000,22.027,150.767,-334.085,26.611,-215.537,-425.045,-2322.500,-562.240,-3360.220
411,64809.55000,10.279,173.028,-424.031,24.688,-213.582,-427.967,-2189.500,-414.240,-3472.220
412,64809.70000,3.426,212.490,-480.371,22.722,-210.661,-428.920,-1819.500,115.760,-3490.220
413,64809.78000,34.753,229.692,-480.371,15.836,-202.857,-430.776,-1226.500,806.760,-3361.220
414,64809.101000,113.071,218.561,-480.371,31.461,-184.611,-438.949,-900.500,996.760,-3242.220
415,64809.123000,176.704,201.360,-480.371,38.308,-174.995,-444.004,-242.500,830.760,-2951.220
416,64809.146000,186.493,181.123,-480.371,63.738,-166.515,-448.402,372.500,356.760,-2580.220
417,64809.161000,193.346,165.945,-480.371,92.069,-160.001,-449.895,930.500,218.760,-2197.220
418,64809.183000,224.673,160.885,-480.371,107.620,-154.341,-447.223,1440.500,169.760,-1849.220
419,64809.206000,229.568,151.779,-480.371,151.486,-149.912,-441.113,1885.500,59.760,-1510.220
420,64809.235000,237.400,143.684,-431.938,168.941,-142.337,-436.509,2249.500,92.760,-1115.220
421,64809.252000,238.379,132.553,-366.703,209.830,-140.787,-426.405,2517.500,117.760,-674.220
422,64809.266000,245.231,118.387,-308.386,237.998,-137.185,-417.063,2619.500,99.760,-223.220
423,64809.298000,246.210,102.198,-245.127,276.766,-140.466,-395.103,2746.500,-81.240,-11.220
424,64809.302000,240.337,89.043,-193.730,318.368,-151.522,-363.339,2747.500,-387.240,389.780
425,64809.324000,215.862,68.806,-141.344,332.882,-156.504,-351.776,2697.500,-695.240,739.780
426,64809.346000,187.472,28.332,-104.772,359.905,-180.004,-318.756,2587.500,-795.240,1025.780
427,64809.368000,171.809,-5.059,-68.201,375.313,-190.807,-299.327,2442.500,-705.240,1254.780
428,64809.391000,162.019,-31.368,-32.618,387.755,-217.072,-269.982,2246.500,-586.240,1462.780
429,64809.413000,154.187,-60.711,-4.942,390.477,-229.694,-251.311,1994.500,-473.240,1652.780
430,64809.431000,151.250,-81.960,16.803,392.251,-258.759,-225.713,1691.500,-375.240,1821.780
431,64809.453000,153.208,-105.233,38.548,387.205,-268.402,-211.830,1515.500,-361.240,1908.780
432,64809.476000,140.482,-117.375,53.375,376.424,-298.310,-194.868,1109.500,-429.240,2098.780
433,64809.491000,109.155,-117.375,58.317,352.991,-328.099,-181.621,710.500,-474.240,2267.780
434,64809.516000,83.702,-115.352,69.189,343.271,-346.397,-175.521,302.500,-393.240,2386.780
435,64809.530000,68.038,-114.340,72.154,310.260,-374.149,-174.904,-168.500,-318.240,2417.780
436,64809.550000,55.312,-101.186,63.259,285.921,-379.727,-178.405,-648.500,-206.240,2402.780
437,64809.563000,40.627,-74.877,52.386,245.115,-399.663,-183.566,-1093.500,-101.240,2357.780
438,64809.586000,20.069,-46.545,34.595,225.677,-408.189,-186.166,-1492.500,80.760,2269.780
439,64809.618000,1.468,-7.083,8.896,181.101,-415.498,-206.042,-1818.500,446.760,2147.780
440,64809.651000,-2.447,20.237,-18.780,132.644,-418.898,-229.792,-1982.500,660.760,2083.780
441,64809.665000,12.237,60.711,-59.305,101.487,-414.733,-240.075,-2299.500,968.760,1926.780
442,64809.678000,4.405,105.233,-113.668,53.868,-406.536,-261.884,-2463.500,1105.760,1765.780
443,64809.707000,-0.489,138.625,-174.950,32.442,-396.655,-272.346,-2630.500,1297.760,1669.780
444,64809.713000,6.363,180.111,-270.826,-18.322,-380.699,-286.233,-2694.500,1210.760,1599.780
445,64809.741000,-15.174,203.383,-364.726,-43.704,-373.690,-292.683,-2550.500,1036.760,1545.780
446,64809.758000,-31.816,223.621,-438.857,-84.822,-357.831,-298.866,-2262.500,1154.760,1454.780
447,64809.778000,-43.564,240.822,-480.371,-109.265,-333.409,-312.244,-1812.500,1379.760,1500.780
448,64809.806000,-36.711,229.692,-480.371,-141.706,-316.670,-311.690,-1327.500,1524.760,1696.780
449,64809.821000,-9.300,237.787,-480.371,-173.127,-295.097,-316.081,-1049.500,1502.760,1842.780
450,64809.841000,23.985,228.680,-480.371,-177.044,-281.511,-322.919,-506.500,892.760,2218.780
451,64809.866000,23.006,233.739,-480.371,-202.687,-270.644,-316.571,78.500,-164.240,2569.780
452,64809.890000,-28.880,245.881,-480.371,-209.606,-268.650,-313.498,721.500,-939.240,2808.780
453,64809.903000,-103.281,252.964,-480.371,-227.325,-260.753,-311.225,1322.500,-1100.240,2892.780
454,64809.923000,-148.314,242.846,-480.371,-230.287,-257.824,-311.176,1820.500,-877.240,2788.780
455,64809.946000,-180.620,229.692,-429.961,-227.233,-248.165,-323.055,2201.500,-514.240,2562.780
456,64809.963000,-194.325,173.028,-319.259,-208.444,-241.547,-338.162,2435.500,-206.240,2234.780
457,64809.983000,-191.388,124.459,-270.826,-205.380,-236.727,-348.066,2483.500,-102.240,2058.780
458,64810.20000,-184.535,105.233,-243.151,-188.610,-227.192,-361.172,2422.500,-57.240,1640.780
459,64810.49000,-204.115,77.913,-205.591,-181.613,-228.214,-369.170,2356.500,-290.240,1109.780
460,64810.51000,-231.526,50.593,-170.008,-157.938,-232.288,-378.444,2230.500,-450.240,455.780
461,64810.72000,-241.315,39.462,-142.332,-134.323,-237.334,-383.778,2021.500,-398.240,-251.220
462,64810.92000,-216.841,41.486,-113.668,-108.716,-246.267,-389.143,1789.500,-165.240,-892.220
463,64810.110000,-193.346,47.557,-82.039,-93.960,-247.364,-393.341,1541.500,31.760,-1422.220
464,64810.126000,-161.040,56.664,-53.375,-64.501,-249.561,-398.782,1304.500,244.760,-1816.220
465,64810.156000,-124.818,54.640,-26.687,-25.232,-248.941,-407.353,1084.500,409.760,-2101.220
466,64810.175000,-87.618,48.569,-4.942,-14.522,-241.299,-408.536,945.500,426.760,-2228.220
467,64810.193000,-64.122,44.522,9.884,24.634,-239.718,-411.199,641.500,329.760,-2487.220
468,64810.216000,-60.207,33.391,23.722,36.453,-234.981,-418.305,320.500,263.760,-2685.220
469,64810.233000,-34.753,29.344,35.583,58.955,-225.507,-423.637,-47.500,440.760,-2780.220
470,64810.256000,-13.216,30.356,35.583,61.837,-215.858,-425.668,-437.500,560.760,-2863.220
471,64810.276000,13.216,42.498,27.676,72.622,-199.500,-435.722,-885.500,581.760,-2975.220
472,64810.297000,40.627,56.664,4.942,79.406,-181.176,-441.771,-1355.500,422.760,-3125.220
473,64810.311000,53.354,73.866,-46.456,73.507,-174.348,-443.643,-1787.500,60.760,-3238.220
474,64810.352000,72.933,109.281,-126.517,55.868,-171.286,-443.335,-2056.500,-138.240,-3347.220
475,64810.366000,74.891,132.553,-216.463,51.045,-173.173,-446.200,-2090.500,-512.240,-3398.220
476,64810.380000,81.744,146.719,-313.328,43.227,-177.941,-444.088,-2082.500,-742.240,-3475.220
477,64810.402000,101.323,162.909,-439.846,33.451,-178.820,-443.914,-2010.500,-736.240,-3533.220
478,64810.420000,72.933,203.383,-480.371,35.461,-184.642,-443.942,-1693.500,-579.240,-3538.220
479,64810.440000,82.723,222.609,-480.371,31.466,-170.092,-446.842,-1108.500,309.760,-3348.220
480,64810.457000,164.956,205.407,-480.371,45.145,-160.539,-451.033,-401.500,1027.760,-2987.220
481,64810.477000,254.042,177.075,-480.371,64.606,-143.301,-454.351,232.500,690.760,-2624.220
482,64810.499000,280.474,156.838,-480.371,68.555,-143.334,-456.390,742.500,-209.240,-2335.220
483,64810.518000,235.442,147.731,-480.371,94.862,-144.549,-449.962,978.500,-473.240,-2189.220
484,64810.541000,209.989,137.613,-480.371,120.286,-144.781,-449.428,1463.500,-263.240,-1832.220
485,64810.562000,269.706,129.518,-476.417,153.334,-128.642,-446.093,1907.500,191.760,-1440.220
486,64810.584000,298.096,121.423,-417.112,179.667,-130.823,-440.650,2260.500,-52.240,-1045.220
487,64810.606000,279.495,112.316,-359.784,224.410,-134.151,-424.702,2493.500,-370.240,-636.220
488,64810.623000,261.874,106.245,-292.571,268.080,-138.443,-402.827,2648.500,-451.240,-197.220
489,64810.641000,262.853,100.174,-224.371,282.550,-138.588,-391.270,2707.500,-612.240,265.780
490,64810.668000,246.210,73.866,-166.054,318.353,-159.266,-358.407,2674.500,-916.240,670.780
491,64810.682000,215.862,38.451,-109.714,338.758,-173.979,-343.000,2571.500,-1083.240,990.780
492,64810.711000,193.346,9.107,-60.293,366.769,-202.327,-308.022,2501.500,-1078.240,1134.780
493,64810.730000,181.598,-15.178,-19.768,377.215,-213.090,-284.567,2316.500,-1046.240,1388.780
494,64810.750000,165.935,-45.534,12.849,374.037,-245.018,-253.956,2083.500,-983.240,1609.780
495,64810.770000,161.040,-67.794,39.537,378.713,-277.983,-224.466,1779.500,-921.240,1798.780
496,64810.787000,152.229,-89.043,66.224,370.767,-291.469,-210.527,1417.500,-926.240,1960.780
497,64810.810000,130.692,-99.162,82.039,357.942,-323.301,-187.621,986.500,-844.240,2105.780
498,64810.830000,106.218,-113.328,84.015,348.153,-337.730,-179.555,531.500,-616.240,2218.780
499,64810.853000,98.386,-111.304,81.050,324.832,-368.481,-172.215,67.500,-432.240,2341.780
500,64810.877000,94.470,-102.198,76.108,297.488,-374.036,-171.725,-406.500,-410.240,2430.780
501,64810.892000,84.681,-82.972,68.201,258.553,-397.866,-170.024,-650.500,-390.240,2449.780
502,64810.910000,73.912,-55.652,51.398,245.189,-419.017,-177.638,-1135.500,-312.240,2482.780
503,64810.937000,60.207,-15.178,29.653,189.563,-425.277,-181.569,-1592.500,-187.240,2497.780
504,64810.952000,48.459,26.308,-4.942,138.978,-432.540,-193.463,-2006.500,-17.240,2477.780
505,64810.985000,38.669,90.055,-60.293,107.788,-436.120,-197.830,-2261.500,120.760,2435.780
506,64811.4000,14.195,140.648,-118.610,50.274,-436.551,-208.625,-2287.500,442.760,2400.780
507,64811.22000,-12.237,172.016,-183.846,24.962,-431.473,-218.028,-2311.500,802.760,2482.780
508,64811.45000,-26.922,206.419,-274.780,-27.786,-414.533,-230.897,-2198.500,825.760,2541.780
509,64811.65000,-57.270,234.751,-373.622,-59.089,-413.280,-231.329,-2070.500,738.760,2566.780
510,64811.85000,-89.576,262.071,-480.371,-108.095,-400.257,-232.446,-1718.500,537.760,2595.780
511,64811.97000,-159.082,284.332,-480.371,-148.348,-381.510,-233.725,-1094.500,389.760,2693.780
512,64811.117000,-245.231,275.225,-480.371,-174.875,-365.789,-235.243,-329.500,708.760,2808.780
513,64811.133000,-243.273,274.213,-480.371,-202.252,-343.277,-247.582,446.500,792.760,2882.780
514,64811.157000,-222.715,272.190,-480.371,-207.190,-336.460,-248.487,1172.500,243.760,2816.780
515,64811.174000,-254.042,284.332,-480.371,-222.859,-315.992,-258.079,1916.500,-262.240,2702.780
516,64811.202000,-311.801,276.237,-480.371,-220.712,-317.935,-267.959,2477.500,-144.240,2475.780
517,64811.233000,-310.822,257.012,-480.371,-221.564,-301.465,-283.714,2810.500,19.760,2190.780
518,64811.252000,-273.621,233.739,-401.297,-206.604,-290.935,-305.649,2911.500,33.760,1989.780
519,64811.271000,-260.895,183.146,-303.444,-203.505,-288.049,-316.537,2990.500,113.760,1489.780
520,64811.280000,-266.769,129.518,-233.266,-169.945,-276.720,-339.786,2907.500,433.760,894.780
521,64811.302000,-220.757,73.866,-144.309,-155.025,-278.776,-352.846,2767.500,737.760,287.780
522,64811.325000,-189.430,67.794,-100.819,-118.608,-264.574,-373.196,2580.500,860.760,-289.220
523,64811.347000,-159.082,76.901,-66.224,-99.975,-259.901,-378.453,2356.500,801.760,-744.220
524,64811.370000,-139.503,64.759,-32.618,-65.513,-255.361,-393.835,2139.500,683.760,-1054.220
525,64811.387000,-134.608,48.569,1.977,-42.887,-253.623,-402.113,1842.500,677.760,-1342.220
526,64811.407000,-109.155,29.344,34.595,-6.537,-249.105,-413.590,1445.500,716.760,-1572.220
527,64811.425000,-75.870,20.237,64.247,20.832,-236.773,-419.011,1202.500,666.760,-1685.220
528,64811.447000,-75.870,10.119,89.946,40.394,-239.855,-417.385,653.500,250.760,-1945.220
529,64811.465000,-92.512,13.154,100.819,54.108,-232.235,-422.559,56.500,-0.240,-2207.220
530,64811.492000,-96.428,27.320,99.830,59.008,-229.376,-424.617,-526.500,210.760,-2427.220
531,64811.506000,-87.618,41.486,79.073,59.012,-210.985,-434.484,-1063.500,514.760,-2673.220
532,64811.524000,-56.291,49.581,32.618,66.733,-199.447,-434.634,-1583.500,542.760,-2985.220
533,64811.547000,-2.447,53.628,-52.386,59.968,-189.701,-444.370,-2062.500,-74.240,-3414.220
534,64811.575000,30.837,78.925,-142.332,46.254,-197.321,-439.196,-2475.500,-1078.240,-3879.220
535,64811.588000,7.342,145.708,-264.896,34.480,-206.895,-432.085,-2635.500,-1525.240,-4065.220
536,64811.610000,-47.480,213.502,-373.622,31.593,-227.192,-424.135,-2717.500,-1878.240,-4325.220
537,64811.632000,-40.627,258.024,-474.440,31.524,-229.131,-419.209,-2564.500,-1270.240,-4409.220
538,64811.655000,28.880,276.237,-480.371,34.451,-228.191,-419.262,-2145.500,-332.240,-4426.220
539,64811.677000,95.449,275.225,-480.371,38.424,-225.319,-424.258,-1468.500,182.760,-4306.220
540,64811.695000,148.314,250.941,-480.371,59.896,-211.967,-428.591,-682.500,411.760,-4033.220
541,64811.712000,202.157,221.597,-480.371,75.547,-194.688,-437.749,78.500,617.760,-3581.220
542,64811.735000,245.231,202.372,-480.371,99.893,-180.398,-439.181,851.500,896.760,-2965.220
543,64811.757000,315.717,175.051,-480.371,136.871,-156.550,-440.847,1522.500,1106.760,-2230.220
544,64811.790000,364.665,145.708,-480.371,164.154,-146.159,-440.358,1829.500,1055.760,-1855.220
545,64811.818000,376.413,130.530,-427.985,212.788,-128.230,-434.348,2287.500,755.760,-1123.220
546,64811.821000,335.296,116.364,-334.085,233.163,-128.426,-424.864,2616.500,579.760,-419.220
547,64811.833000,339.212,97.138,-246.116,270.933,-118.148,-408.808,2782.500,595.760,252.780
548,64811.870000,329.423,74.877,-167.042,294.252,-119.339,-399.375,2787.500,141.760,875.780
549,64811.885000,284.390,41.486,-102.795,327.110,-137.087,-367.448,2664.500,-493.240,1333.780
550,64811.902000,254.042,5.059,-48.432,346.428,-168.252,-337.236,2445.500,-981.240,1683.780
551,64811.925000,222.715,-13.154,-7.907,357.968,-187.728,-315.759,2191.500,-1388.240,1922.780
552,64811.941000,176.704,-34.403,20.757,367.538,-228.481,-282.409,1939.500,-1487.240,2079.780
553,64811.967000,142.440,-60.711,49.421,366.461,-249.772,-265.629,1807.500,-1320.240,2138.780
554,64811.985000,128.734,-91.067,79.073,355.525,-283.561,-237.832,1462.500,-953.240,2253.780
555,64812.1000,118.945,-112.316,96.865,354.525,-301.943,-226.964,1017.500,-700.240,2353.780
556,64812.14000,118.945,-113.328,100.819,332.140,-333.673,-216.686,516.500,-648.240,2410.780
557,64812.56000,98.386,-96.126,100.819,295.995,-362.377,-204.199,6.500,-688.240,2466.780
558,64812.75000,70.975,-87.020,100.819,277.511,-373.817,-203.859,-494.500,-633.240,2486.780
559,64812.87000,50.417,-67.794,92.911,232.792,-399.525,-205.991,-1003.500,-441.240,2469.780
560,64812.110000,43.564,-43.510,83.027,210.427,-405.120,-210.511,-1503.500,-196.240,2407.780
561,64812.127000,38.669,-9.107,61.282,158.855,-415.279,-220.416,-1754.500,-87.240,2351.780
562,64812.147000,29.859,37.439,15.815,130.645,-421.787,-225.816,-2203.500,133.760,2249.780
563,64812.165000,13.216,86.008,-57.328,77.139,-421.280,-242.590,-2490.500,374.760,2201.780
564,64812.195000,12.237,133.565,-164.077,50.770,-415.229,-248.037,-2553.500,512.760,2093.780
565,64812.212000,-5.384,177.075,-256.000,-7.898,-407.918,-252.914,-2399.500,515.760,2013.780
566,64812.232000,-36.711,215.526,-349.900,-57.821,-397.786,-255.981,-2168.500,525.760,2096.780
567,64812.252000,-72.933,254.988,-447.753,-77.366,-390.832,-260.565,-1781.500,509.760,2242.780
568,64812.270000,-138.524,262.071,-480.371,-119.541,-374.000,-262.792,-1250.500,946.760,2415.780
569,64812.286000,-146.356,248.917,-480.371,-141.045,-361.220,-270.302,-740.500,1368.760,2597.780
570,64812.307000,-88.597,230.704,-480.371,-176.312,-335.737,-280.537,-490.500,1217.760,2646.780
571,64812.330000,-87.618,235.763,-480.371,-186.194,-326.942,-279.388,132.500,231.760,2697.780
572,64812.352000,-169.851,252.964,-480.371,-208.823,-315.130,-278.017,893.500,-401.240,2757.780
573,64812.375000,-232.505,269.154,-480.371,-220.500,-297.597,-290.629,1665.500,-193.240,2802.780
574,64812.407000,-239.358,271.178,-480.371,-217.463,-291.810,-299.550,2289.500,91.760,2768.780
575,64812.440000,-222.715,249.929,-470.486,-210.470,-275.410,-316.428,2713.500,67.760,2602.780
576,64812.440000,-207.052,242.846,-397.344,-208.429,-265.744,-326.320,2980.500,-114.240,2319.780
577,64812.453000,-219.778,208.443,-320.247,-188.609,-263.004,-342.425,3073.500,-189.240,1828.780
578,64812.476000,-240.337,143.684,-251.058,-173.751,-260.224,-354.505,3025.500,-136.240,1156.780
579,64812.493000,-245.231,84.996,-199.660,-147.100,-253.676,-371.720,2940.500,50.760,780.780
580,64812.527000,-234.463,40.474,-153.205,-132.189,-254.764,-384.780,2639.500,182.760,8.780
581,64812.550000,-209.010,23.273,-103.784,-96.858,-258.950,-389.338,2244.500,140.760,-695.220
582,64812.567000,-171.809,28.332,-60.293,-62.532,-262.161,-392.895,1846.500,-36.240,-1264.220
583,64812.582000,-141.461,36.427,-19.768,-38.000,-266.251,-395.293,1438.500,-180.240,-1701.220
584,64812.605000,-125.797,30.356,15.815,-8.566,-271.353,-397.777,991.500,-219.240,-2034.220
585,64812.622000,-105.239,35.415,38.548,8.053,-277.312,-394.126,509.500,-283.240,-2243.220
586,64812.645000,-68.038,26.308,59.305,36.395,-279.508,-391.672,-4.500,-415.240,-2437.220
587,64812.663000,-68.038,29.344,76.108,42.230,-275.692,-391.779,-238.500,-412.240,-2504.220
588,64812.692000,-66.080,35.415,67.212,60.865,-278.762,-393.090,-691.500,-257.240,-2587.220
589,64812.707000,-60.207,30.356,44.479,68.656,-267.221,-397.179,-1124.500,-102.240,-2693.220
590,64812.727000,-47.480,31.368,3.954,73.626,-266.293,-402.190,-1576.500,6.760,-2861.220
591,64812.745000,-26.922,46.545,-54.363,72.654,-257.572,-407.106,-2054.500,-78.240,-3080.220
592,64812.767000,-21.048,81.960,-138.378,65.752,-255.577,-405.017,-2520.500,-255.240,-3371.220
593,64812.787000,-2.447,128.506,-250.069,53.091,-252.554,-409.719,-2861.500,-485.240,-3711.220
594,64812.810000,14.195,165.945,-365.714,46.189,-246.688,-409.604,-2956.500,-771.240,-4026.220
595,64812.825000,-8.321,207.431,-474.440,46.225,-252.493,-408.613,-2771.500,-915.240,-4287.220
596,64812.850000,-65.101,247.905,-480.371,51.065,-250.605,-406.732,-2527.500,-709.240,-4337.220
597,64812.872000,2.447,257.012,-480.371,60.837,-236.176,-413.813,-1805.500,500.760,-4285.220
598,64812.888000,138.524,240.822,-480.371,83.379,-208.309,-430.980,-957.500,1501.760,-4085.220
599,64812.908000,235.442,193.265,-480.371,89.098,-189.981,-432.087,-161.500,1261.760,-3650.220
600,64812.925000,285.369,161.897,-480.371,118.449,-176.697,-439.513,464.500,423.760,-3081.220
601,64812.951000,255.021,146.719,-480.371,134.988,-175.886,-434.884,1042.500,-289.240,-2436.220
602,64812.973000,240.337,136.601,-480.371,174.922,-167.550,-429.694,1559.500,-134.240,-1869.220
603,64813.10000,265.790,127.494,-469.498,188.456,-162.844,-423.048,2019.500,273.760,-1360.220
604,64813.38000,275.579,109.281,-390.425,239.049,-150.741,-414.113,2214.500,409.760,-812.220
605,64813.47000,313.759,94.103,-307.398,277.806,-143.375,-397.087,2500.500,579.760,-529.220
606,64813.62000,316.696,78.925,-225.359,294.144,-137.735,-383.600,2632.500,164.760,43.780
607,64813.77000,282.432,52.617,-149.251,335.895,-155.558,-356.753,2650.500,-446.240,544.780
608,64813.100000,256.979,22.261,-85.992,347.467,-167.290,-341.193,2562.500,-828.240,1019.780
609,64813.120000,225.652,-8.095,-43.490,368.630,-197.511,-305.107,2389.500,-1138.240,1429.780
610,64813.142000,189.430,-27.320,-9.884,373.301,-213.054,-284.498,2197.500,-1291.240,1748.780
611,64813.151000,161.040,-50.593,18.780,375.942,-246.974,-250.049,1989.500,-1128.240,2020.780
612,64813.186000,151.250,-66.783,40.525,372.826,-283.738,-220.417,1727.500,-942.240,2265.780
613,64813.203000,135.587,-82.972,61.282,367.852,-303.057,-205.540,1567.500,-895.240,2369.780
614,64813.221000,104.260,-101.186,76.108,341.373,-339.600,-182.386,1191.500,-852.240,2519.780
615,64813.237000,69.017,-114.340,85.992,330.613,-354.988,-174.302,690.500,-786.240,2546.780
616,64813.263000,40.627,-120.411,86.981,302.331,-381.827,-164.910,106.500,-640.240,2446.780
617,64813.282000,27.901,-110.292,85.992,282.859,-394.226,-163.567,-500.500,-450.240,2272.780
618,64813.302000,23.006,-81.960,71.166,246.910,-412.272,-167.832,-1050.500,-304.240,2100.780
619,64813.323000,22.027,-50.593,43.490,226.520,-419.820,-172.385,-1502.500,-97.240,1994.780
620,64813.340000,26.922,-9.107,13.838,182.801,-425.209,-186.372,-1902.500,260.760,1987.780
621,64813.361000,53.354,46.545,-31.629,130.361,-430.514,-205.127,-2250.500,441.760,2034.780
622,64813.386000,64.122,128.506,-120.587,102.167,-429.278,-215.458,-2347.500,548.760,2062.780
623,64813.401000,23.006,177.075,-216.463,49.509,-425.883,-226.344,-2256.500,475.760,2145.780
624,64813.426000,-13.216,186.182,-283.676,29.037,-420.853,-232.879,-2041.500,705.760,2310.780
625,64813.453000,-18.111,202.372,-374.610,-23.683,-410.686,-243.772,-1805.500,834.760,2464.780
626,64813.462000,-53.354,224.632,-452.695,-51.021,-407.530,-248.214,-1473.500,709.760,2625.780
627,64813.480000,-101.323,240.822,-480.371,-97.083,-389.694,-252.342,-1043.500,843.760,2831.780
628,64813.501000,-110.134,243.858,-480.371,-143.138,-368.953,-258.443,-611.500,837.760,3063.780
629,64813.530000,-79.786,256.000,-480.371,-166.703,-358.098,-259.023,-97.500,25.760,3198.780
630,64813.551000,-137.545,269.154,-480.371,-198.295,-344.278,-249.620,230.500,-530.240,3262.780
631,64813.571000,-238.379,278.261,-480.371,-207.180,-341.299,-246.513,963.500,-1061.240,3235.780
632,64813.593000,-304.948,277.249,-480.371,-223.921,-329.538,-246.231,1666.500,-814.240,3075.780
633,64813.607000,-317.675,259.036,-480.371,-233.577,-324.603,-255.910,2214.500,-430.240,2758.780
634,64813.630000,-311.801,225.644,-460.602,-232.506,-313.959,-266.770,2600.500,-365.240,2226.780
635,64813.650000,-314.738,177.075,-387.459,-226.395,-308.192,-283.621,2777.500,-342.240,1581.780
636,64813.673000,-307.885,137.613,-309.375,-206.739,-304.493,-290.864,2790.500,-146.240,874.780
637,64813.692000,-300.054,111.304,-235.243,-186.832,-305.620,-309.920,2695.500,171.760,195.780
638,64813.715000,-270.685,96.126,-179.892,-163.149,-304.855,-322.153,2539.500,586.760,-353.220
639,64813.732000,-233.484,92.079,-134.425,-130.549,-299.323,-343.410,2444.500,783.760,-556.220
640,64813.755000,-193.346,84.996,-85.992,-114.766,-290.747,-355.513,2240.500,1086.760,-866.220
641,64813.775000,-148.314,65.771,-39.537,-77.324,-287.199,-372.915,2011.500,1153.760,-1122.220
642,64813.795000,-123.839,43.510,-9.884,-57.635,-279.627,-384.101,1704.500,1069.760,-1342.220
643,64813.820000,-100.344,38.451,9.884,-25.261,-272.173,-393.543,1364.500,854.760,-1461.220
644,64813.841000,-72.933,9.107,29.653,6.058,-265.682,-398.042,987.500,466.760,-1687.220
645,64813.855000,-74.891,-4.047,48.432,12.977,-265.740,-402.103,531.500,130.760,-1961.220
646,64813.875000,-84.681,-11.130,52.386,36.347,-261.121,-398.584,44.500,53.760,-2199.220
647,64813.897000,-82.723,-14.166,51.398,44.243,-259.252,-403.648,-425.500,98.760,-2425.220
648,64813.920000,-78.807,-6.071,49.421,62.841,-248.774,-409.896,-649.500,125.760,-2542.220
649,64813.942000,-56.291,6.071,33.606,62.848,-243.934,-412.855,-1110.500,152.760,-2779.220
650,64813.960000,-31.816,18.213,16.803,68.743,-235.275,-418.876,-1609.500,89.760,-2970.220
651,64813.998000,-16.153,41.486,-6.919,57.951,-226.467,-421.649,-2111.500,-9.240,-3112.220
652,64813.998000,1.468,70.830,-55.351,58.885,-221.639,-421.671,-2597.500,-131.240,-3232.220
653,64814.36000,29.859,158.862,-261.931,30.544,-221.379,-423.139,-2876.500,-387.240,-3421.220
654,64814.55000,23.006,172.016,-352.865,31.514,-224.292,-421.184,-2804.500,-660.240,-3635.220
655,64814.68000,15.174,184.158,-456.649,18.777,-228.049,-418.001,-2606.500,-538.240,-3759.220
656,64814.86000,-10.279,231.715,-480.371,9.936,-227.971,-415.875,-2456.500,-333.240,-3851.220
657,64814.108000,56.291,252.964,-480.371,15.883,-217.373,-425.837,-1870.500,408.760,-3854.220
658,64814.134000,155.166,224.632,-480.371,18.781,-207.723,-428.853,-1122.500,999.760,-3663.220
659,64814.149000,209.989,194.277,-480.371,38.321,-191.448,-436.109,-366.500,694.760,-3246.220
660,64814.167000,202.157,172.016,-480.371,61.795,-186.823,-438.499,305.500,139.760,-2810.220
661,64814.198000,217.820,161.897,-480.371,80.316,-183.124,-436.862,923.500,37.760,-2360.220
662,64814.202000,255.021,155.826,-480.371,117.446,-183.465,-434.565,1500.500,130.760,-1916.220
663,64814.226000,279.495,145.708,-480.371,132.979,-173.935,-432.882,1974.500,36.760,-1455.220
664,64814.243000,277.537,132.553,-408.216,174.828,-168.523,-423.785,2354.500,-60.240,-930.220
665,64814.266000,274.600,125.470,-337.050,206.996,-164.952,-419.436,2493.500,-58.240,-660.220
666,64814.283000,264.811,104.221,-268.849,243.894,-168.210,-402.364,2712.500,-57.240,-130.220
667,64814.311000,267.748,90.055,-197.683,280.698,-178.249,-376.424,2808.500,-122.240,377.780
668,64814.343000,255.021,74.877,-125.529,299.076,-189.077,-359.016,2799.500,-445.240,893.780
669,64814.362000,216.841,39.462,-79.073,330.030,-210.675,-328.036,2690.500,-845.240,1315.780
670,64814.385000,188.451,8.095,-36.571,341.524,-223.379,-307.551,2522.500,-1059.240,1636.780
671,64814.398000,155.166,-23.273,0.000,351.993,-257.370,-273.240,2309.500,-1136.240,1880.780
672,64814.416000,134.608,-53.628,30.641,352.820,-274.810,-255.514,2052.500,-1087.240,2074.780
673,64814.433000,114.050,-73.866,56.340,342.776,-308.612,-222.810,1709.500,-996.240,2196.780
674,64814.457000,87.618,-99.162,77.097,342.620,-340.562,-197.174,1500.500,-944.240,2232.780
675,64814.469000,49.438,-115.352,86.981,323.989,-354.913,-186.983,1025.500,-806.240,2222.780
676,64814.507000,34.753,-116.364,89.946,290.735,-378.808,-174.553,508.500,-517.240,2132.780
677,64814.516000,36.711,-111.304,91.923,281.048,-389.360,-174.370,-30.500,-228.240,1999.780
678,64814.533000,42.585,-100.174,85.004,247.055,-403.553,-180.643,-600.500,-93.240,1894.780
679,64814.556000,48.459,-76.901,67.212,230.527,-413.075,-181.324,-1152.500,-25.240,1840.780
680,64814.573000,63.143,-42.498,34.595,189.700,-419.461,-192.407,-1681.500,10.760,1850.780
681,64814.611000,54.333,9.107,-28.664,166.399,-422.141,-200.852,-2095.500,-34.240,1884.780
682,64814.630000,28.880,64.759,-119.598,119.639,-423.638,-210.852,-2207.500,-32.240,1933.780
683,64814.648000,26.922,117.375,-216.463,72.829,-427.074,-216.911,-2244.500,53.760,1948.780
684,64814.651000,-28.880,160.885,-326.178,51.381,-433.649,-217.508,-2017.500,24.760,1960.780
685,64814.672000,-116.008,174.040,-421.066,4.463,-421.604,-225.552,-1554.500,359.760,2155.780
686,64814.695000,-143.419,192.253,-480.371,-20.884,-418.464,-231.999,-991.500,1033.760,2480.780
687,64814.717000,-157.124,195.289,-480.371,-65.769,-399.658,-247.962,-407.500,1389.760,2797.780
688,64814.740000,-146.356,182.134,-480.371,-80.398,-387.906,-256.577,89.500,1395.760,2982.780
689,64814.762000,-124.818,180.111,-480.371,-116.476,-371.116,-271.710,515.500,827.760,2966.780
690,64814.780000,-159.082,188.206,-480.371,-137.115,-355.448,-274.316,999.500,52.760,2872.780
691,64814.802000,-235.442,199.336,-480.371,-146.874,-354.389,-276.114,1260.500,-118.240,2829.780
692,64814.825000,-287.327,194.277,-479.382,-158.560,-337.825,-287.740,1774.500,80.760,2725.780
693,64814.855000,-282.432,179.099,-430.950,-157.531,-332.024,-293.672,2122.500,331.760,2533.780
694,64814.866000,-284.390,155.826,-366.703,-155.439,-320.419,-307.505,2357.500,159.760,2162.780
695,64814.887000,-324.528,109.281,-286.641,-154.392,-314.617,-314.421,2380.500,127.760,1538.780
696,64814.905000,-337.254,68.806,-240.185,-133.612,-309.951,-330.545,2231.500,486.760,781.780
697,64814.922000,-310.822,51.605,-208.556,-130.573,-306.100,-338.479,2047.500,861.760,54.780
698,64814.970000,-255.021,49.581,-161.112,-99.974,-297.650,-358.720,1881.500,909.760,-529.220
699,64814.970000,-200.199,48.569,-114.656,-71.400,-293.057,-373.013,1709.500,828.760,-924.220
700,64814.997000,-172.788,46.545,-85.004,-48.870,-290.357,-376.368,1626.500,632.760,-1083.220
701,64815.12000,-153.208,30.356,-52.386,-16.477,-282.901,-386.795,1420.500,581.760,-1357.220
702,64815.35000,-121.881,17.202,-26.687,-6.614,-283.954,-390.906,1159.500,585.760,-1612.220
703,64815.52000,-89.576,12.142,-1.977,26.686,-274.575,-398.397,851.500,480.760,-1867.220
704,64815.72000,-73.912,-1.012,19.768,35.448,-269.818,-398.558,468.500,326.760,-2119.220
705,64815.95000,-58.249,-3.036,27.676,65.771,-263.319,-402.055,47.500,215.760,-2334.220
706,64815.115000,-54.333,-3.036,40.525,77.501,-250.844,-408.184,-380.500,210.760,-2529.220
707,64815.130000,-39.648,-2.024,46.456,88.237,-244.168,-410.351,-856.500,245.760,-2722.220
708,64815.157000,-14.195,4.047,43.490,96.054,-233.593,-415.423,-1117.500,228.760,-2813.220
709,64815.187000,7.342,18.213,26.687,87.280,-225.768,-421.184,-1698.500,84.760,-2948.220
710,64815.191000,39.648,32.379,-20.757,77.528,-221.805,-424.954,-2368.500,-301.240,-3047.220
711,64815.212000,62.164,69.818,-107.737,66.748,-223.644,-422.792,-2836.500,-1095.240,-3199.220
712,64815.235000,63.143,108.269,-239.197,50.171,-242.848,-415.585,-2894.500,-1944.240,-3386.220
713,64815.257000,37.690,111.304,-333.097,47.222,-260.244,-405.668,-2887.500,-2258.240,-3446.220
714,64815.274000,-27.901,137.613,-473.452,43.210,-281.508,-388.837,-2603.500,-1947.240,-3440.220
715,64815.295000,-126.776,192.253,-480.371,49.973,-281.575,-384.034,-1892.500,-462.240,-3432.220
716,64815.317000,-123.839,212.490,-480.371,48.030,-269.942,-390.904,-1073.500,956.760,-3419.220
717,64815.340000,-1.468,215.526,-480.371,74.486,-244.047,-407.154,-649.500,1247.760,-3372.220
718,64815.357000,108.176,185.170,-480.371,96.011,-234.563,-412.468,179.500,1048.760,-3040.220
719,64815.380000,169.851,149.755,-480.371,131.094,-221.341,-412.120,866.500,478.760,-2506.220
720,64815.407000,205.094,132.553,-480.371,142.801,-217.578,-412.331,1442.500,118.760,-1900.220
721,64815.441000,210.967,119.399,-444.788,184.666,-210.229,-405.205,1928.500,-21.240,-1400.220
722,64815.460000,217.820,103.209,-366.703,228.420,-204.838,-393.188,2260.500,-33.240,-1004.220
723,64815.462000,225.652,92.079,-281.699,255.602,-206.067,-380.869,2453.500,-42.240,-637.220
724,64815.487000,220.757,73.866,-209.544,287.493,-202.512,-360.764,2524.500,-130.240,-200.220
725,64815.512000,227.610,42.498,-142.332,309.818,-207.566,-348.355,2523.500,-178.240,28.780
726,64815.532000,215.862,10.119,-91.923,336.769,-219.455,-317.316,2459.500,-415.240,466.780
727,64815.547000,192.367,-17.202,-50.409,337.569,-230.121,-301.566,2320.500,-677.240,845.780
728,64815.564000,163.977,-45.534,-26.687,357.758,-247.750,-272.369,2150.500,-715.240,1166.780
729,64815.590000,156.145,-63.747,0.988,364.490,-261.370,-258.690,1945.500,-523.240,1448.780
730,64815.607000,154.187,-79.937,27.676,367.206,-282.703,-235.086,1684.500,-330.240,1710.780
731,64815.622000,146.356,-97.138,51.398,357.263,-308.756,-212.237,1360.500,-298.240,1968.780
732,64815.642000,134.608,-105.233,66.224,344.581,-324.125,-206.088,952.500,-391.240,2202.780
733,64815.663000,99.365,-112.316,81.050,319.139,-353.899,-189.852,487.500,-469.240,2363.780
734,64815.695000,78.807,-114.340,80.062,307.434,-361.533,-187.667,208.500,-438.240,2397.780
735,64815.715000,77.828,-100.174,72.154,273.487,-386.370,-190.975,-410.500,-327.240,2383.780
736,64815.730000,74.891,-75.889,60.293,251.132,-398.740,-192.534,-1018.500,-274.240,2308.780
737,64815.752000,78.807,-34.403,32.618,207.380,-411.874,-200.605,-1585.500,-259.240,2247.780
738,64815.767000,66.080,23.273,-16.803,151.861,-423.936,-207.484,-2030.500,-215.240,2255.780
739,64815.787000,35.732,83.984,-89.946,122.645,-427.533,-212.869,-2260.500,-66.240,2329.780
740,64815.812000,-0.489,131.542,-202.625,69.028,-431.872,-220.776,-2198.500,128.760,2427.780
741,64815.845000,-38.669,151.779,-326.178,48.531,-427.810,-225.340,-1898.500,329.760,2496.780
742,64815.863000,-73.912,175.051,-447.753,-6.204,-428.276,-227.325,-1448.500,398.760,2501.780
743,64815.882000,-145.377,212.490,-480.371,-32.643,-416.423,-231.793,-1169.500,503.760,2513.780
744,64815.888000,-201.178,212.490,-480.371,-72.608,-406.370,-244.880,-552.500,897.760,2631.780
745,64815.911000,-176.704,195.289,-480.371,-89.162,-382.985,-261.350,20.500,1312.760,2756.780
746,64815.934000,-162.998,193.265,-480.371,-120.476,-373.021,-265.730,570.500,1041.760,2795.780
747,64815.956000,-179.641,191.241,-480.371,-141.999,-356.371,-274.229,1076.500,529.760,2740.780
748,64815.978000,-198.241,194.277,-480.371,-146.850,-347.613,-281.044,1509.500,136.760,2635.780
749,64816.1000,-224.673,206.419,-480.371,-158.525,-339.759,-288.723,1888.500,-170.240,2524.780
750,64816.21000,-267.748,200.348,-408.216,-167.314,-337.742,-290.539,2240.500,-245.240,2292.780
751,64816.38000,-307.885,159.874,-324.201,-156.440,-332.994,-299.597,2364.500,-141.240,2121.780
752,64816.61000,-325.507,104.221,-275.768,-150.476,-324.331,-309.557,2392.500,209.760,1594.780
753,64816.78000,-309.843,68.806,-229.313,-137.584,-316.694,-323.576,2285.500,441.760,879.780
754,64816.101000,-291.243,43.510,-185.822,-113.893,-314.960,-336.795,2087.500,461.760,87.780
755,64816.116000,-248.168,63.747,-151.228,-103.000,-317.954,-342.891,1846.500,354.760,-525.220
756,64816.143000,-216.841,68.806,-116.633,-67.679,-317.301,-349.424,1680.500,157.760,-908.220
757,64816.165000,-201.178,55.652,-85.004,-54.872,-319.348,-353.586,1474.500,176.760,-1211.220
758,64816.197000,-166.914,35.415,-55.351,-26.435,-316.699,-359.014,1219.500,262.760,-1469.220
759,64816.200000,-118.945,14.166,-26.687,-6.796,-316.873,-363.299,894.500,101.760,-1741.220
760,64816.221000,-85.660,2.024,2.965,24.472,-316.192,-361.884,705.500,-42.240,-1873.220
761,64816.238000,-77.828,-9.107,21.745,43.081,-318.296,-362.211,316.500,-305.240,-2073.220
762,64816.261000,-75.870,-10.119,33.606,66.504,-319.481,-358.686,-82.500,-241.240,-2174.220
763,64816.281000,-60.207,-8.095,49.421,76.279,-312.795,-361.820,-454.500,86.760,-2227.220
764,64816.303000,-29.859,-14.166,57.328,83.118,-304.147,-365.889,-879.500,338.760,-2290.220
765,64816.322000,-3.426,-16.190,44.479,88.085,-293.540,-375.834,-1405.500,278.760,-2385.220
766,64816.343000,9.300,-11.130,2.965,96.951,-288.777,-381.903,-1980.500,-72.240,-2481.220
767,64816.366000,17.132,7.083,-62.270,84.221,-283.822,-383.653,-2460.500,-637.240,-2615.220
768,64816.386000,15.174,41.486,-153.205,76.404,-292.462,-379.567,-2618.500,-1000.240,-2723.220
769,64816.406000,-6.363,73.866,-240.185,71.461,-300.163,-372.579,-2763.500,-1594.240,-2981.220
770,64816.426000,-48.459,104.221,-333.097,63.559,-312.679,-361.595,-2746.500,-1621.240,-3123.220
771,64816.443000,-116.008,147.731,-431.938,70.372,-308.872,-361.720,-2534.500,-852.240,-3155.220
772,64816.466000,-117.966,176.063,-480.371,77.305,-297.315,-372.686,-2091.500,267.760,-3172.220
773,64816.492000,-43.564,175.051,-480.371,77.329,-288.602,-378.603,-1451.500,785.760,-3125.220
774,64816.515000,24.964,161.897,-480.371,93.994,-273.265,-388.760,-803.500,694.760,-2997.220
775,64816.537000,52.375,140.648,-480.371,107.672,-259.840,-394.925,-200.500,543.760,-2800.220
776,64816.552000,74.891,125.470,-480.371,134.027,-245.565,-399.346,365.500,485.760,-2606.220
777,64816.577000,108.176,112.316,-480.371,170.054,-228.482,-399.019,631.500,452.760,-2514.220
778,64816.605000,143.419,109.281,-480.371,190.478,-217.061,-398.409,1125.500,379.760,-2345.220
779,64816.618000,155.166,100.174,-480.371,226.436,-199.982,-394.143,1538.500,527.760,-2004.220
780,64816.646000,197.262,94.103,-428.973,247.796,-189.540,-390.595,1928.500,678.760,-1424.220
781,64816.660000,230.547,84.996,-351.876,293.402,-180.301,-374.677,2215.500,552.760,-733.220
782,64816.693000,246.210,71.842,-276.757,305.904,-173.654,-366.046,2363.500,263.760,-81.220
783,64816.707000,247.189,51.605,-199.660,338.828,-179.783,-343.979,2377.500,-106.240,441.780
784,64816.716000,239.358,15.178,-138.378,340.553,-186.589,-327.266,2265.500,-533.240,855.780
785,64816.732000,234.463,-14.166,-83.027,365.637,-210.070,-295.195,2083.500,-787.240,1167.780
786,64816.756000,198.241,-34.403,-42.502,377.091,-237.295,-264.848,1986.500,-1082.240,1309.780
787,64816.773000,156.145,-76.901,8.896,376.956,-248.917,-251.049,1764.500,-959.240,1580.780
788,64816.803000,148.314,-91.067,29.653,372.869,-280.832,-224.359,1502.500,-796.240,1850.780
789,64816.820000,136.566,-96.126,36.571,367.850,-295.313,-209.487,1170.500,-738.240,2082.780
790,64816.841000,119.924,-99.162,38.548,354.151,-329.066,-191.485,823.500,-703.240,2291.780
791,64816.863000,98.386,-98.150,31.629,332.689,-343.385,-187.151,455.500,-621.240,2466.780
792,64816.881000,91.533,-87.020,27.676,301.453,-372.133,-175.735,68.500,-432.240,2608.780
793,64816.898000,79.786,-72.854,15.815,263.558,-396.936,-177.005,-325.500,-302.240,2735.780
794,64816.921000,67.059,-50.593,0.000,243.142,-407.389,-178.600,-523.500,-253.240,2791.780
795,64816.942000,59.228,-18.213,-22.734,189.529,-427.214,-178.613,-915.500,-191.240,2889.780
796,64816.963000,40.627,16.190,-56.340,161.354,-435.656,-184.996,-1302.500,-169.240,2930.780
797,64816.986000,16.153,53.628,-93.900,103.816,-446.735,-188.887,-1605.500,-134.240,2890.780
798,64817.8000,-9.300,94.103,-133.436,74.513,-444.529,-192.309,-1789.500,19.760,2780.780
799,64817.26000,-43.564,133.565,-185.822,18.878,-444.015,-199.201,-1836.500,266.760,2624.780
800,64817.48000,-62.164,159.874,-245.127,-33.877,-435.786,-207.137,-1796.500,653.760,2507.780
801,64817.76000,-71.954,183.146,-327.166,-56.314,-431.706,-212.652,-1774.500,768.760,2470.780
802,64817.105000,-120.902,214.514,-423.042,-102.402,-416.775,-213.823,-1549.500,641.760,2421.780
803,64817.113000,-187.472,229.692,-480.371,-126.937,-401.070,-217.345,-1353.500,707.760,2360.780
804,64817.131000,-220.757,221.597,-480.371,-167.996,-380.368,-229.440,-872.500,1118.760,2242.780
805,64817.155000,-197.262,228.680,-480.371,-170.917,-366.790,-237.280,-383.500,1546.760,2124.780
806,64817.172000,-180.620,235.763,-480.371,-193.377,-341.417,-252.664,230.500,1420.760,2141.780
807,64817.195000,-177.683,250.941,-480.371,-200.116,-334.573,-262.397,903.500,885.760,2234.780
808,64817.217000,-175.725,275.225,-480.371,-210.814,-317.050,-275.026,1529.500,233.760,2365.780
809,64817.234000,-219.778,275.225,-480.371,-219.589,-305.353,-282.760,2132.500,-480.240,2341.780
810,64817.250000,-298.096,253.976,-437.869,-221.477,-303.395,-287.652,2595.500,-742.240,2002.780
811,64817.263000,-344.107,189.217,-341.992,-206.620,-296.743,-301.705,2778.500,-605.240,1447.780
812,64817.288000,-330.402,114.340,-275.768,-190.765,-297.842,-312.813,2752.500,27.760,1122.780
813,64817.308000,-275.579,81.960,-215.475,-163.067,-289.363,-334.971,2635.500,568.760,376.780
814,64817.336000,-234.463,71.842,-160.124,-150.217,-286.568,-344.061,2471.500,781.760,-303.220
815,64817.356000,-189.430,72.854,-116.633,-113.712,-282.041,-364.402,2289.500,898.760,-814.220
816,64817.378000,-160.061,87.020,-84.015,-71.431,-274.669,-380.910,2105.500,990.760,-1103.220
817,64817.397000,-128.734,74.877,-50.409,-50.780,-269.042,-390.142,1951.500,1077.760,-1225.220
818,64817.413000,-86.639,40.474,-16.803,-18.328,-258.680,-405.495,1688.500,942.760,-1376.220
819,64817.436000,-47.480,7.083,14.826,2.211,-257.899,-405.859,1287.500,401.760,-1603.220
820,64817.476000,-36.711,-8.095,36.571,27.687,-258.129,-408.278,1038.500,37.760,-1733.220
821,64817.490000,-64.122,-12.142,49.421,39.393,-256.301,-407.503,515.500,-469.240,-1984.220
822,64817.503000,-80.765,-12.142,54.363,59.873,-256.492,-403.928,7.500,-404.240,-2189.220
823,64817.526000,-59.228,-5.059,52.386,67.736,-258.497,-405.049,-494.500,-131.240,-2347.220
824,64817.543000,-41.606,-11.130,42.502,75.553,-249.858,-409.135,-1008.500,-92.240,-2484.220
825,64817.561000,-22.027,-5.059,17.792,77.509,-247.940,-410.156,-1560.500,-345.240,-2679.220
826,64817.588000,-13.216,18.213,-38.548,69.726,-252.706,-410.013,-2038.500,-827.240,-2886.220
827,64817.611000,-27.901,56.664,-137.390,62.843,-256.517,-405.949,-2377.500,-1130.240,-3064.220
828,64817.614000,-36.711,98.150,-247.104,67.632,-258.503,-399.140,-2414.500,-1055.240,-3241.220
829,64817.637000,-54.333,118.387,-335.073,54.990,-259.351,-402.853,-2415.500,-831.240,-3286.220
830,64817.660000,-44.543,165.945,-442.811,57.969,-260.343,-404.874,-2168.500,-178.240,-3422.220
831,64817.687000,0.489,183.146,-480.371,66.762,-242.034,-413.911,-1602.500,549.760,-3490.220
832,64817.707000,84.681,163.921,-480.371,83.365,-221.861,-423.088,-960.500,870.760,-3390.220
833,64817.722000,148.314,149.755,-480.371,86.194,-210.279,-423.152,-298.500,626.760,-3106.220
834,64817.740000,189.430,133.565,-480.371,114.558,-199.890,-428.588,308.500,270.760,-2747.220
835,64817.762000,203.136,115.352,-480.371,132.118,-196.182,-427.919,900.500,127.760,-2374.220
836,64817.801000,225.652,103.209,-480.371,166.180,-180.049,-426.571,1430.500,122.760,-2002.220
837,64817.814000,246.210,86.008,-480.371,183.706,-178.278,-422.946,1861.500,96.760,-1608.220
838,64817.831000,266.769,81.960,-456.649,223.520,-173.821,-408.889,2038.500,-108.240,-1389.220
839,64817.858000,261.874,78.925,-372.633,268.193,-173.281,-390.975,2305.500,-311.240,-932.220
840,64817.873000,252.084,68.806,-285.652,287.486,-175.411,-374.578,2458.500,-401.240,-431.220
841,64817.906000,252.084,59.700,-211.521,320.419,-182.507,-352.510,2493.500,-561.240,78.780
842,64817.925000,249.147,29.344,-143.320,336.867,-198.156,-334.078,2402.500,-828.240,519.780
843,64817.925000,229.568,-2.024,-85.992,359.906,-217.752,-299.022,2222.500,-1065.240,882.780
844,64817.943000,209.989,-30.356,-38.548,364.628,-225.550,-285.314,2019.500,-1139.240,1165.780
845,64817.971000,198.241,-56.664,-4.942,373.026,-252.754,-248.022,1767.500,-1117.240,1394.780
846,64817.986000,176.704,-72.854,21.745,376.883,-269.247,-236.258,1631.500,-1048.240,1611.780
847,64818.7000,154.187,-96.126,40.525,370.838,-299.209,-210.520,1309.500,-804.240,1720.780
848,64818.40000,135.587,-112.316,56.340,354.141,-324.227,-193.459,933.500,-598.240,1932.780
849,64818.55000,122.860,-117.375,64.247,342.428,-336.701,-188.315,540.500,-467.240,2149.780
850,64818.80000,113.071,-116.364,70.178,313.211,-364.496,-180.875,122.500,-459.240,2296.780
851,64818.95000,81.744,-87.020,50.409,294.691,-374.001,-179.551,-305.500,-371.240,2410.780
852,64818.112000,75.870,-61.723,30.641,259.748,-398.831,-181.857,-692.500,-214.240,2534.780
853,64818.128000,71.954,-35.415,9.884,230.535,-410.171,-183.296,-1086.500,-135.240,2614.780
854,64818.156000,52.375,2.024,-30.641,183.830,-421.344,-191.317,-1475.500,-91.240,2632.780
855,64818.173000,24.964,47.557,-91.923,133.228,-432.480,-200.253,-1653.500,-11.240,2637.780
856,64818.201000,15.174,75.889,-157.158,99.120,-434.097,-206.539,-1864.500,257.760,2606.780
857,64818.224000,26.922,109.281,-238.208,46.531,-428.763,-222.350,-2021.500,673.760,2344.780
858,64818.238000,-3.426,159.874,-356.819,27.089,-421.802,-232.844,-2152.500,880.760,1932.780
859,64818.261000,-84.681,189.217,-434.903,-16.825,-409.780,-244.879,-1981.500,1027.760,1719.780
860,64818.278000,-129.713,212.490,-468.510,-34.335,-403.807,-253.436,-1602.500,1602.760,1941.780
861,64818.301000,-117.966,204.395,-480.371,-76.218,-379.216,-276.350,-1123.500,1825.760,2452.780
862,64818.323000,-79.786,209.455,-480.371,-102.790,-354.787,-279.847,-579.500,1368.760,2858.780
863,64818.341000,-96.428,242.846,-480.371,-141.855,-343.780,-289.013,20.500,246.760,3152.780
864,64818.378000,-183.556,264.095,-480.371,-173.401,-338.669,-277.632,356.500,-307.240,3216.780
865,64818.406000,-295.159,256.000,-480.371,-177.377,-333.797,-276.583,1032.500,-1022.240,3221.780
866,64818.412000,-369.560,235.763,-480.371,-193.113,-324.948,-276.315,1729.500,-969.240,2996.780
867,64818.431000,-378.371,204.395,-467.521,-200.891,-319.067,-282.091,2253.500,-457.240,2543.780
868,64818.454000,-361.728,152.791,-393.390,-198.728,-309.394,-298.876,2523.500,-14.240,1942.780
869,64818.473000,-344.107,89.043,-305.421,-181.013,-305.676,-307.069,2591.500,433.760,1172.780
870,64818.493000,-297.117,72.854,-251.058,-166.043,-298.050,-328.017,2490.500,852.760,402.780
871,64818.516000,-246.210,67.794,-190.764,-132.458,-283.816,-354.223,2394.500,1139.760,-209.220
872,64818.525000,-195.304,61.723,-136.402,-114.682,-281.064,-365.370,2315.500,1221.760,-641.220
873,64818.548000,-132.650,58.688,-88.958,-79.226,-268.788,-385.701,2124.500,1214.760,-784.220
874,64818.570000,-90.554,41.486,-47.444,-63.475,-266.021,-392.874,1902.500,909.760,-1019.220
875,64818.601000,-64.122,25.296,-6.919,-33.109,-260.488,-398.340,1578.500,485.760,-1209.220
876,64818.615000,-53.354,7.083,20.757,-11.503,-263.583,-401.672,1190.500,106.760,-1386.220
877,64818.637000,-55.312,3.036,32.618,10.014,-260.875,-403.040,779.500,-156.240,-1583.220
878,64818.657000,-78.807,0.000,38.548,-215.021,-260.764,-399.059,394.500,-173.240,-1788.220
879,64818.672000,-86.639,-4.047,43.490,42.296,-262.137,-402.625,9.500,118.760,-1986.220
880,64818.697000,-69.996,-8.095,44.479,61.907,-253.602,-409.874,-394.500,379.760,-2177.220
881,64818.712000,-44.543,-10.119,35.583,62.857,-244.901,-412.854,-609.500,392.760,-2287.220
882,64818.730000,-32.795,-1.012,14.826,68.726,-237.212,-416.905,-1047.500,184.760,-2524.220
883,64818.752000,-32.795,18.213,-11.861,74.579,-235.330,-417.010,-1499.500,31.760,-2738.220
884,64818.772000,-30.837,51.605,-50.409,61.864,-222.631,-423.691,-1945.500,62.760,-2898.220
885,64818.797000,-11.258,91.067,-115.645,55.022,-217.729,-426.530,-2320.500,67.760,-3033.220
886,64818.814000,8.321,127.494,-200.649,46.240,-210.872,-431.304,-2448.500,-109.240,-3229.220
887,64818.840000,32.795,151.779,-285.652,26.600,-208.763,-428.006,-2435.500,-282.240,-3420.220
888,64818.867000,43.564,171.004,-370.656,24.679,-212.614,-427.968,-2295.500,-354.240,-3571.220
889,64818.895000,25.943,190.229,-475.429,23.725,-207.765,-431.894,-1973.500,-225.240,-3635.220
890,64818.914000,47.480,215.526,-480.371,17.809,-199.003,-433.769,-1702.500,418.760,-3626.220
891,64818.914000,114.050,219.573,-480.371,28.550,-179.744,-442.841,-1055.500,951.760,-3517.220
892,64818.928000,190.409,186.182,-480.371,42.187,-173.096,-443.090,-433.500,792.760,-3262.220
893,64818.960000,247.189,178.087,-480.371,48.037,-161.536,-448.130,109.500,189.760,-2925.220
894,64818.982000,238.379,160.885,-480.371,81.359,-165.707,-449.699,668.500,-226.240,-2508.220
895,64818.997000,226.631,151.779,-480.371,99.836,-159.107,-447.080,1303.500,-24.240,-2031.220
896,64819.15000,257.958,148.743,-480.371,137.814,-152.689,-440.868,1888.500,164.760,-1547.220
897,64819.37000,277.537,142.672,-480.371,158.300,-148.040,-440.252,2355.500,122.760,-1035.220
898,64819.60000,267.748,133.565,-428.973,204.990,-144.611,-427.300,2538.500,101.760,-760.220
899,64819.82000,266.769,129.518,-340.015,234.137,-142.954,-416.988,2816.500,45.760,-239.220
900,64819.99000,260.895,119.399,-244.139,272.898,-151.074,-392.069,2921.500,-223.240,238.780
901,64819.120000,238.379,98.150,-164.077,290.357,-158.986,-379.570,2889.500,-559.240,655.780
902,64819.150000,215.862,78.925,-101.807,326.186,-180.631,-347.692,2759.500,-895.240,1043.780
903,64819.172000,190.409,42.498,-47.444,352.190,-212.835,-307.752,2566.500,-1126.240,1315.780
904,64819.187000,171.809,5.059,-7.907,358.851,-220.651,-293.094,2313.500,-1193.240,1487.780
905,64819.210000,156.145,-24.285,28.664,367.337,-253.658,-257.765,2029.500,-1101.240,1597.780
906,64819.227000,146.356,-58.688,59.305,368.155,-268.195,-241.027,1689.500,-905.240,1727.780
907,64819.254000,141.461,-84.996,83.027,368.951,-299.187,-214.424,1482.500,-795.240,1823.780
908,64819.271000,133.629,-100.174,94.888,354.189,-308.737,-204.307,1007.500,-593.240,2038.780
909,64819.287000,119.924,-107.257,99.830,330.808,-338.523,-194.014,488.500,-443.240,2240.780
910,64819.305000,112.092,-116.364,98.842,296.785,-368.204,-190.424,-77.500,-403.240,2365.780
911,64819.332000,99.365,-106.245,90.934,283.218,-376.783,-193.127,-663.500,-463.240,2419.780
912,64819.350000,96.428,-79.937,68.201,238.438,-399.591,-193.293,-1187.500,-614.240,2459.780
913,64819.377000,77.828,-43.510,35.583,209.260,-412.865,-195.714,-1598.500,-728.240,2491.780
914,64819.392000,46.501,11.130,-15.815,157.534,-430.776,-192.809,-1772.500,-668.240,2582.780
915,64819.415000,1.468,54.640,-71.166,129.210,-432.451,-194.275,-1807.500,-508.240,2626.780
916,64819.437000,-20.069,120.411,-213.498,79.465,-441.667,-197.322,-1827.500,-203.240,2623.780
917,64819.458000,-102.302,151.779,-272.803,52.103,-445.287,-196.834,-1686.500,-253.240,2577.780
918,64819.475000,-161.040,162.909,-329.143,4.200,-441.945,-199.928,-1417.500,187.760,2556.780
919,64819.496000,-150.272,162.909,-401.297,-46.505,-423.082,-218.742,-1254.500,1207.760,2537.780
920,64819.518000,-112.092,171.004,-480.371,-61.045,-417.134,-229.321,-1173.500,1677.760,2448.780
921,64819.541000,-128.734,176.063,-480.371,-109.006,-394.437,-239.328,-795.500,1203.760,2297.780
922,64819.556000,-193.346,183.146,-480.371,-119.728,-385.626,-246.040,-284.500,760.760,2251.780
923,64819.588000,-205.094,186.182,-480.371,-151.000,-370.820,-255.348,233.500,810.760,2270.780
924,64819.591000,-201.178,203.383,-480.371,-165.672,-360.039,-261.008,501.500,760.760,2266.780
925,64819.618000,-218.799,224.632,-480.371,-176.343,-347.353,-272.647,1039.500,491.760,2270.780
926,64819.637000,-261.874,223.621,-473.452,-184.141,-329.858,-283.359,1595.500,247.760,2326.780
927,64819.660000,-287.327,207.431,-416.124,-187.053,-319.183,-290.211,2077.500,343.760,2253.780
928,64819.682000,-286.348,169.992,-347.923,-184.893,-301.767,-310.943,2377.500,592.760,2000.780
929,64819.700000,-287.327,113.328,-285.652,-170.000,-300.921,-324.006,2455.500,826.760,1514.780
930,64819.722000,-275.579,69.818,-237.220,-153.110,-283.635,-347.951,2429.500,1049.760,844.780
931,64819.765000,-248.168,52.617,-191.753,-139.327,-276.012,-357.064,2306.500,1188.760,156.780
932,64819.779000,-207.052,56.664,-156.170,-116.557,-263.619,-379.140,2186.500,1207.760,-377.220
933,64819.790000,-164.956,56.664,-114.656,-78.165,-251.370,-399.522,2133.500,1183.760,-579.220
934,64819.810000,-126.776,50.593,-79.073,-61.497,-245.712,-404.746,1998.500,1114.760,-857.220
935,64819.832000,-94.470,34.403,-47.444,-23.211,-229.598,-421.194,1782.500,1017.760,-1058.220
936,64819.847000,-60.207,15.178,-13.838,-9.478,-227.784,-424.392,1482.500,825.760,-1217.220
937,64819.864000,-40.627,0.000,17.792,18.835,-217.399,-426.874,1085.500,463.760,-1411.220
938,64819.885000,-31.816,-15.178,47.444,26.672,-216.502,-427.998,600.500,71.760,-1620.220
939,64819.916000,-32.795,-21.249,68.201,44.266,-212.791,-429.298,64.500,-204.240,-1842.220
940,64819.933000,-39.648,-23.273,70.178,54.121,-214.812,-432.424,-521.500,-310.240,-2075.220
941,64819.956000,-29.859,-25.296,40.525,56.043,-214.832,-430.489,-1159.500,-336.240,-2307.220
942,64819.973000,-4.405,-32.379,-20.757,50.184,-225.425,-425.450,-1477.500,-622.240,-2417.220
943,64819.991000,2.447,-20.237,-100.819,41.370,-232.121,-421.349,-1998.500,-1347.240,-2667.220
944,64820.18000,-22.027,26.308,-194.718,31.548,-254.296,-407.367,-2396.500,-1983.240,-2955.220
945,64820.28000,-69.017,93.091,-283.676,29.551,-266.863,-398.457,-2534.500,-2164.240,-3225.220
946,64820.56000,-134.608,143.684,-345.946,29.537,-282.350,-389.578,-2381.500,-1451.240,-3375.220
947,64820.76000,-117.966,163.921,-395.367,32.386,-282.382,-384.706,-2152.500,12.760,-3445.220
948,64820.110000,-29.859,177.075,-438.857,38.400,-265.972,-401.568,-1779.500,951.760,-3580.220
949,64820.132000,40.627,189.217,-480.371,54.067,-242.884,-414.670,-1294.500,1127.760,-3702.220
950,64820.146000,111.113,175.051,-480.371,54.965,-232.251,-415.683,-1043.500,1092.760,-3691.220
951,64820.165000,178.662,157.850,-480.371,77.483,-211.161,-427.919,-534.500,902.760,-3477.220
952,64820.179000,229.568,142.672,-480.371,98.973,-203.616,-430.277,22.500,551.760,-2990.220
953,64820.196000,253.063,118.387,-480.371,113.544,-194.076,-429.561,572.500,290.760,-2202.220
954,64820.218000,295.159,105.233,-480.371,126.195,-192.260,-426.834,1070.500,2.760,-1455.220
955,64820.257000,292.222,91.067,-480.371,156.433,-195.445,-420.474,1520.500,-454.240,-957.220
956,64820.257000,254.042,84.996,-479.382,176.886,-194.669,-415.915,1929.500,-489.240,-663.220
957,64820.290000,213.904,74.877,-420.077,216.711,-196.986,-398.896,2260.500,-213.240,-309.220
958,64820.305000,201.178,63.747,-347.923,247.764,-201.157,-382.705,2471.500,-58.240,149.780
959,64820.320000,221.736,55.652,-272.803,268.149,-206.192,-371.247,2514.500,-199.240,381.780
960,64820.347000,196.283,50.593,-199.660,297.154,-224.869,-342.204,2534.500,-794.240,812.780
961,64820.367000,151.250,24.285,-143.320,302.865,-243.322,-323.579,2477.500,-1102.240,1106.780
962,64820.376000,133.629,0.000,-89.946,321.056,-265.775,-289.419,2350.500,-1188.240,1304.780
963,64820.394000,120.902,-24.285,-42.502,328.715,-281.343,-271.816,2157.500,-1214.240,1431.780
964,64820.430000,96.428,-48.569,-6.919,332.297,-305.594,-240.348,1923.500,-1016.240,1543.780
965,64820.447000,93.491,-70.830,21.745,327.118,-332.668,-209.707,1637.500,-743.240,1692.780
966,64820.467000,101.323,-91.067,48.432,324.134,-346.194,-199.794,1277.500,-679.240,1861.780
967,64820.490000,94.470,-104.221,65.236,307.402,-371.214,-180.764,1074.500,-675.240,1938.780
968,64820.512000,83.702,-117.375,72.154,292.684,-381.730,-172.616,628.500,-635.240,2052.780
969,64820.531000,72.933,-118.387,63.259,262.452,-405.646,-165.161,177.500,-544.240,2157.780
970,64820.556000,62.164,-106.245,50.409,248.799,-414.230,-162.941,-219.500,-397.240,2249.780
971,64820.565000,49.438,-87.020,33.606,211.836,-430.334,-166.206,-555.500,-137.240,2326.780
972,64820.579000,34.753,-71.842,16.803,184.588,-438.787,-169.652,-891.500,189.760,2343.780
973,64820.600000,30.837,-53.628,-10.873,140.799,-442.245,-180.686,-1266.500,438.760,2328.780
974,64820.626000,27.901,-24.285,-50.409,88.195,-446.591,-190.580,-1628.500,439.760,2288.780
975,64820.648000,41.606,11.130,-92.911,66.789,-442.517,-199.066,-1883.500,224.760,2210.780
976,64820.668000,23.985,66.783,-141.344,20.860,-443.063,-201.206,-1950.500,123.760,2179.780
977,64820.686000,-25.943,121.423,-199.660,-5.499,-441.851,-204.679,-1958.500,203.760,2175.780
978,64820.709000,-56.291,161.897,-259.954,-48.546,-430.813,-209.837,-1820.500,564.760,2261.780
979,64820.731000,-82.723,188.206,-328.154,-71.036,-424.800,-213.384,-1610.500,884.760,2386.780
980,64820.754000,-123.839,206.419,-420.077,-123.916,-399.156,-223.307,-1172.500,1137.760,2531.780
981,64820.783000,-138.524,207.431,-478.394,-164.004,-379.431,-234.434,-714.500,1063.760,2675.780
982,64820.787000,-174.746,238.798,-480.371,-179.733,-365.743,-237.126,-103.500,458.760,2812.780
983,64820.813000,-253.063,238.798,-480.371,-207.230,-347.109,-240.599,631.500,218.760,2912.780
984,64820.837000,-253.063,238.798,-480.371,-221.902,-334.392,-247.245,961.500,371.760,2950.780
985,64820.871000,-246.210,230.704,-480.371,-239.434,-312.934,-262.711,1524.500,563.760,2896.780
986,64820.890000,-256.979,214.514,-480.371,-244.226,-301.269,-274.454,2001.500,482.760,2728.780
987,64820.905000,-291.243,162.909,-401.297,-235.321,-278.113,-292.358,2348.500,285.760,2346.780
988,64820.927000,-302.011,100.174,-333.097,-229.368,-262.676,-305.280,2495.500,393.760,1740.780
989,64820.947000,-294.180,69.818,-276.757,-214.275,-260.850,-330.160,2517.500,729.760,1029.780
990,64820.961000,-278.516,43.510,-222.394,-187.523,-246.553,-357.231,2521.500,1037.760,252.780
991,64820.981000,-235.442,48.569,-171.985,-172.700,-237.967,-370.301,2432.500,1395.760,-434.220
992,64821.3000,-185.514,63.747,-132.448,-136.205,-224.729,-394.589,2297.500,1613.760,-885.220
993,64821.21000,-137.545,69.818,-88.958,-113.574,-212.344,-408.786,2218.500,1616.760,-1044.220
994,64821.43000,-102.302,58.688,-52.386,-75.269,-198.164,-425.232,2009.500,1446.760,-1270.220
995,64821.61000,-64.122,27.320,-38.548,-64.421,-192.450,-433.306,1677.500,1040.760,-1419.220
996,64821.81000,-46.501,20.237,-20.757,-34.019,-190.786,-438.768,1259.500,320.760,-1746.220
997,64821.106000,-81.744,10.119,-13.838,-0.723,-195.926,-438.367,842.500,-307.240,-2068.220
998,64821.126000,-102.302,10.119,-12.849,11.020,-197.969,-437.588,391.500,-400.240,-2360.220
999,64821.145000,-89.576,19.225,-9.884,23.766,-199.051,-438.796,-5.500,-196.240,-2631.220
1000,64821.164000,-62.164,30.356,-9.884,38.417,-196.282,-439.059,-357.500,-13.240,-2892.220
