Shimmer,Shimmer,Shimmer,Shimmer,Shimmer,Shimmer,Shimmer,Shimmer,Shimmer,Shimmer,Shimmer,Shimmer,Shimmer,Shimmer,Shimmer,Shimmer,Shimmer,Shimmer,Shimmer,Shimmer,
Timestamp,Timestamp,Wide Range Accelerometer X,Wide Range Accelerometer X,Wide Range Accelerometer Y,Wide Range Accelerometer Y,Wide Range Accelerometer Z,Wide Range Accelerometer Z,Gyroscope X,Gyroscope X,Gyroscope Y,Gyroscope Y,Gyroscope Z,Gyroscope Z,Magnetometer X,Magnetometer X,Magnetometer Y,Magnetometer Y,Magnetometer Z,Magnetometer Z,
RAW,CAL,RAW,CAL,RAW,CAL,RAW,CAL,RAW,CAL,RAW,CAL,RAW,CAL,RAW,CAL,RAW,CAL,RAW,CAL,
no units,mSecs,no units,m/(sec^2),no units,m/(sec^2),no units,m/(sec^2),no units,deg/sec,no units,deg/sec,no units,deg/sec,no units,local,no units,local,no units,local,
10573558,0,2144,-1.31453096259963,-15568,-9.5450643776824,-3840,2.35438381361128,-51,6.15853658536585,-101,3.10975609756098,-86,5.24390243902439,-69,0.3,46,0.2,96,-0.468292682926829,
10574198,19.53125,2112,-1.2949110974862,-15632,-9.58430410790926,-3952,2.42305334150828,-65,7.68292682926829,-126,3.96341463414634,-98,5.97560975609756,-72,0.31304347826087,47,0.204347826086957,96,-0.468292682926829,
10574838,39.0625,2144,-1.31453096259963,-15808,-9.69221336603311,-3952,2.42305334150828,-91,9.45121951219512,-155,5.54878048780488,-113,6.89024390243902,-69,0.3,42,0.182608695652174,96,-0.468292682926829,
10575478,58.59375,2192,-1.34396076026977,-16064,-9.84917228694053,-3920,2.40343347639485,-125,10.9756097560976,-180,7.6219512195122,-126,7.68292682926829,-72,0.31304347826087,51,0.221739130434783,96,-0.468292682926829,
10576118,78.125,2256,-1.38320049049663,-16144,-9.89822194972409,-3920,2.40343347639485,-156,12.8658536585366,-211,9.51219512195122,-139,8.47560975609756,-71,0.308695652173913,48,0.208695652173913,97,-0.473170731707317,
10576758,97.65625,2240,-1.37339055793991,-16240,-9.95708154506438,-3776,2.31514408338443,-204,13.9634146341463,-229,12.4390243902439,-156,9.51219512195122,-72,0.31304347826087,45,0.195652173913043,96,-0.468292682926829,
10577398,117.1875,2304,-1.41263028816677,-16272,-9.9767014101778,-3664,2.24647455548743,-226,14.3292682926829,-235,13.780487804878,-162,9.87804878048781,-70,0.304347826086957,45,0.195652173913043,96,-0.468292682926829,
10578038,136.71875,2368,-1.45187001839362,-16256,-9.96689147762109,-3600,2.20723482526058,-221,13.9024390243902,-228,13.4756097560976,-167,10.1829268292683,-71,0.308695652173913,44,0.191304347826087,98,-0.478048780487805,
10578678,156.25,2384,-1.46167995095034,-16256,-9.96689147762109,-3536,2.16799509503372,-181,12.8658536585366,-211,11.0365853658537,-169,10.3048780487805,-70,0.304347826086957,48,0.208695652173913,95,-0.463414634146341,
10579318,175.78125,2304,-1.41263028816677,-16080,-9.85898221949724,-3440,2.10913549969344,-135,12.0121951219512,-197,8.23170731707317,-171,10.4268292682927,-70,0.304347826086957,46,0.2,96,-0.468292682926829,
10579958,195.3125,2112,-1.2949110974862,-15920,-9.7608828939301,-3408,2.08951563458001,-102,11.0365853658537,-181,6.21951219512195,-168,10.2439024390244,-72,0.31304347826087,45,0.195652173913043,97,-0.473170731707317,
10580598,214.84375,1952,-1.19681177191907,-15808,-9.69221336603311,-3456,2.11894543225015,-78,10,-164,4.75609756097561,-168,10.2439024390244,-72,0.31304347826087,46,0.2,96,-0.468292682926829,
10581238,234.375,1840,-1.12814224402207,-15728,-9.64316370324954,-3376,2.06989576946658,-51,9.08536585365854,-149,3.10975609756098,-160,9.75609756097561,-71,0.308695652173913,46,0.2,96,-0.468292682926829,
10581878,253.90625,1728,-1.05947271612508,-15680,-9.6137339055794,-3472,2.12875536480687,-20,8.04878048780488,-132,1.21951219512195,-142,8.65853658536586,-73,0.317391304347826,45,0.195652173913043,94,-0.458536585365854,
10582518,273.4375,1600,-0.980993255671367,-15696,-9.62354383813611,-3456,2.11894543225015,-9,7.01219512195122,-115,0.548780487804878,-115,7.01219512195122,-72,0.31304347826087,44,0.191304347826087,95,-0.463414634146341,
10583158,292.96875,1552,-0.951563458001226,-15744,-9.65297363580625,-3536,2.16799509503372,-12,6.46341463414634,-106,0.731707317073171,-83,5.0609756097561,-70,0.304347826086957,48,0.208695652173913,95,-0.463414634146341,
10583798,312.5,1584,-0.971183323114654,-15856,-9.72164316370325,-3568,2.18761496014715,-21,6.21951219512195,-102,1.28048780487805,-56,3.41463414634146,-71,0.308695652173913,44,0.191304347826087,94,-0.458536585365854,
10584438,332.03125,1456,-0.892703862660944,-15920,-9.7608828939301,-3616,2.21704475781729,-35,6.15853658536585,-101,2.13414634146341,-33,2.01219512195122,-72,0.31304347826087,48,0.208695652173913,95,-0.463414634146341,
10585078,351.5625,1456,-0.892703862660944,-15808,-9.69221336603311,-3712,2.27590435315757,-66,6.21951219512195,-102,4.02439024390244,-20,1.21951219512195,-73,0.317391304347826,49,0.21304347826087,94,-0.458536585365854,
10585718,371.09375,1456,-0.892703862660944,-15696,-9.62354383813611,-3648,2.23666462293072,-93,5.73170731707317,-94,5.67073170731707,-11,0.670731707317073,-71,0.308695652173913,45,0.195652173913043,94,-0.458536585365854,
10586358,390.625,1552,-0.951563458001226,-15584,-9.55487431023912,-3728,2.28571428571429,-126,5.42682926829268,-89,7.68292682926829,-4,0.24390243902439,-72,0.31304347826087,44,0.191304347826087,96,-0.468292682926829,
10586998,410.15625,1600,-0.980993255671367,-15536,-9.52544451256898,-3696,2.26609442060086,-139,5.30487804878049,-87,8.47560975609756,13,-0.792682926829268,-73,0.317391304347826,49,0.21304347826087,95,-0.463414634146341,
10587638,429.6875,1744,-1.06928264868179,-15488,-9.49601471489883,-3760,2.30533415082771,-143,4.63414634146342,-76,8.71951219512195,35,-2.13414634146341,-77,0.334782608695652,46,0.2,95,-0.463414634146341,
10588278,449.21875,1840,-1.12814224402207,-15488,-9.49601471489883,-3648,2.23666462293072,-136,4.45121951219512,-73,8.29268292682927,64,-3.90243902439024,-71,0.308695652173913,44,0.191304347826087,96,-0.468292682926829,
10588918,468.75,1984,-1.2164316370325,-15600,-9.56468424279583,-3792,2.32495401594114,-127,4.14634146341463,-68,7.74390243902439,85,-5.18292682926829,-71,0.308695652173913,44,0.191304347826087,97,-0.473170731707317,
10589558,488.28125,2128,-1.30472103004292,-15728,-9.64316370324954,-3792,2.32495401594114,-118,4.08536585365854,-67,7.19512195121951,97,-5.91463414634146,-72,0.31304347826087,48,0.208695652173913,96,-0.468292682926829,
10590198,507.8125,2256,-1.38320049049663,-15856,-9.72164316370325,-3872,2.37400367872471,-119,4.39024390243902,-72,7.25609756097561,98,-5.97560975609756,-72,0.31304347826087,48,0.208695652173913,95,-0.463414634146341,
10590838,527.34375,2368,-1.45187001839362,-15904,-9.75107296137339,-3920,2.40343347639485,-116,4.57317073170732,-75,7.07317073170732,96,-5.85365853658537,-73,0.317391304347826,47,0.204347826086957,98,-0.478048780487805,
10591478,546.875,2448,-1.50091968117719,-15856,-9.72164316370325,-3936,2.41324340895156,-116,5.30487804878049,-87,7.07317073170732,84,-5.1219512195122,-74,0.321739130434783,43,0.18695652173913,99,-0.482926829268293,
10592118,566.40625,2416,-1.48129981606376,-15728,-9.64316370324954,-4016,2.46229307173513,-116,5.54878048780488,-91,7.07317073170732,70,-4.26829268292683,-72,0.31304347826087,47,0.204347826086957,98,-0.478048780487805,
10592758,585.9375,2384,-1.46167995095034,-15600,-9.56468424279583,-4032,2.47210300429185,-130,5.97560975609756,-98,7.92682926829268,55,-3.35365853658537,-72,0.31304347826087,44,0.191304347826087,99,-0.482926829268293,
10593398,605.46875,2464,-1.51072961373391,-15504,-9.50582464745555,-3984,2.4426732066217,-146,5.91463414634146,-97,8.90243902439025,48,-2.92682926829268,-73,0.317391304347826,42,0.182608695652174,100,-0.48780487804878,
10594038,625,2544,-1.55977927651747,-15472,-9.48620478234212,-3936,2.41324340895156,-135,5.97560975609756,-98,8.23170731707317,54,-3.29268292682927,-73,0.317391304347826,45,0.195652173913043,101,-0.492682926829268,
10594678,644.53125,2688,-1.6480686695279,-15504,-9.50582464745555,-3984,2.4426732066217,-102,6.03658536585366,-99,6.21951219512195,67,-4.08536585365854,-72,0.31304347826087,43,0.18695652173913,100,-0.48780487804878,
10595318,664.0625,2624,-1.60882893930104,-15520,-9.51563458001226,-3904,2.39362354383814,-72,6.09756097560976,-100,4.39024390243902,67,-4.08536585365854,-74,0.321739130434783,43,0.18695652173913,100,-0.48780487804878,
10595958,683.59375,2576,-1.5793991416309,-15552,-9.53525444512569,-3968,2.43286327406499,-66,6.34146341463415,-104,4.02439024390244,63,-3.84146341463415,-72,0.31304347826087,47,0.204347826086957,101,-0.492682926829268,
10596598,703.125,2528,-1.54996934396076,-15584,-9.55487431023912,-3952,2.42305334150828,-73,6.52439024390244,-107,4.45121951219512,46,-2.80487804878049,-74,0.321739130434783,46,0.2,103,-0.502439024390244,
10597238,722.65625,2576,-1.5793991416309,-15536,-9.52544451256898,-3888,2.38381361128142,-88,6.64634146341464,-109,5.36585365853659,26,-1.58536585365854,-72,0.31304347826087,41,0.178260869565217,101,-0.492682926829268,
10597878,742.1875,2608,-1.59901900674433,-15600,-9.56468424279583,-3888,2.38381361128142,-105,6.82926829268293,-112,6.40243902439024,13,-0.792682926829268,-73,0.317391304347826,44,0.191304347826087,101,-0.492682926829268,
10598518,761.71875,2592,-1.58920907418761,-15696,-9.62354383813611,-3824,2.34457388105457,-106,6.58536585365854,-108,6.46341463414634,6,-0.365853658536585,-74,0.321739130434783,45,0.195652173913043,103,-0.502439024390244,
10599158,781.25,2512,-1.54015941140405,-15696,-9.62354383813611,-3792,2.32495401594114,-97,6.58536585365854,-108,5.91463414634146,-2,0.121951219512195,-74,0.321739130434783,44,0.191304347826087,102,-0.497560975609756,
10599798,800.78125,2592,-1.58920907418761,-15616,-9.57449417535254,-3696,2.26609442060086,-85,5.97560975609756,-98,5.18292682926829,-1,0.0609756097560976,-72,0.31304347826087,43,0.18695652173913,102,-0.497560975609756,
10600438,820.3125,2512,-1.54015941140405,-15648,-9.59411404046597,-3760,2.30533415082771,-68,5.18292682926829,-85,4.14634146341463,-6,0.365853658536585,-73,0.317391304347826,42,0.182608695652174,103,-0.502439024390244,
10601078,839.84375,2432,-1.49110974862048,-15520,-9.51563458001226,-3648,2.23666462293072,-55,4.02439024390244,-66,3.35365853658537,-5,0.304878048780488,-73,0.317391304347826,45,0.195652173913043,102,-0.497560975609756,
10601718,859.375,2352,-1.44206008583691,-15456,-9.47639484978541,-3712,2.27590435315757,-46,2.80487804878049,-46,2.80487804878049,-12,0.731707317073171,-73,0.317391304347826,45,0.195652173913043,101,-0.492682926829268,
10602358,878.90625,2368,-1.45187001839362,-15408,-9.44696505211527,-3744,2.295524218271,-16,1.70731707317073,-28,0.975609756097561,-12,0.731707317073171,-73,0.317391304347826,49,0.21304347826087,101,-0.492682926829268,
10602998,898.4375,2240,-1.37339055793991,-15424,-9.45677498467198,-3728,2.28571428571429,12,0.548780487804878,-9,-0.731707317073171,-11,0.670731707317073,-78,0.339130434782609,43,0.18695652173913,101,-0.492682926829268,
10603638,917.96875,2128,-1.30472103004292,-15440,-9.46658491722869,-3824,2.34457388105457,40,-0.365853658536585,6,-2.4390243902439,1,-0.0609756097560976,-73,0.317391304347826,45,0.195652173913043,101,-0.492682926829268,
10604278,937.5,2112,-1.2949110974862,-15488,-9.49601471489883,-3888,2.38381361128142,51,-0.975609756097561,16,-3.10975609756098,11,-0.670731707317073,-73,0.317391304347826,44,0.191304347826087,101,-0.492682926829268,
10604918,957.03125,2112,-1.2949110974862,-15632,-9.58430410790926,-3984,2.4426732066217,50,-1.34146341463415,22,-3.04878048780488,23,-1.40243902439024,-75,0.326086956521739,42,0.182608695652174,102,-0.497560975609756,
10605558,976.5625,2064,-1.26548129981606,-15696,-9.62354383813611,-4128,2.53096259963213,41,-1.09756097560976,18,-2.5,26,-1.58536585365854,-75,0.326086956521739,44,0.191304347826087,102,-0.497560975609756,
10606198,996.09375,2096,-1.28510116492949,-15664,-9.60392397302268,-4224,2.58982219497241,28,-0.548780487804878,9,-1.70731707317073,27,-1.64634146341463,-74,0.321739130434783,42,0.182608695652174,100,-0.48780487804878,
10606838,1015.625,2096,-1.28510116492949,-15552,-9.53525444512569,-4240,2.59963212752912,15,0.182926829268293,-3,-0.914634146341463,21,-1.28048780487805,-74,0.321739130434783,43,0.18695652173913,100,-0.48780487804878,
10607478,1035.15625,2000,-1.22624156958921,-15520,-9.51563458001226,-4288,2.62906192519926,7,1.52439024390244,-25,-0.426829268292683,11,-0.670731707317073,-75,0.326086956521739,47,0.204347826086957,102,-0.497560975609756,
10608118,1054.6875,2144,-1.31453096259963,-15536,-9.52544451256898,-4208,2.5800122624157,-9,2.25609756097561,-37,0.548780487804878,13,-0.792682926829268,-76,0.330434782608696,48,0.208695652173913,102,-0.497560975609756,
10608758,1074.21875,2080,-1.27529123237278,-15600,-9.56468424279583,-4240,2.59963212752912,-23,3.23170731707317,-53,1.40243902439024,18,-1.09756097560976,-76,0.330434782608696,47,0.204347826086957,102,-0.497560975609756,
10609398,1093.75,2144,-1.31453096259963,-15600,-9.56468424279583,-4176,2.56039239730227,-32,3.65853658536585,-60,1.95121951219512,28,-1.70731707317073,-74,0.321739130434783,43,0.18695652173913,102,-0.497560975609756,
10610038,1113.28125,2240,-1.37339055793991,-15648,-9.59411404046597,-4112,2.52115266707541,-28,4.08536585365854,-67,1.70731707317073,34,-2.07317073170732,-75,0.326086956521739,44,0.191304347826087,102,-0.497560975609756,
10610678,1132.8125,2352,-1.44206008583691,-15680,-9.6137339055794,-3936,2.41324340895156,-19,4.20731707317073,-69,1.15853658536585,34,-2.07317073170732,-75,0.326086956521739,47,0.204347826086957,101,-0.492682926829268,
10611318,1152.34375,2416,-1.48129981606376,-15744,-9.65297363580625,-3888,2.38381361128142,3,3.71951219512195,-61,-0.182926829268293,30,-1.82926829268293,-74,0.321739130434783,42,0.182608695652174,103,-0.502439024390244,
10611958,1171.875,2464,-1.51072961373391,-15760,-9.66278356836297,-3792,2.32495401594114,25,3.10975609756098,-51,-1.52439024390244,25,-1.52439024390244,-74,0.321739130434783,48,0.208695652173913,101,-0.492682926829268,
10612598,1191.40625,2416,-1.48129981606376,-15760,-9.66278356836297,-3680,2.25628448804414,45,2.5,-41,-2.74390243902439,14,-0.853658536585366,-74,0.321739130434783,45,0.195652173913043,102,-0.497560975609756,
10613238,1210.9375,2352,-1.44206008583691,-15664,-9.60392397302268,-3760,2.30533415082771,59,1.95121951219512,-32,-3.59756097560976,3,-0.182926829268293,-73,0.317391304347826,44,0.191304347826087,101,-0.492682926829268,
10613878,1230.46875,2320,-1.42244022072348,-15552,-9.53525444512569,-3808,2.33476394849785,69,1.70731707317073,-28,-4.20731707317073,-9,0.548780487804878,-75,0.326086956521739,43,0.18695652173913,103,-0.502439024390244,
10614518,1250,2256,-1.38320049049663,-15472,-9.48620478234212,-3792,2.32495401594114,68,1.52439024390244,-25,-4.14634146341463,-21,1.28048780487805,-76,0.330434782608696,42,0.182608695652174,103,-0.502439024390244,
10615158,1269.53125,2112,-1.2949110974862,-15488,-9.49601471489883,-3776,2.31514408338443,58,1.95121951219512,-32,-3.53658536585366,-23,1.40243902439024,-73,0.317391304347826,43,0.18695652173913,101,-0.492682926829268,
10615798,1289.0625,2096,-1.28510116492949,-15536,-9.52544451256898,-3808,2.33476394849785,35,2.31707317073171,-38,-2.13414634146341,-23,1.40243902439024,-73,0.317391304347826,42,0.182608695652174,101,-0.492682926829268,
10616438,1308.59375,2016,-1.23605150214592,-15648,-9.59411404046597,-3968,2.43286327406499,15,2.5609756097561,-42,-0.914634146341463,-20,1.21951219512195,-74,0.321739130434783,46,0.2,102,-0.497560975609756,
10617078,1328.125,2096,-1.28510116492949,-15776,-9.67259350091968,-3872,2.37400367872471,2,2.4390243902439,-40,-0.121951219512195,-17,1.03658536585366,-75,0.326086956521739,45,0.195652173913043,102,-0.497560975609756,
10617718,1347.65625,1968,-1.20662170447578,-15792,-9.6824034334764,-3920,2.40343347639485,4,2.68292682926829,-44,-0.24390243902439,-17,1.03658536585366,-76,0.330434782608696,46,0.2,101,-0.492682926829268,
10618358,1367.1875,2096,-1.28510116492949,-15728,-9.64316370324954,-3920,2.40343347639485,11,2.80487804878049,-46,-0.670731707317073,-16,0.975609756097561,-75,0.326086956521739,44,0.191304347826087,100,-0.48780487804878,
10618998,1386.71875,2048,-1.25567136725935,-15632,-9.58430410790926,-3904,2.39362354383814,13,2.98780487804878,-49,-0.792682926829268,-11,0.670731707317073,-75,0.326086956521739,45,0.195652173913043,101,-0.492682926829268,
10619638,1406.25,2000,-1.22624156958921,-15584,-9.55487431023912,-4000,2.45248313917842,19,3.17073170731707,-52,-1.15853658536585,-12,0.731707317073171,-75,0.326086956521739,46,0.2,102,-0.497560975609756,
10620278,1425.78125,2000,-1.22624156958921,-15536,-9.52544451256898,-4080,2.50153280196199,19,3.35365853658537,-55,-1.15853658536585,-9,0.548780487804878,-74,0.321739130434783,41,0.178260869565217,103,-0.502439024390244,
10620918,1445.3125,2000,-1.22624156958921,-15456,-9.47639484978541,-4080,2.50153280196199,20,3.53658536585366,-58,-1.21951219512195,-2,0.121951219512195,-74,0.321739130434783,44,0.191304347826087,100,-0.48780487804878,
10621558,1464.84375,2000,-1.22624156958921,-15504,-9.50582464745555,-3984,2.4426732066217,17,3.65853658536585,-60,-1.03658536585366,6,-0.365853658536585,-73,0.317391304347826,44,0.191304347826087,100,-0.48780487804878,
10622198,1484.375,2032,-1.24586143470264,-15536,-9.52544451256898,-3920,2.40343347639485,17,3.71951219512195,-61,-1.03658536585366,12,-0.731707317073171,-73,0.317391304347826,42,0.182608695652174,102,-0.497560975609756,
10622838,1503.90625,2096,-1.28510116492949,-15648,-9.59411404046597,-3952,2.42305334150828,14,3.84146341463415,-63,-0.853658536585366,15,-0.914634146341463,-74,0.321739130434783,42,0.182608695652174,101,-0.492682926829268,
10623478,1523.4375,2096,-1.28510116492949,-15680,-9.6137339055794,-3888,2.38381361128142,14,3.84146341463415,-63,-0.853658536585366,11,-0.670731707317073,-73,0.317391304347826,44,0.191304347826087,100,-0.48780487804878,
10624118,1542.96875,2096,-1.28510116492949,-15584,-9.55487431023912,-3808,2.33476394849785,15,3.78048780487805,-62,-0.914634146341463,7,-0.426829268292683,-72,0.31304347826087,44,0.191304347826087,101,-0.492682926829268,
10624758,1562.5,2176,-1.33415082771306,-15504,-9.50582464745555,-3728,2.28571428571429,15,3.47560975609756,-57,-0.914634146341463,6,-0.365853658536585,-74,0.321739130434783,47,0.204347826086957,99,-0.482926829268293,
10625398,1582.03125,2192,-1.34396076026977,-15456,-9.47639484978541,-3792,2.32495401594114,17,3.17073170731707,-52,-1.03658536585366,3,-0.182926829268293,-75,0.326086956521739,45,0.195652173913043,101,-0.492682926829268,
10626038,1601.5625,2192,-1.34396076026977,-15488,-9.49601471489883,-3712,2.27590435315757,16,2.80487804878049,-46,-0.975609756097561,3,-0.182926829268293,-72,0.31304347826087,41,0.178260869565217,101,-0.492682926829268,
10626678,1621.09375,2160,-1.32434089515635,-15520,-9.51563458001226,-3696,2.26609442060086,18,2.25609756097561,-37,-1.09756097560976,1,-0.0609756097560976,-72,0.31304347826087,40,0.173913043478261,100,-0.48780487804878,
10627318,1640.625,2112,-1.2949110974862,-15568,-9.5450643776824,-3680,2.25628448804414,18,1.89024390243902,-31,-1.09756097560976,1,-0.0609756097560976,-73,0.317391304347826,46,0.2,101,-0.492682926829268,
10627958,1660.15625,2208,-1.35377069282649,-15632,-9.58430410790926,-3712,2.27590435315757,17,1.58536585365854,-26,-1.03658536585366,1,-0.0609756097560976,-74,0.321739130434783,46,0.2,101,-0.492682926829268,
10628598,1679.6875,2304,-1.41263028816677,-15616,-9.57449417535254,-3728,2.28571428571429,20,1.15853658536585,-19,-1.21951219512195,-5,0.304878048780488,-73,0.317391304347826,40,0.173913043478261,101,-0.492682926829268,
10629238,1699.21875,2272,-1.39301042305334,-15632,-9.58430410790926,-3728,2.28571428571429,28,0.731707317073171,-12,-1.70731707317073,-7,0.426829268292683,-73,0.317391304347826,41,0.178260869565217,103,-0.502439024390244,
10629878,1718.75,2192,-1.34396076026977,-15648,-9.59411404046597,-3760,2.30533415082771,27,0.609756097560976,-10,-1.64634146341463,-11,0.670731707317073,-75,0.326086956521739,43,0.18695652173913,102,-0.497560975609756,
10630518,1738.28125,2080,-1.27529123237278,-15616,-9.57449417535254,-3776,2.31514408338443,33,0.365853658536585,-6,-2.01219512195122,-13,0.792682926829268,-74,0.321739130434783,45,0.195652173913043,101,-0.492682926829268,
10631158,1757.8125,2080,-1.27529123237278,-15632,-9.58430410790926,-3856,2.364193746168,39,0.365853658536585,-6,-2.37804878048781,-12,0.731707317073171,-74,0.321739130434783,42,0.182608695652174,101,-0.492682926829268,
10631798,1777.34375,2144,-1.31453096259963,-15712,-9.63335377069283,-3760,2.30533415082771,46,0.487804878048781,-8,-2.80487804878049,-12,0.731707317073171,-72,0.31304347826087,42,0.182608695652174,100,-0.48780487804878,
10632438,1796.875,2144,-1.31453096259963,-15680,-9.6137339055794,-3824,2.34457388105457,51,0.548780487804878,-9,-3.10975609756098,-13,0.792682926829268,-73,0.317391304347826,45,0.195652173913043,100,-0.48780487804878,
10633078,1816.40625,2144,-1.31453096259963,-15744,-9.65297363580625,-3888,2.38381361128142,59,0.487804878048781,-8,-3.59756097560976,-17,1.03658536585366,-74,0.321739130434783,46,0.2,98,-0.478048780487805,
10633718,1835.9375,2128,-1.30472103004292,-15728,-9.64316370324954,-3872,2.37400367872471,62,0.670731707317073,-11,-3.78048780487805,-19,1.15853658536585,-74,0.321739130434783,44,0.191304347826087,100,-0.48780487804878,
10634358,1855.46875,2096,-1.28510116492949,-15696,-9.62354383813611,-3904,2.39362354383814,64,1.03658536585366,-17,-3.90243902439024,-21,1.28048780487805,-74,0.321739130434783,43,0.18695652173913,99,-0.482926829268293,
10634998,1875,2016,-1.23605150214592,-15760,-9.66278356836297,-3824,2.34457388105457,63,1.40243902439024,-23,-3.84146341463415,-29,1.76829268292683,-73,0.317391304347826,44,0.191304347826087,100,-0.48780487804878,
10635638,1894.53125,2064,-1.26548129981606,-15696,-9.62354383813611,-3856,2.364193746168,68,1.76829268292683,-29,-4.14634146341463,-28,1.70731707317073,-73,0.317391304347826,43,0.18695652173913,100,-0.48780487804878,
10636278,1914.0625,2112,-1.2949110974862,-15696,-9.62354383813611,-3808,2.33476394849785,70,1.82926829268293,-30,-4.26829268292683,-23,1.40243902439024,-75,0.326086956521739,42,0.182608695652174,99,-0.482926829268293,
10636918,1933.59375,2000,-1.22624156958921,-15744,-9.65297363580625,-3808,2.33476394849785,78,2.01219512195122,-33,-4.75609756097561,-22,1.34146341463415,-74,0.321739130434783,45,0.195652173913043,98,-0.478048780487805,
10637558,1953.125,2064,-1.26548129981606,-15744,-9.65297363580625,-3776,2.31514408338443,83,2.01219512195122,-33,-5.0609756097561,-23,1.40243902439024,-74,0.321739130434783,42,0.182608695652174,99,-0.482926829268293,
10638198,1972.65625,2016,-1.23605150214592,-15792,-9.6824034334764,-3712,2.27590435315757,82,2.37804878048781,-39,-5,-30,1.82926829268293,-73,0.317391304347826,42,0.182608695652174,99,-0.482926829268293,
10638838,1992.1875,2032,-1.24586143470264,-15824,-9.70202329858982,-3744,2.295524218271,76,2.80487804878049,-46,-4.63414634146342,-33,2.01219512195122,-74,0.321739130434783,46,0.2,100,-0.48780487804878,
10639478,2011.71875,2000,-1.22624156958921,-15824,-9.70202329858982,-3680,2.25628448804414,73,2.80487804878049,-46,-4.45121951219512,-38,2.31707317073171,-75,0.326086956521739,47,0.204347826086957,100,-0.48780487804878,
10640118,2031.25,1936,-1.18700183936235,-15744,-9.65297363580625,-3680,2.25628448804414,66,2.98780487804878,-49,-4.02439024390244,-35,2.13414634146341,-74,0.321739130434783,44,0.191304347826087,99,-0.482926829268293,
10640758,2050.78125,1904,-1.16738197424893,-15744,-9.65297363580625,-3632,2.226854690374,51,3.23170731707317,-53,-3.10975609756098,-36,2.19512195121951,-73,0.317391304347826,44,0.191304347826087,98,-0.478048780487805,
10641398,2070.3125,1952,-1.19681177191907,-15696,-9.62354383813611,-3568,2.18761496014715,46,3.17073170731707,-52,-2.80487804878049,-35,2.13414634146341,-74,0.321739130434783,44,0.191304347826087,97,-0.473170731707317,
10642038,2089.84375,1920,-1.17719190680564,-15648,-9.59411404046597,-3600,2.20723482526058,48,3.35365853658537,-55,-2.92682926829268,-33,2.01219512195122,-74,0.321739130434783,47,0.204347826086957,97,-0.473170731707317,
10642678,2109.375,1856,-1.13795217657879,-15632,-9.58430410790926,-3600,2.20723482526058,45,3.17073170731707,-52,-2.74390243902439,-29,1.76829268292683,-72,0.31304347826087,44,0.191304347826087,99,-0.482926829268293,
10643318,2128.90625,1904,-1.16738197424893,-15680,-9.6137339055794,-3632,2.226854690374,45,3.10975609756098,-51,-2.74390243902439,-26,1.58536585365854,-72,0.31304347826087,43,0.18695652173913,99,-0.482926829268293,
10643958,2148.4375,1920,-1.17719190680564,-15696,-9.62354383813611,-3584,2.19742489270386,44,2.92682926829268,-48,-2.68292682926829,-22,1.34146341463415,-72,0.31304347826087,46,0.2,98,-0.478048780487805,
10644598,2167.96875,1952,-1.19681177191907,-15696,-9.62354383813611,-3600,2.20723482526058,42,2.5609756097561,-42,-2.5609756097561,-14,0.853658536585366,-75,0.326086956521739,49,0.21304347826087,97,-0.473170731707317,
10645238,2187.5,1920,-1.17719190680564,-15728,-9.64316370324954,-3648,2.23666462293072,42,2.5,-41,-2.5609756097561,-10,0.609756097560976,-74,0.321739130434783,43,0.18695652173913,98,-0.478048780487805,
10645878,2207.03125,1952,-1.19681177191907,-15776,-9.67259350091968,-3696,2.26609442060086,39,2.5609756097561,-42,-2.37804878048781,-7,0.426829268292683,-75,0.326086956521739,42,0.182608695652174,98,-0.478048780487805,
10646518,2226.5625,1952,-1.19681177191907,-15712,-9.63335377069283,-3728,2.28571428571429,34,2.86585365853659,-47,-2.07317073170732,-8,0.487804878048781,-74,0.321739130434783,44,0.191304347826087,98,-0.478048780487805,
10647158,2246.09375,1888,-1.15757204169221,-15712,-9.63335377069283,-3760,2.30533415082771,32,2.86585365853659,-47,-1.95121951219512,-5,0.304878048780488,-73,0.317391304347826,42,0.182608695652174,98,-0.478048780487805,
10647798,2265.625,1952,-1.19681177191907,-15696,-9.62354383813611,-3760,2.30533415082771,15,3.41463414634146,-56,-0.914634146341463,-3,0.182926829268293,-74,0.321739130434783,47,0.204347826086957,97,-0.473170731707317,
10648438,2285.15625,1968,-1.20662170447578,-15776,-9.67259350091968,-3760,2.30533415082771,10,3.41463414634146,-56,-0.609756097560976,-2,0.121951219512195,-74,0.321739130434783,46,0.2,98,-0.478048780487805,
10649078,2304.6875,2000,-1.22624156958921,-15824,-9.70202329858982,-3760,2.30533415082771,7,3.71951219512195,-61,-0.426829268292683,-4,0.24390243902439,-75,0.326086956521739,42,0.182608695652174,98,-0.478048780487805,
10649718,2324.21875,1936,-1.18700183936235,-15760,-9.66278356836297,-3696,2.26609442060086,2,3.84146341463415,-63,-0.121951219512195,-5,0.304878048780488,-73,0.317391304347826,42,0.182608695652174,99,-0.482926829268293,
10650358,2343.75,2000,-1.22624156958921,-15680,-9.6137339055794,-3728,2.28571428571429,0,3.78048780487805,-62,0,-7,0.426829268292683,-74,0.321739130434783,45,0.195652173913043,97,-0.473170731707317,
10650998,2363.28125,2016,-1.23605150214592,-15648,-9.59411404046597,-3696,2.26609442060086,-1,3.84146341463415,-63,0.0609756097560976,-9,0.548780487804878,-74,0.321739130434783,44,0.191304347826087,97,-0.473170731707317,
10651638,2382.8125,2000,-1.22624156958921,-15680,-9.6137339055794,-3712,2.27590435315757,-2,3.84146341463415,-63,0.121951219512195,-13,0.792682926829268,-72,0.31304347826087,42,0.182608695652174,99,-0.482926829268293,
10652278,2402.34375,1952,-1.19681177191907,-15648,-9.59411404046597,-3728,2.28571428571429,-4,3.71951219512195,-61,0.24390243902439,-11,0.670731707317073,-72,0.31304347826087,42,0.182608695652174,98,-0.478048780487805,
10652918,2421.875,2048,-1.25567136725935,-15648,-9.59411404046597,-3616,2.21704475781729,-15,3.47560975609756,-57,0.914634146341463,-10,0.609756097560976,-72,0.31304347826087,46,0.2,97,-0.473170731707317,
10653558,2441.40625,1984,-1.2164316370325,-15600,-9.56468424279583,-3680,2.25628448804414,-20,3.41463414634146,-56,1.21951219512195,-5,0.304878048780488,-72,0.31304347826087,46,0.2,98,-0.478048780487805,
10654198,2460.9375,2016,-1.23605150214592,-15584,-9.55487431023912,-3680,2.25628448804414,-16,3.29268292682927,-54,0.975609756097561,-4,0.24390243902439,-74,0.321739130434783,46,0.2,97,-0.473170731707317,
10654838,2480.46875,2032,-1.24586143470264,-15648,-9.59411404046597,-3696,2.26609442060086,-20,3.23170731707317,-53,1.21951219512195,-7,0.426829268292683,-72,0.31304347826087,44,0.191304347826087,97,-0.473170731707317,
10655478,2500,2048,-1.25567136725935,-15680,-9.6137339055794,-3648,2.23666462293072,-22,2.98780487804878,-49,1.34146341463415,-3,0.182926829268293,-72,0.31304347826087,43,0.18695652173913,98,-0.478048780487805,
10656118,2519.53125,2064,-1.26548129981606,-15648,-9.59411404046597,-3744,2.295524218271,-25,2.86585365853659,-47,1.52439024390244,-4,0.24390243902439,-73,0.317391304347826,43,0.18695652173913,99,-0.482926829268293,
10656758,2539.0625,2000,-1.22624156958921,-15680,-9.6137339055794,-3712,2.27590435315757,-27,2.68292682926829,-44,1.64634146341463,-5,0.304878048780488,-73,0.317391304347826,46,0.2,98,-0.478048780487805,
10657398,2558.59375,2032,-1.24586143470264,-15648,-9.59411404046597,-3744,2.295524218271,-25,2.74390243902439,-45,1.52439024390244,-3,0.182926829268293,-72,0.31304347826087,42,0.182608695652174,98,-0.478048780487805,
10658038,2578.125,2048,-1.25567136725935,-15632,-9.58430410790926,-3728,2.28571428571429,-24,2.86585365853659,-47,1.46341463414634,-7,0.426829268292683,-72,0.31304347826087,42,0.182608695652174,99,-0.482926829268293,
10658678,2597.65625,2000,-1.22624156958921,-15664,-9.60392397302268,-3776,2.31514408338443,-28,3.17073170731707,-52,1.70731707317073,-5,0.304878048780488,-74,0.321739130434783,46,0.2,97,-0.473170731707317,
10659318,2617.1875,1984,-1.2164316370325,-15680,-9.6137339055794,-3760,2.30533415082771,-36,3.35365853658537,-55,2.19512195121951,-7,0.426829268292683,-75,0.326086956521739,45,0.195652173913043,98,-0.478048780487805,
10659958,2636.71875,1984,-1.2164316370325,-15696,-9.62354383813611,-3824,2.34457388105457,-39,3.41463414634146,-56,2.37804878048781,-9,0.548780487804878,-74,0.321739130434783,43,0.18695652173913,99,-0.482926829268293,
10660598,2656.25,2064,-1.26548129981606,-15664,-9.60392397302268,-3856,2.364193746168,-37,3.59756097560976,-59,2.25609756097561,-13,0.792682926829268,-73,0.317391304347826,44,0.191304347826087,99,-0.482926829268293,
10661238,2675.78125,2016,-1.23605150214592,-15616,-9.57449417535254,-3824,2.34457388105457,-32,3.47560975609756,-57,1.95121951219512,-16,0.975609756097561,-73,0.317391304347826,47,0.204347826086957,97,-0.473170731707317,
10661878,2695.3125,2016,-1.23605150214592,-15648,-9.59411404046597,-3824,2.34457388105457,-30,3.47560975609756,-57,1.82926829268293,-14,0.853658536585366,-72,0.31304347826087,45,0.195652173913043,99,-0.482926829268293,
10662518,2714.84375,2080,-1.27529123237278,-15696,-9.62354383813611,-3776,2.31514408338443,-28,3.41463414634146,-56,1.70731707317073,-10,0.609756097560976,-74,0.321739130434783,45,0.195652173913043,98,-0.478048780487805,
10663158,2734.375,2080,-1.27529123237278,-15760,-9.66278356836297,-3872,2.37400367872471,-28,3.59756097560976,-59,1.70731707317073,-4,0.24390243902439,-75,0.326086956521739,43,0.18695652173913,99,-0.482926829268293,
10663798,2753.90625,2144,-1.31453096259963,-15712,-9.63335377069283,-3856,2.364193746168,-18,3.65853658536585,-60,1.09756097560976,1,-0.0609756097560976,-73,0.317391304347826,44,0.191304347826087,98,-0.478048780487805,
10664438,2773.4375,2144,-1.31453096259963,-15744,-9.65297363580625,-3824,2.34457388105457,-7,3.65853658536585,-60,0.426829268292683,-3,0.182926829268293,-75,0.326086956521739,42,0.182608695652174,97,-0.473170731707317,
10665078,2792.96875,2064,-1.26548129981606,-15760,-9.66278356836297,-3840,2.35438381361128,-4,4.02439024390244,-66,0.24390243902439,-2,0.121951219512195,-75,0.326086956521739,43,0.18695652173913,99,-0.482926829268293,
10665718,2812.5,2064,-1.26548129981606,-15696,-9.62354383813611,-3824,2.34457388105457,-17,4.45121951219512,-73,1.03658536585366,-9,0.548780487804878,-74,0.321739130434783,47,0.204347826086957,98,-0.478048780487805,
10666358,2832.03125,2048,-1.25567136725935,-15696,-9.62354383813611,-3824,2.34457388105457,-31,4.75609756097561,-78,1.89024390243902,-13,0.792682926829268,-73,0.317391304347826,42,0.182608695652174,98,-0.478048780487805,
10666998,2851.5625,2032,-1.24586143470264,-15616,-9.57449417535254,-3888,2.38381361128142,-32,4.63414634146342,-76,1.95121951219512,-14,0.853658536585366,-75,0.326086956521739,48,0.208695652173913,99,-0.482926829268293,
10667638,2871.09375,2064,-1.26548129981606,-15632,-9.58430410790926,-3776,2.31514408338443,-26,4.69512195121951,-77,1.58536585365854,-15,0.914634146341463,-75,0.326086956521739,48,0.208695652173913,99,-0.482926829268293,
10668278,2890.625,2016,-1.23605150214592,-15616,-9.57449417535254,-3776,2.31514408338443,-26,4.63414634146342,-76,1.58536585365854,-15,0.914634146341463,-75,0.326086956521739,44,0.191304347826087,98,-0.478048780487805,
10668918,2910.15625,2032,-1.24586143470264,-15648,-9.59411404046597,-3744,2.295524218271,-30,4.39024390243902,-72,1.82926829268293,-11,0.670731707317073,-75,0.326086956521739,45,0.195652173913043,98,-0.478048780487805,
10669558,2929.6875,2048,-1.25567136725935,-15632,-9.58430410790926,-3744,2.295524218271,-29,4.26829268292683,-70,1.76829268292683,-11,0.670731707317073,-73,0.317391304347826,42,0.182608695652174,100,-0.48780487804878,
10670198,2949.21875,2032,-1.24586143470264,-15584,-9.55487431023912,-3840,2.35438381361128,-33,4.45121951219512,-73,2.01219512195122,-11,0.670731707317073,-73,0.317391304347826,45,0.195652173913043,98,-0.478048780487805,
10670838,2968.75,2000,-1.22624156958921,-15520,-9.51563458001226,-3760,2.30533415082771,-39,4.63414634146342,-76,2.37804878048781,-14,0.853658536585366,-74,0.321739130434783,45,0.195652173913043,97,-0.473170731707317,
10671478,2988.28125,2016,-1.23605150214592,-15552,-9.53525444512569,-3776,2.31514408338443,-57,4.9390243902439,-81,3.47560975609756,-22,1.34146341463415,-76,0.330434782608696,46,0.2,100,-0.48780487804878,
10672118,3007.8125,1952,-1.19681177191907,-15488,-9.49601471489883,-3744,2.295524218271,-77,4.57317073170732,-75,4.69512195121951,-27,1.64634146341463,-77,0.334782608695652,45,0.195652173913043,99,-0.482926829268293,
10672758,3027.34375,2080,-1.27529123237278,-15504,-9.50582464745555,-3776,2.31514408338443,-71,4.26829268292683,-70,4.32926829268293,-22,1.34146341463415,-73,0.317391304347826,44,0.191304347826087,98,-0.478048780487805,
10673398,3046.875,2096,-1.28510116492949,-15552,-9.53525444512569,-3776,2.31514408338443,-59,3.65853658536585,-60,3.59756097560976,-17,1.03658536585366,-76,0.330434782608696,44,0.191304347826087,99,-0.482926829268293,
10674038,3066.40625,2176,-1.33415082771306,-15632,-9.58430410790926,-3664,2.24647455548743,-37,3.29268292682927,-54,2.25609756097561,-11,0.670731707317073,-75,0.326086956521739,43,0.18695652173913,100,-0.48780487804878,
10674678,3085.9375,2160,-1.32434089515635,-15648,-9.59411404046597,-3712,2.27590435315757,-28,2.98780487804878,-49,1.70731707317073,-8,0.487804878048781,-75,0.326086956521739,47,0.204347826086957,99,-0.482926829268293,
10675318,3105.46875,2096,-1.28510116492949,-15584,-9.55487431023912,-3792,2.32495401594114,-27,2.6219512195122,-43,1.64634146341463,-8,0.487804878048781,-74,0.321739130434783,43,0.18695652173913,98,-0.478048780487805,
10675958,3125,2016,-1.23605150214592,-15584,-9.55487431023912,-3856,2.364193746168,-38,2.68292682926829,-44,2.31707317073171,-7,0.426829268292683,-75,0.326086956521739,46,0.2,97,-0.473170731707317,
10676598,3144.53125,2032,-1.24586143470264,-15616,-9.57449417535254,-3888,2.38381361128142,-44,2.01219512195122,-33,2.68292682926829,-3,0.182926829268293,-76,0.330434782608696,46,0.2,100,-0.48780487804878,
10677238,3164.0625,2144,-1.31453096259963,-15664,-9.60392397302268,-3968,2.43286327406499,-26,1.82926829268293,-30,1.58536585365854,10,-0.609756097560976,-76,0.330434782608696,46,0.2,99,-0.482926829268293,
10677878,3183.59375,2112,-1.2949110974862,-15696,-9.62354383813611,-3920,2.40343347639485,-2,1.58536585365854,-26,0.121951219512195,20,-1.21951219512195,-75,0.326086956521739,42,0.182608695652174,101,-0.492682926829268,
10678518,3203.125,2160,-1.32434089515635,-15696,-9.62354383813611,-3920,2.40343347639485,13,1.64634146341463,-27,-0.792682926829268,30,-1.82926829268293,-75,0.326086956521739,42,0.182608695652174,100,-0.48780487804878,
10679158,3222.65625,2240,-1.37339055793991,-15664,-9.60392397302268,-4016,2.46229307173513,12,1.52439024390244,-25,-0.731707317073171,34,-2.07317073170732,-75,0.326086956521739,47,0.204347826086957,99,-0.482926829268293,
10679798,3242.1875,2176,-1.33415082771306,-15584,-9.55487431023912,-3984,2.4426732066217,10,1.82926829268293,-30,-0.609756097560976,33,-2.01219512195122,-76,0.330434782608696,46,0.2,99,-0.482926829268293,
10680438,3261.71875,2160,-1.32434089515635,-15616,-9.57449417535254,-4048,2.48191293684856,12,1.76829268292683,-29,-0.731707317073171,35,-2.13414634146341,-77,0.334782608695652,44,0.191304347826087,100,-0.48780487804878,
10681078,3281.25,2208,-1.35377069282649,-15584,-9.55487431023912,-4096,2.5113427345187,23,1.64634146341463,-27,-1.40243902439024,39,-2.37804878048781,-77,0.334782608695652,45,0.195652173913043,100,-0.48780487804878,
10681718,3300.78125,2208,-1.35377069282649,-15680,-9.6137339055794,-4016,2.46229307173513,28,1.76829268292683,-29,-1.70731707317073,41,-2.5,-76,0.330434782608696,49,0.21304347826087,99,-0.482926829268293,
10682358,3320.3125,2272,-1.39301042305334,-15808,-9.69221336603311,-4000,2.45248313917842,43,2.01219512195122,-33,-2.6219512195122,43,-2.6219512195122,-75,0.326086956521739,43,0.18695652173913,99,-0.482926829268293,
10682998,3339.84375,2448,-1.50091968117719,-15728,-9.64316370324954,-4048,2.48191293684856,44,2.25609756097561,-37,-2.68292682926829,40,-2.4390243902439,-75,0.326086956521739,43,0.18695652173913,100,-0.48780487804878,
10683638,3359.375,2400,-1.47148988350705,-15824,-9.70202329858982,-4064,2.49172286940527,49,2.98780487804878,-49,-2.98780487804878,32,-1.95121951219512,-76,0.330434782608696,46,0.2,99,-0.482926829268293,
10684278,3378.90625,2368,-1.45187001839362,-15808,-9.69221336603311,-4080,2.50153280196199,47,3.65853658536585,-60,-2.86585365853659,22,-1.34146341463415,-76,0.330434782608696,45,0.195652173913043,99,-0.482926829268293,
10684918,3398.4375,2288,-1.40282035561006,-15808,-9.69221336603311,-4064,2.49172286940527,43,4.32926829268293,-71,-2.6219512195122,12,-0.731707317073171,-75,0.326086956521739,42,0.182608695652174,100,-0.48780487804878,
10685558,3417.96875,2240,-1.37339055793991,-15792,-9.6824034334764,-4128,2.53096259963213,27,5.18292682926829,-85,-1.64634146341463,3,-0.182926829268293,-75,0.326086956521739,46,0.2,100,-0.48780487804878,
10686198,3437.5,2096,-1.28510116492949,-15808,-9.69221336603311,-4080,2.50153280196199,8,6.09756097560976,-100,-0.487804878048781,-3,0.182926829268293,-75,0.326086956521739,44,0.191304347826087,99,-0.482926829268293,
10686838,3457.03125,1936,-1.18700183936235,-15632,-9.58430410790926,-4000,2.45248313917842,-13,7.07317073170732,-116,0.792682926829268,-9,0.548780487804878,-74,0.321739130434783,44,0.191304347826087,99,-0.482926829268293,
10687478,3476.5625,1920,-1.17719190680564,-15504,-9.50582464745555,-3920,2.40343347639485,-40,7.4390243902439,-122,2.4390243902439,-18,1.09756097560976,-74,0.321739130434783,42,0.182608695652174,100,-0.48780487804878,
10688118,3496.09375,1936,-1.18700183936235,-15488,-9.49601471489883,-3872,2.37400367872471,-59,7.80487804878049,-128,3.59756097560976,-23,1.40243902439024,-73,0.317391304347826,44,0.191304347826087,98,-0.478048780487805,
10688758,3515.625,1856,-1.13795217657879,-15360,-9.41753525444513,-3824,2.34457388105457,-68,7.86585365853659,-129,4.14634146341463,-26,1.58536585365854,-73,0.317391304347826,44,0.191304347826087,98,-0.478048780487805,
10689398,3535.15625,1744,-1.06928264868179,-15472,-9.48620478234212,-3776,2.31514408338443,-74,7.74390243902439,-127,4.51219512195122,-23,1.40243902439024,-75,0.326086956521739,42,0.182608695652174,101,-0.492682926829268,
10690038,3554.6875,1776,-1.08890251379522,-15456,-9.47639484978541,-3680,2.25628448804414,-80,7.80487804878049,-128,4.87804878048781,-18,1.09756097560976,-75,0.326086956521739,46,0.2,99,-0.482926829268293,
10690678,3574.21875,1712,-1.04966278356836,-15440,-9.46658491722869,-3584,2.19742489270386,-96,7.25609756097561,-119,5.85365853658537,-21,1.28048780487805,-72,0.31304347826087,42,0.182608695652174,99,-0.482926829268293,
10691318,3593.75,1712,-1.04966278356836,-15440,-9.46658491722869,-3600,2.20723482526058,-110,6.52439024390244,-107,6.70731707317073,-20,1.21951219512195,-75,0.326086956521739,43,0.18695652173913,99,-0.482926829268293,
10691958,3613.28125,1744,-1.06928264868179,-15424,-9.45677498467198,-3536,2.16799509503372,-108,5.42682926829268,-89,6.58536585365854,-19,1.15853658536585,-74,0.321739130434783,42,0.182608695652174,99,-0.482926829268293,
10692598,3632.8125,1776,-1.08890251379522,-15440,-9.46658491722869,-3504,2.14837522992029,-108,4.69512195121951,-77,6.58536585365854,-13,0.792682926829268,-73,0.317391304347826,41,0.178260869565217,98,-0.478048780487805,
10693238,3652.34375,1840,-1.12814224402207,-15456,-9.47639484978541,-3632,2.226854690374,-107,3.65853658536585,-60,6.52439024390244,-6,0.365853658536585,-73,0.317391304347826,41,0.178260869565217,100,-0.48780487804878,
10693878,3671.875,1904,-1.16738197424893,-15520,-9.51563458001226,-3632,2.226854690374,-113,2.4390243902439,-40,6.89024390243902,-4,0.24390243902439,-76,0.330434782608696,46,0.2,100,-0.48780487804878,
10694518,3691.40625,2000,-1.22624156958921,-15568,-9.5450643776824,-3616,2.21704475781729,-110,1.58536585365854,-26,6.70731707317073,-2,0.121951219512195,-75,0.326086956521739,45,0.195652173913043,100,-0.48780487804878,
10695158,3710.9375,2000,-1.22624156958921,-15680,-9.6137339055794,-3728,2.28571428571429,-98,0.548780487804878,-9,5.97560975609756,-2,0.121951219512195,-76,0.330434782608696,41,0.178260869565217,101,-0.492682926829268,
10695798,3730.46875,2016,-1.23605150214592,-15648,-9.59411404046597,-3824,2.34457388105457,-82,0.182926829268293,-3,5,-1,0.0609756097560976,-77,0.334782608695652,46,0.2,100,-0.48780487804878,
10696438,3750,2064,-1.26548129981606,-15648,-9.59411404046597,-3952,2.42305334150828,-72,-0.304878048780488,5,4.39024390243902,5,-0.304878048780488,-75,0.326086956521739,43,0.18695652173913,100,-0.48780487804878,
10697078,3769.53125,2080,-1.27529123237278,-15632,-9.58430410790926,-4128,2.53096259963213,-56,-0.0609756097560976,1,3.41463414634146,10,-0.609756097560976,-76,0.330434782608696,45,0.195652173913043,100,-0.48780487804878,
10697718,3789.0625,2064,-1.26548129981606,-15696,-9.62354383813611,-4240,2.59963212752912,-48,0.182926829268293,-3,2.92682926829268,15,-0.914634146341463,-75,0.326086956521739,42,0.182608695652174,102,-0.497560975609756,
10698358,3808.59375,2128,-1.30472103004292,-15632,-9.58430410790926,-4368,2.67811158798283,-40,0.609756097560976,-10,2.4390243902439,17,-1.03658536585366,-77,0.334782608695652,42,0.182608695652174,101,-0.492682926829268,
10698998,3828.125,2208,-1.35377069282649,-15648,-9.59411404046597,-4304,2.63887185775598,-24,1.03658536585366,-17,1.46341463414634,19,-1.15853658536585,-76,0.330434782608696,45,0.195652173913043,100,-0.48780487804878,
10699638,3847.65625,2240,-1.37339055793991,-15680,-9.6137339055794,-4336,2.6584917228694,-7,1.95121951219512,-32,0.426829268292683,19,-1.15853658536585,-77,0.334782608695652,44,0.191304347826087,101,-0.492682926829268,
10700278,3867.1875,2288,-1.40282035561006,-15712,-9.63335377069283,-4352,2.66830165542612,0,2.6219512195122,-43,0,22,-1.34146341463415,-78,0.339130434782609,43,0.18695652173913,102,-0.497560975609756,
10700918,3886.71875,2336,-1.4322501532802,-15696,-9.62354383813611,-4288,2.62906192519926,-5,3.35365853658537,-55,0.304878048780488,15,-0.914634146341463,-77,0.334782608695652,42,0.182608695652174,102,-0.497560975609756,
10701558,3906.25,2352,-1.44206008583691,-15744,-9.65297363580625,-4224,2.58982219497241,-15,4.26829268292683,-70,0.914634146341463,10,-0.609756097560976,-76,0.330434782608696,42,0.182608695652174,102,-0.497560975609756,
10702198,3925.78125,2400,-1.47148988350705,-15696,-9.62354383813611,-4192,2.57020232985898,-20,5.1219512195122,-84,1.21951219512195,2,-0.121951219512195,-76,0.330434782608696,41,0.178260869565217,103,-0.502439024390244,
10702838,3945.3125,2304,-1.41263028816677,-15664,-9.60392397302268,-4144,2.54077253218884,-20,5.73170731707317,-94,1.21951219512195,-10,0.609756097560976,-76,0.330434782608696,46,0.2,103,-0.502439024390244,
10703478,3964.84375,2304,-1.41263028816677,-15744,-9.65297363580625,-4016,2.46229307173513,-25,6.28048780487805,-103,1.52439024390244,-18,1.09756097560976,-77,0.334782608695652,44,0.191304347826087,103,-0.502439024390244,
10704118,3984.375,2304,-1.41263028816677,-15744,-9.65297363580625,-3920,2.40343347639485,-36,6.70731707317073,-110,2.19512195121951,-27,1.64634146341463,-75,0.326086956521739,41,0.178260869565217,104,-0.507317073170732,
10704758,4003.90625,2352,-1.44206008583691,-15776,-9.67259350091968,-3776,2.31514408338443,-49,7.01219512195122,-115,2.98780487804878,-34,2.07317073170732,-74,0.321739130434783,42,0.182608695652174,104,-0.507317073170732,
10705398,4023.4375,2272,-1.39301042305334,-15808,-9.69221336603311,-3840,2.35438381361128,-61,6.52439024390244,-107,3.71951219512195,-40,2.4390243902439,-77,0.334782608695652,43,0.18695652173913,104,-0.507317073170732,
10706038,4042.96875,2176,-1.33415082771306,-15728,-9.64316370324954,-3840,2.35438381361128,-60,5.73170731707317,-94,3.65853658536585,-52,3.17073170731707,-75,0.326086956521739,42,0.182608695652174,102,-0.497560975609756,
10706678,4062.5,2160,-1.32434089515635,-15600,-9.56468424279583,-3824,2.34457388105457,-61,4.9390243902439,-81,3.71951219512195,-53,3.23170731707317,-77,0.334782608695652,43,0.18695652173913,103,-0.502439024390244,
10707318,4082.03125,2128,-1.30472103004292,-15392,-9.43715511955855,-3888,2.38381361128142,-39,4.51219512195122,-74,2.37804878048781,-47,2.86585365853659,-74,0.321739130434783,40,0.173913043478261,104,-0.507317073170732,
10707958,4101.5625,2080,-1.27529123237278,-15328,-9.3979153893317,-3872,2.37400367872471,-4,3.65853658536585,-60,0.24390243902439,-33,2.01219512195122,-75,0.326086956521739,43,0.18695652173913,102,-0.497560975609756,
10708598,4121.09375,1968,-1.20662170447578,-15328,-9.3979153893317,-3920,2.40343347639485,19,3.41463414634146,-56,-1.15853658536585,-13,0.792682926829268,-74,0.321739130434783,43,0.18695652173913,101,-0.492682926829268,
10709238,4140.625,1984,-1.2164316370325,-15264,-9.35867565910484,-4048,2.48191293684856,21,3.53658536585366,-58,-1.28048780487805,4,-0.24390243902439,-77,0.334782608695652,41,0.178260869565217,104,-0.507317073170732,
10709878,4160.15625,1952,-1.19681177191907,-15408,-9.44696505211527,-4048,2.48191293684856,-2,3.41463414634146,-56,0.121951219512195,5,-0.304878048780488,-76,0.330434782608696,42,0.182608695652174,103,-0.502439024390244,
10710518,4179.6875,2000,-1.22624156958921,-15584,-9.55487431023912,-4016,2.46229307173513,-33,3.78048780487805,-62,2.01219512195122,1,-0.0609756097560976,-76,0.330434782608696,40,0.173913043478261,103,-0.502439024390244,
10711158,4199.21875,2048,-1.25567136725935,-15584,-9.55487431023912,-3952,2.42305334150828,-62,4.14634146341463,-68,3.78048780487805,-6,0.365853658536585,-75,0.326086956521739,41,0.178260869565217,102,-0.497560975609756,
10711798,4218.75,2160,-1.32434089515635,-15584,-9.55487431023912,-3856,2.364193746168,-67,3.96341463414634,-65,4.08536585365854,-11,0.670731707317073,-75,0.326086956521739,40,0.173913043478261,104,-0.507317073170732,
10712438,4238.28125,2240,-1.37339055793991,-15552,-9.53525444512569,-3824,2.34457388105457,-68,3.71951219512195,-61,4.14634146341463,-12,0.731707317073171,-76,0.330434782608696,44,0.191304347826087,104,-0.507317073170732,
10713078,4257.8125,2272,-1.39301042305334,-15616,-9.57449417535254,-3840,2.35438381361128,-62,2.68292682926829,-44,3.78048780487805,-4,0.24390243902439,-76,0.330434782608696,41,0.178260869565217,103,-0.502439024390244,
10713718,4277.34375,2320,-1.42244022072348,-15552,-9.53525444512569,-3904,2.39362354383814,-46,1.40243902439024,-23,2.80487804878049,1,-0.0609756097560976,-73,0.317391304347826,40,0.173913043478261,103,-0.502439024390244,
10714358,4296.875,2320,-1.42244022072348,-15568,-9.5450643776824,-3840,2.35438381361128,-20,0.24390243902439,-4,1.21951219512195,5,-0.304878048780488,-76,0.330434782608696,44,0.191304347826087,104,-0.507317073170732,
10714998,4316.40625,2384,-1.46167995095034,-15456,-9.47639484978541,-3936,2.41324340895156,17,-0.792682926829268,13,-1.03658536585366,8,-0.487804878048781,-75,0.326086956521739,43,0.18695652173913,104,-0.507317073170732,
10715638,4335.9375,2368,-1.45187001839362,-15376,-9.42734518700184,-3952,2.42305334150828,43,-1.52439024390244,25,-2.6219512195122,7,-0.426829268292683,-75,0.326086956521739,40,0.173913043478261,105,-0.51219512195122,
10716278,4355.46875,2240,-1.37339055793991,-15328,-9.3979153893317,-4032,2.47210300429185,62,-1.64634146341463,27,-3.78048780487805,5,-0.304878048780488,-75,0.326086956521739,41,0.178260869565217,104,-0.507317073170732,
10716918,4375,2240,-1.37339055793991,-15360,-9.41753525444513,-4160,2.55058246474555,67,-1.76829268292683,29,-4.08536585365854,13,-0.792682926829268,-77,0.334782608695652,45,0.195652173913043,103,-0.502439024390244,
10717558,4394.53125,2288,-1.40282035561006,-15536,-9.52544451256898,-4112,2.52115266707541,58,-1.40243902439024,23,-3.53658536585366,17,-1.03658536585366,-74,0.321739130434783,43,0.18695652173913,103,-0.502439024390244,
10718198,4414.0625,2368,-1.45187001839362,-15632,-9.58430410790926,-4096,2.5113427345187,54,-1.21951219512195,20,-3.29268292682927,15,-0.914634146341463,-74,0.321739130434783,41,0.178260869565217,104,-0.507317073170732,
10718838,4433.59375,2448,-1.50091968117719,-15744,-9.65297363580625,-4192,2.57020232985898,48,-0.426829268292683,7,-2.92682926829268,12,-0.731707317073171,-76,0.330434782608696,42,0.182608695652174,105,-0.51219512195122,
10719478,4453.125,2384,-1.46167995095034,-15760,-9.66278356836297,-4128,2.53096259963213,40,0.487804878048781,-8,-2.4390243902439,3,-0.182926829268293,-74,0.321739130434783,44,0.191304347826087,103,-0.502439024390244,
10720118,4472.65625,2416,-1.48129981606376,-15744,-9.65297363580625,-4128,2.53096259963213,23,1.46341463414634,-24,-1.40243902439024,-12,0.731707317073171,-74,0.321739130434783,44,0.191304347826087,102,-0.497560975609756,
10720758,4492.1875,2352,-1.44206008583691,-15824,-9.70202329858982,-4032,2.47210300429185,7,2.19512195121951,-36,-0.426829268292683,-25,1.52439024390244,-77,0.334782608695652,43,0.18695652173913,102,-0.497560975609756,
10721398,4511.71875,2368,-1.45187001839362,-15824,-9.70202329858982,-3920,2.40343347639485,-3,2.37804878048781,-39,0.182926829268293,-36,2.19512195121951,-78,0.339130434782609,46,0.2,101,-0.492682926829268,
10722038,4531.25,2368,-1.45187001839362,-15712,-9.63335377069283,-3904,2.39362354383814,1,2.19512195121951,-36,-0.0609756097560976,-43,2.6219512195122,-75,0.326086956521739,41,0.178260869565217,101,-0.492682926829268,
10722678,4550.78125,2416,-1.48129981606376,-15664,-9.60392397302268,-3840,2.35438381361128,23,2.01219512195122,-33,-1.40243902439024,-42,2.5609756097561,-76,0.330434782608696,42,0.182608695652174,101,-0.492682926829268,
10723318,4570.3125,2256,-1.38320049049663,-15552,-9.53525444512569,-3904,2.39362354383814,48,1.46341463414634,-24,-2.92682926829268,-44,2.68292682926829,-76,0.330434782608696,47,0.204347826086957,101,-0.492682926829268,
10723958,4589.84375,2192,-1.34396076026977,-15440,-9.46658491722869,-3856,2.364193746168,68,1.28048780487805,-21,-4.14634146341463,-44,2.68292682926829,-77,0.334782608695652,47,0.204347826086957,103,-0.502439024390244,
10724598,4609.375,2128,-1.30472103004292,-15440,-9.46658491722869,-3920,2.40343347639485,82,1.34146341463415,-22,-5,-40,2.4390243902439,-74,0.321739130434783,43,0.18695652173913,102,-0.497560975609756,
10725238,4628.90625,2064,-1.26548129981606,-15440,-9.46658491722869,-3888,2.38381361128142,90,1.03658536585366,-17,-5.48780487804878,-36,2.19512195121951,-75,0.326086956521739,44,0.191304347826087,102,-0.497560975609756,
10725878,4648.4375,1984,-1.2164316370325,-15536,-9.52544451256898,-3840,2.35438381361128,90,1.52439024390244,-25,-5.48780487804878,-25,1.52439024390244,-79,0.343478260869565,45,0.195652173913043,101,-0.492682926829268,
10726518,4667.96875,2016,-1.23605150214592,-15744,-9.65297363580625,-3792,2.32495401594114,69,2.13414634146341,-35,-4.20731707317073,-25,1.52439024390244,-77,0.334782608695652,45,0.195652173913043,100,-0.48780487804878,
10727158,4687.5,1904,-1.16738197424893,-15776,-9.67259350091968,-3904,2.39362354383814,45,2.6219512195122,-43,-2.74390243902439,-22,1.34146341463415,-74,0.321739130434783,43,0.18695652173913,102,-0.497560975609756,
10727798,4707.03125,1984,-1.2164316370325,-15792,-9.6824034334764,-3776,2.31514408338443,15,3.53658536585366,-58,-0.914634146341463,-30,1.82926829268293,-75,0.326086956521739,48,0.208695652173913,100,-0.48780487804878,
10728438,4726.5625,2032,-1.24586143470264,-15776,-9.67259350091968,-3728,2.28571428571429,-10,4.14634146341463,-68,0.609756097560976,-32,1.95121951219512,-76,0.330434782608696,46,0.2,100,-0.48780487804878,
10729078,4746.09375,2016,-1.23605150214592,-15808,-9.69221336603311,-3616,2.21704475781729,-25,4.51219512195122,-74,1.52439024390244,-38,2.31707317073171,-75,0.326086956521739,43,0.18695652173913,102,-0.497560975609756,
10729718,4765.625,1984,-1.2164316370325,-15792,-9.6824034334764,-3568,2.18761496014715,-31,4.39024390243902,-72,1.89024390243902,-37,2.25609756097561,-76,0.330434782608696,43,0.18695652173913,102,-0.497560975609756,
10730358,4785.15625,2080,-1.27529123237278,-15792,-9.6824034334764,-3616,2.21704475781729,-34,3.90243902439024,-64,2.07317073170732,-30,1.82926829268293,-75,0.326086956521739,46,0.2,101,-0.492682926829268,
10730998,4804.6875,2080,-1.27529123237278,-15712,-9.63335377069283,-3600,2.20723482526058,-24,3.04878048780488,-50,1.46341463414634,-18,1.09756097560976,-76,0.330434782608696,44,0.191304347826087,101,-0.492682926829268,
10731638,4824.21875,2096,-1.28510116492949,-15488,-9.49601471489883,-3504,2.14837522992029,4,1.82926829268293,-30,-0.24390243902439,-9,0.548780487804878,-77,0.334782608695652,43,0.18695652173913,101,-0.492682926829268,
10732278,4843.75,2144,-1.31453096259963,-15456,-9.47639484978541,-3520,2.15818516247701,43,0.792682926829268,-13,-2.6219512195122,3,-0.182926829268293,-77,0.334782608695652,44,0.191304347826087,102,-0.497560975609756,
10732918,4863.28125,2128,-1.30472103004292,-15440,-9.46658491722869,-3696,2.26609442060086,83,-0.304878048780488,5,-5.0609756097561,11,-0.670731707317073,-75,0.326086956521739,43,0.18695652173913,100,-0.48780487804878,
10733558,4882.8125,2128,-1.30472103004292,-15504,-9.50582464745555,-3808,2.33476394849785,110,-0.853658536585366,14,-6.70731707317073,24,-1.46341463414634,-78,0.339130434782609,46,0.2,99,-0.482926829268293,
10734198,4902.34375,2192,-1.34396076026977,-15632,-9.58430410790926,-3888,2.38381361128142,131,-0.731707317073171,12,-7.98780487804878,30,-1.82926829268293,-76,0.330434782608696,49,0.21304347826087,101,-0.492682926829268,
10734838,4921.875,2144,-1.31453096259963,-15728,-9.64316370324954,-3984,2.4426732066217,127,0.121951219512195,-2,-7.74390243902439,33,-2.01219512195122,-77,0.334782608695652,48,0.208695652173913,100,-0.48780487804878,
10735478,4941.40625,2176,-1.33415082771306,-15824,-9.70202329858982,-4080,2.50153280196199,95,1.34146341463415,-22,-5.79268292682927,30,-1.82926829268293,-75,0.326086956521739,43,0.18695652173913,100,-0.48780487804878,
10736118,4960.9375,2176,-1.33415082771306,-15872,-9.73145309625996,-3984,2.4426732066217,45,3.04878048780488,-50,-2.74390243902439,12,-0.731707317073171,-74,0.321739130434783,43,0.18695652173913,100,-0.48780487804878,
10736758,4980.46875,2192,-1.34396076026977,-15824,-9.70202329858982,-3856,2.364193746168,-5,4.32926829268293,-71,0.304878048780488,-11,0.670731707317073,-76,0.330434782608696,46,0.2,99,-0.482926829268293,
10737398,5000,2272,-1.39301042305334,-15744,-9.65297363580625,-3808,2.33476394849785,-43,5.60975609756098,-92,2.6219512195122,-32,1.95121951219512,-77,0.334782608695652,48,0.208695652173913,99,-0.482926829268293,
10738038,5019.53125,2288,-1.40282035561006,-15760,-9.66278356836297,-3696,2.26609442060086,-63,6.21951219512195,-102,3.84146341463415,-45,2.74390243902439,-74,0.321739130434783,43,0.18695652173913,101,-0.492682926829268,
10738678,5039.0625,2336,-1.4322501532802,-15680,-9.6137339055794,-3600,2.20723482526058,-59,6.09756097560976,-100,3.59756097560976,-46,2.80487804878049,-75,0.326086956521739,43,0.18695652173913,102,-0.497560975609756,
10739318,5058.59375,2336,-1.4322501532802,-15632,-9.58430410790926,-3568,2.18761496014715,-36,5.1219512195122,-84,2.19512195121951,-44,2.68292682926829,-75,0.326086956521739,47,0.204347826086957,100,-0.48780487804878,
10739958,5078.125,2256,-1.38320049049663,-15536,-9.52544451256898,-3504,2.14837522992029,-6,3.84146341463415,-63,0.365853658536585,-38,2.31707317073171,-76,0.330434782608696,46,0.2,100,-0.48780487804878,
10740598,5097.65625,2256,-1.38320049049663,-15584,-9.55487431023912,-3504,2.14837522992029,27,2.68292682926829,-44,-1.64634146341463,-30,1.82926829268293,-77,0.334782608695652,44,0.191304347826087,101,-0.492682926829268,
10741238,5117.1875,2128,-1.30472103004292,-15568,-9.5450643776824,-3600,2.20723482526058,53,1.82926829268293,-30,-3.23170731707317,-22,1.34146341463415,-79,0.343478260869565,44,0.191304347826087,99,-0.482926829268293,
10741878,5136.71875,2080,-1.27529123237278,-15616,-9.57449417535254,-3648,2.23666462293072,68,1.34146341463415,-22,-4.14634146341463,-13,0.792682926829268,-75,0.326086956521739,45,0.195652173913043,99,-0.482926829268293,
10742518,5156.25,2080,-1.27529123237278,-15648,-9.59411404046597,-3760,2.30533415082771,78,1.09756097560976,-18,-4.75609756097561,-3,0.182926829268293,-76,0.330434782608696,43,0.18695652173913,99,-0.482926829268293,
10743158,5175.78125,1936,-1.18700183936235,-15648,-9.59411404046597,-3872,2.37400367872471,66,1.52439024390244,-25,-4.02439024390244,1,-0.0609756097560976,-78,0.339130434782609,49,0.21304347826087,100,-0.48780487804878,
10743798,5195.3125,1872,-1.1477621091355,-15664,-9.60392397302268,-3888,2.38381361128142,43,2.25609756097561,-37,-2.6219512195122,5,-0.304878048780488,-77,0.334782608695652,48,0.208695652173913,100,-0.48780487804878,
10744438,5214.84375,1920,-1.17719190680564,-15728,-9.64316370324954,-3936,2.41324340895156,10,3.29268292682927,-54,-0.609756097560976,7,-0.426829268292683,-75,0.326086956521739,43,0.18695652173913,100,-0.48780487804878,
10745078,5234.375,1984,-1.2164316370325,-15744,-9.65297363580625,-3904,2.39362354383814,-26,4.26829268292683,-70,1.58536585365854,5,-0.304878048780488,-75,0.326086956521739,43,0.18695652173913,100,-0.48780487804878,
10745718,5253.90625,2048,-1.25567136725935,-15712,-9.63335377069283,-3920,2.40343347639485,-50,4.87804878048781,-80,3.04878048780488,3,-0.182926829268293,-76,0.330434782608696,47,0.204347826086957,100,-0.48780487804878,
10746358,5273.4375,2096,-1.28510116492949,-15632,-9.58430410790926,-3888,2.38381361128142,-53,5.1219512195122,-84,3.23170731707317,3,-0.182926829268293,-77,0.334782608695652,47,0.204347826086957,99,-0.482926829268293,
10746998,5292.96875,2176,-1.33415082771306,-15632,-9.58430410790926,-3696,2.26609442060086,-48,4.9390243902439,-81,2.92682926829268,2,-0.121951219512195,-74,0.321739130434783,43,0.18695652173913,101,-0.492682926829268,
10747638,5312.5,2272,-1.39301042305334,-15696,-9.62354383813611,-3616,2.21704475781729,-31,4.75609756097561,-78,1.89024390243902,0,0,-76,0.330434782608696,49,0.21304347826087,100,-0.48780487804878,
10748278,5332.03125,2256,-1.38320049049663,-15728,-9.64316370324954,-3632,2.226854690374,-16,4.32926829268293,-71,0.975609756097561,5,-0.304878048780488,-76,0.330434782608696,46,0.2,99,-0.482926829268293,
10748918,5351.5625,2272,-1.39301042305334,-15712,-9.63335377069283,-3696,2.26609442060086,4,3.41463414634146,-56,-0.24390243902439,2,-0.121951219512195,-74,0.321739130434783,46,0.2,99,-0.482926829268293,
10749558,5371.09375,2176,-1.33415082771306,-15664,-9.60392397302268,-3680,2.25628448804414,21,2.74390243902439,-45,-1.28048780487805,2,-0.121951219512195,-77,0.334782608695652,43,0.18695652173913,100,-0.48780487804878,
10750198,5390.625,2128,-1.30472103004292,-15568,-9.5450643776824,-3792,2.32495401594114,32,1.95121951219512,-32,-1.95121951219512,-3,0.182926829268293,-77,0.334782608695652,45,0.195652173913043,99,-0.482926829268293,
10750838,5410.15625,2080,-1.27529123237278,-15408,-9.44696505211527,-3808,2.33476394849785,42,1.64634146341463,-27,-2.5609756097561,-5,0.304878048780488,-74,0.321739130434783,44,0.191304347826087,99,-0.482926829268293,
10751478,5429.6875,2144,-1.31453096259963,-15440,-9.46658491722869,-3920,2.40343347639485,45,1.76829268292683,-29,-2.74390243902439,-2,0.121951219512195,-74,0.321739130434783,42,0.182608695652174,99,-0.482926829268293,
10752118,5449.21875,2128,-1.30472103004292,-15488,-9.49601471489883,-3968,2.43286327406499,49,1.89024390243902,-31,-2.98780487804878,3,-0.182926829268293,-75,0.326086956521739,43,0.18695652173913,100,-0.48780487804878,
10752758,5468.75,2128,-1.30472103004292,-15536,-9.52544451256898,-3936,2.41324340895156,41,2.4390243902439,-40,-2.5,6,-0.365853658536585,-77,0.334782608695652,47,0.204347826086957,99,-0.482926829268293,
10753398,5488.28125,2240,-1.37339055793991,-15664,-9.60392397302268,-3968,2.43286327406499,22,3.23170731707317,-53,-1.34146341463415,3,-0.182926829268293,-75,0.326086956521739,42,0.182608695652174,100,-0.48780487804878,
10754038,5507.8125,2336,-1.4322501532802,-15760,-9.66278356836297,-3968,2.43286327406499,-7,3.84146341463415,-63,0.426829268292683,-3,0.182926829268293,-74,0.321739130434783,43,0.18695652173913,101,-0.492682926829268,
10754678,5527.34375,2272,-1.39301042305334,-15760,-9.66278356836297,-3952,2.42305334150828,-31,4.57317073170732,-75,1.89024390243902,-15,0.914634146341463,-77,0.334782608695652,47,0.204347826086957,101,-0.492682926829268,
10755318,5546.875,2272,-1.39301042305334,-15680,-9.6137339055794,-3936,2.41324340895156,-45,5.24390243902439,-86,2.74390243902439,-25,1.52439024390244,-76,0.330434782608696,45,0.195652173913043,101,-0.492682926829268,
10755958,5566.40625,2272,-1.39301042305334,-15616,-9.57449417535254,-3840,2.35438381361128,-53,5.60975609756098,-92,3.23170731707317,-38,2.31707317073171,-77,0.334782608695652,45,0.195652173913043,99,-0.482926829268293,
10756598,5585.9375,2256,-1.38320049049663,-15568,-9.5450643776824,-3808,2.33476394849785,-51,5.54878048780488,-91,3.10975609756098,-41,2.5,-77,0.334782608695652,42,0.182608695652174,101,-0.492682926829268,
10757238,5605.46875,2176,-1.33415082771306,-15552,-9.53525444512569,-3760,2.30533415082771,-46,5.36585365853659,-88,2.80487804878049,-36,2.19512195121951,-78,0.339130434782609,47,0.204347826086957,99,-0.482926829268293,
10757878,5625,2176,-1.33415082771306,-15552,-9.53525444512569,-3712,2.27590435315757,-33,4.81707317073171,-79,2.01219512195122,-30,1.82926829268293,-75,0.326086956521739,47,0.204347826086957,100,-0.48780487804878,
10758518,5644.53125,2192,-1.34396076026977,-15584,-9.55487431023912,-3712,2.27590435315757,-14,4.08536585365854,-67,0.853658536585366,-23,1.40243902439024,-77,0.334782608695652,46,0.2,100,-0.48780487804878,
10759158,5664.0625,2144,-1.31453096259963,-15616,-9.57449417535254,-3712,2.27590435315757,3,3.29268292682927,-54,-0.182926829268293,-18,1.09756097560976,-78,0.339130434782609,45,0.195652173913043,100,-0.48780487804878,
10759798,5683.59375,2064,-1.26548129981606,-15600,-9.56468424279583,-3808,2.33476394849785,9,2.5,-41,-0.548780487804878,-18,1.09756097560976,-75,0.326086956521739,45,0.195652173913043,100,-0.48780487804878,
10760438,5703.125,2032,-1.24586143470264,-15568,-9.5450643776824,-3904,2.39362354383814,14,2.19512195121951,-36,-0.853658536585366,-16,0.975609756097561,-76,0.330434782608696,44,0.191304347826087,100,-0.48780487804878,
10761078,5722.65625,2032,-1.24586143470264,-15584,-9.55487431023912,-3888,2.38381361128142,1,2.31707317073171,-38,-0.0609756097560976,-1,0.0609756097560976,-77,0.334782608695652,43,0.18695652173913,100,-0.48780487804878,
10761718,5742.1875,2032,-1.24586143470264,-15648,-9.59411404046597,-4032,2.47210300429185,-11,2.5609756097561,-42,0.670731707317073,2,-0.121951219512195,-77,0.334782608695652,47,0.204347826086957,100,-0.48780487804878,
10762358,5761.71875,2080,-1.27529123237278,-15728,-9.64316370324954,-4096,2.5113427345187,-23,2.98780487804878,-49,1.40243902439024,4,-0.24390243902439,-76,0.330434782608696,43,0.18695652173913,100,-0.48780487804878,
10762998,5781.25,2096,-1.28510116492949,-15648,-9.59411404046597,-4080,2.50153280196199,-32,3.41463414634146,-56,1.95121951219512,5,-0.304878048780488,-75,0.326086956521739,42,0.182608695652174,101,-0.492682926829268,
10763638,5800.78125,2176,-1.33415082771306,-15712,-9.63335377069283,-4080,2.50153280196199,-27,3.65853658536585,-60,1.64634146341463,5,-0.304878048780488,-78,0.339130434782609,47,0.204347826086957,101,-0.492682926829268,
10764278,5820.3125,2176,-1.33415082771306,-15664,-9.60392397302268,-4016,2.46229307173513,-19,3.90243902439024,-64,1.15853658536585,5,-0.304878048780488,-76,0.330434782608696,43,0.18695652173913,101,-0.492682926829268,
10764918,5839.84375,2256,-1.38320049049663,-15712,-9.63335377069283,-3904,2.39362354383814,2,3.65853658536585,-60,-0.121951219512195,5,-0.304878048780488,-76,0.330434782608696,43,0.18695652173913,102,-0.497560975609756,
10765558,5859.375,2352,-1.44206008583691,-15584,-9.55487431023912,-3968,2.43286327406499,20,3.47560975609756,-57,-1.21951219512195,9,-0.548780487804878,-77,0.334782608695652,44,0.191304347826087,101,-0.492682926829268,
10766198,5878.90625,2352,-1.44206008583691,-15536,-9.52544451256898,-3952,2.42305334150828,38,3.29268292682927,-54,-2.31707317073171,8,-0.487804878048781,-77,0.334782608695652,46,0.2,99,-0.482926829268293,
10766838,5898.4375,2336,-1.4322501532802,-15568,-9.5450643776824,-3920,2.40343347639485,47,3.10975609756098,-51,-2.86585365853659,9,-0.548780487804878,-76,0.330434782608696,43,0.18695652173913,102,-0.497560975609756,
10767478,5917.96875,2336,-1.4322501532802,-15552,-9.53525444512569,-4016,2.46229307173513,53,3.10975609756098,-51,-3.23170731707317,8,-0.487804878048781,-75,0.326086956521739,43,0.18695652173913,101,-0.492682926829268,
10768118,5937.5,2336,-1.4322501532802,-15584,-9.55487431023912,-3984,2.4426732066217,46,3.17073170731707,-52,-2.80487804878049,-1,0.0609756097560976,-74,0.321739130434783,46,0.2,100,-0.48780487804878,
10768758,5957.03125,2320,-1.42244022072348,-15664,-9.60392397302268,-4016,2.46229307173513,41,3.47560975609756,-57,-2.5,-6,0.365853658536585,-74,0.321739130434783,46,0.2,100,-0.48780487804878,
10769398,5976.5625,2336,-1.4322501532802,-15616,-9.57449417535254,-4016,2.46229307173513,37,3.84146341463415,-63,-2.25609756097561,-17,1.03658536585366,-78,0.339130434782609,45,0.195652173913043,100,-0.48780487804878,
10770038,5996.09375,2256,-1.38320049049663,-15600,-9.56468424279583,-4016,2.46229307173513,20,4.08536585365854,-67,-1.21951219512195,-24,1.46341463414634,-77,0.334782608695652,44,0.191304347826087,100,-0.48780487804878,
10770678,6015.625,2320,-1.42244022072348,-15584,-9.55487431023912,-3984,2.4426732066217,14,4.26829268292683,-70,-0.853658536585366,-31,1.89024390243902,-75,0.326086956521739,44,0.191304347826087,100,-0.48780487804878,
10771318,6035.15625,2240,-1.37339055793991,-15584,-9.55487431023912,-3920,2.40343347639485,9,4.39024390243902,-72,-0.548780487804878,-32,1.95121951219512,-74,0.321739130434783,43,0.18695652173913,100,-0.48780487804878,
10771958,6054.6875,2240,-1.37339055793991,-15584,-9.55487431023912,-3920,2.40343347639485,4,4.02439024390244,-66,-0.24390243902439,-24,1.46341463414634,-78,0.339130434782609,43,0.18695652173913,101,-0.492682926829268,
10772598,6074.21875,2160,-1.32434089515635,-15584,-9.55487431023912,-3952,2.42305334150828,12,3.96341463414634,-65,-0.731707317073171,-19,1.15853658536585,-75,0.326086956521739,45,0.195652173913043,101,-0.492682926829268,
10773238,6093.75,2160,-1.32434089515635,-15584,-9.55487431023912,-3840,2.35438381361128,23,3.90243902439024,-64,-1.40243902439024,-16,0.975609756097561,-74,0.321739130434783,41,0.178260869565217,100,-0.48780487804878,
10773878,6113.28125,2160,-1.32434089515635,-15504,-9.50582464745555,-3904,2.39362354383814,26,3.84146341463415,-63,-1.58536585365854,-20,1.21951219512195,-74,0.321739130434783,41,0.178260869565217,101,-0.492682926829268,
10774518,6132.8125,2032,-1.24586143470264,-15568,-9.5450643776824,-3984,2.4426732066217,21,4.02439024390244,-66,-1.28048780487805,-21,1.28048780487805,-76,0.330434782608696,45,0.195652173913043,101,-0.492682926829268,
10775158,6152.34375,2096,-1.28510116492949,-15584,-9.55487431023912,-3968,2.43286327406499,12,4.20731707317073,-69,-0.731707317073171,-21,1.28048780487805,-78,0.339130434782609,45,0.195652173913043,101,-0.492682926829268,
10775798,6171.875,2144,-1.31453096259963,-15616,-9.57449417535254,-3968,2.43286327406499,9,4.14634146341463,-68,-0.548780487804878,-15,0.914634146341463,-73,0.317391304347826,41,0.178260869565217,102,-0.497560975609756,
10776438,6191.40625,2192,-1.34396076026977,-15648,-9.59411404046597,-3920,2.40343347639485,5,4.20731707317073,-69,-0.304878048780488,-15,0.914634146341463,-74,0.321739130434783,41,0.178260869565217,101,-0.492682926829268,
10777078,6210.9375,2192,-1.34396076026977,-15600,-9.56468424279583,-3952,2.42305334150828,4,4.51219512195122,-74,-0.24390243902439,-17,1.03658536585366,-74,0.321739130434783,44,0.191304347826087,99,-0.482926829268293,
10777718,6230.46875,2240,-1.37339055793991,-15568,-9.5450643776824,-3888,2.38381361128142,-3,4.39024390243902,-72,0.182926829268293,-17,1.03658536585366,-73,0.317391304347826,45,0.195652173913043,100,-0.48780487804878,
10778358,6250,2208,-1.35377069282649,-15536,-9.52544451256898,-3920,2.40343347639485,0,4.20731707317073,-69,0,-17,1.03658536585366,-74,0.321739130434783,43,0.18695652173913,101,-0.492682926829268,
10778998,6269.53125,2192,-1.34396076026977,-15504,-9.50582464745555,-3872,2.37400367872471,-4,4.02439024390244,-66,0.24390243902439,-16,0.975609756097561,-76,0.330434782608696,44,0.191304347826087,101,-0.492682926829268,
10779638,6289.0625,2224,-1.3635806253832,-15472,-9.48620478234212,-3920,2.40343347639485,1,3.96341463414634,-65,-0.0609756097560976,-14,0.853658536585366,-73,0.317391304347826,43,0.18695652173913,101,-0.492682926829268,
10780278,6308.59375,2256,-1.38320049049663,-15584,-9.55487431023912,-3952,2.42305334150828,0,3.84146341463415,-63,0,-11,0.670731707317073,-73,0.317391304347826,43,0.18695652173913,100,-0.48780487804878,
10780918,6328.125,2272,-1.39301042305334,-15600,-9.56468424279583,-4016,2.46229307173513,3,3.59756097560976,-59,-0.182926829268293,-10,0.609756097560976,-75,0.326086956521739,41,0.178260869565217,102,-0.497560975609756,
10781558,6347.65625,2336,-1.4322501532802,-15552,-9.53525444512569,-3888,2.38381361128142,4,3.47560975609756,-57,-0.24390243902439,-14,0.853658536585366,-74,0.321739130434783,42,0.182608695652174,100,-0.48780487804878,
10782198,6367.1875,2304,-1.41263028816677,-15520,-9.51563458001226,-3904,2.39362354383814,2,2.98780487804878,-49,-0.121951219512195,-15,0.914634146341463,-73,0.317391304347826,40,0.173913043478261,100,-0.48780487804878,
10782838,6386.71875,2256,-1.38320049049663,-15488,-9.49601471489883,-3856,2.364193746168,6,2.92682926829268,-48,-0.365853658536585,-19,1.15853658536585,-75,0.326086956521739,42,0.182608695652174,100,-0.48780487804878,
10783478,6406.25,2144,-1.31453096259963,-15536,-9.52544451256898,-3840,2.35438381361128,4,2.5609756097561,-42,-0.24390243902439,-16,0.975609756097561,-76,0.330434782608696,45,0.195652173913043,101,-0.492682926829268,
10784118,6425.78125,2224,-1.3635806253832,-15472,-9.48620478234212,-3888,2.38381361128142,3,2.6219512195122,-43,-0.182926829268293,-13,0.792682926829268,-75,0.326086956521739,44,0.191304347826087,101,-0.492682926829268,
10784758,6445.3125,2192,-1.34396076026977,-15504,-9.50582464745555,-3888,2.38381361128142,-4,2.6219512195122,-43,0.24390243902439,-11,0.670731707317073,-74,0.321739130434783,42,0.182608695652174,101,-0.492682926829268,
10785398,6464.84375,2144,-1.31453096259963,-15584,-9.55487431023912,-3968,2.43286327406499,-17,2.5,-41,1.03658536585366,-5,0.304878048780488,-75,0.326086956521739,43,0.18695652173913,100,-0.48780487804878,
10786038,6484.375,2160,-1.32434089515635,-15632,-9.58430410790926,-3920,2.40343347639485,-27,2.6219512195122,-43,1.64634146341463,-8,0.487804878048781,-74,0.321739130434783,44,0.191304347826087,99,-0.482926829268293,
10786678,6503.90625,2144,-1.31453096259963,-15584,-9.55487431023912,-4016,2.46229307173513,-34,2.6219512195122,-43,2.07317073170732,-8,0.487804878048781,-75,0.326086956521739,45,0.195652173913043,100,-0.48780487804878,
10787318,6523.4375,2144,-1.31453096259963,-15632,-9.58430410790926,-3936,2.41324340895156,-44,2.74390243902439,-45,2.68292682926829,-10,0.609756097560976,-76,0.330434782608696,45,0.195652173913043,99,-0.482926829268293,
10787958,6542.96875,2208,-1.35377069282649,-15584,-9.55487431023912,-3936,2.41324340895156,-52,2.5,-41,3.17073170731707,-10,0.609756097560976,-74,0.321739130434783,45,0.195652173913043,100,-0.48780487804878,
10788598,6562.5,2176,-1.33415082771306,-15568,-9.5450643776824,-3920,2.40343347639485,-49,2.37804878048781,-39,2.98780487804878,-9,0.548780487804878,-74,0.321739130434783,44,0.191304347826087,101,-0.492682926829268,
10789238,6582.03125,2160,-1.32434089515635,-15520,-9.51563458001226,-4032,2.47210300429185,-46,2.01219512195122,-33,2.80487804878049,-3,0.182926829268293,-74,0.321739130434783,44,0.191304347826087,100,-0.48780487804878,
10789878,6601.5625,2208,-1.35377069282649,-15536,-9.52544451256898,-3968,2.43286327406499,-35,1.82926829268293,-30,2.13414634146341,4,-0.24390243902439,-76,0.330434782608696,42,0.182608695652174,100,-0.48780487804878,
10790518,6621.09375,2160,-1.32434089515635,-15552,-9.53525444512569,-4064,2.49172286940527,-33,2.07317073170732,-34,2.01219512195122,8,-0.487804878048781,-76,0.330434782608696,42,0.182608695652174,101,-0.492682926829268,
10791158,6640.625,2160,-1.32434089515635,-15600,-9.56468424279583,-3984,2.4426732066217,-27,1.76829268292683,-29,1.64634146341463,8,-0.487804878048781,-74,0.321739130434783,41,0.178260869565217,101,-0.492682926829268,
10791798,6660.15625,2192,-1.34396076026977,-15632,-9.58430410790926,-4080,2.50153280196199,-25,1.58536585365854,-26,1.52439024390244,10,-0.609756097560976,-75,0.326086956521739,47,0.204347826086957,100,-0.48780487804878,
10792438,6679.6875,2240,-1.37339055793991,-15552,-9.53525444512569,-4048,2.48191293684856,-23,1.82926829268293,-30,1.40243902439024,9,-0.548780487804878,-76,0.330434782608696,47,0.204347826086957,102,-0.497560975609756,
10793078,6699.21875,2224,-1.3635806253832,-15616,-9.57449417535254,-4144,2.54077253218884,-20,1.64634146341463,-27,1.21951219512195,15,-0.914634146341463,-76,0.330434782608696,46,0.2,101,-0.492682926829268,
10793718,6718.75,2288,-1.40282035561006,-15520,-9.51563458001226,-4160,2.55058246474555,-17,2.01219512195122,-33,1.03658536585366,18,-1.09756097560976,-75,0.326086956521739,44,0.191304347826087,99,-0.482926829268293,
10794358,6738.28125,2272,-1.39301042305334,-15520,-9.51563458001226,-4128,2.53096259963213,-11,2.31707317073171,-38,0.670731707317073,21,-1.28048780487805,-75,0.326086956521739,42,0.182608695652174,102,-0.497560975609756,
10794998,6757.8125,2256,-1.38320049049663,-15536,-9.52544451256898,-4112,2.52115266707541,-16,2.74390243902439,-45,0.975609756097561,18,-1.09756097560976,-76,0.330434782608696,42,0.182608695652174,100,-0.48780487804878,
10795638,6777.34375,2288,-1.40282035561006,-15488,-9.49601471489883,-3920,2.40343347639485,-25,2.86585365853659,-47,1.52439024390244,19,-1.15853658536585,-76,0.330434782608696,44,0.191304347826087,101,-0.492682926829268,
10796278,6796.875,2320,-1.42244022072348,-15456,-9.47639484978541,-4032,2.47210300429185,-28,2.86585365853659,-47,1.70731707317073,16,-0.975609756097561,-75,0.326086956521739,43,0.18695652173913,100,-0.48780487804878,
10796918,6816.40625,2496,-1.53034947884733,-15584,-9.55487431023912,-3968,2.43286327406499,-28,2.98780487804878,-49,1.70731707317073,11,-0.670731707317073,-75,0.326086956521739,43,0.18695652173913,102,-0.497560975609756,
10797558,6835.9375,2512,-1.54015941140405,-15552,-9.53525444512569,-3936,2.41324340895156,-21,3.10975609756098,-51,1.28048780487805,7,-0.426829268292683,-75,0.326086956521739,45,0.195652173913043,101,-0.492682926829268,
10798198,6855.46875,2368,-1.45187001839362,-15648,-9.59411404046597,-3840,2.35438381361128,-18,3.10975609756098,-51,1.09756097560976,5,-0.304878048780488,-75,0.326086956521739,45,0.195652173913043,101,-0.492682926829268,
10798838,6875,2416,-1.48129981606376,-15664,-9.60392397302268,-3968,2.43286327406499,-24,2.80487804878049,-46,1.46341463414634,0,0,-77,0.334782608695652,46,0.2,101,-0.492682926829268,
10799478,6894.53125,2480,-1.52053954629062,-15696,-9.62354383813611,-3904,2.39362354383814,-22,2.37804878048781,-39,1.34146341463415,-8,0.487804878048781,-76,0.330434782608696,43,0.18695652173913,102,-0.497560975609756,
10800118,6914.0625,2480,-1.52053954629062,-15664,-9.60392397302268,-3936,2.41324340895156,-7,1.95121951219512,-32,0.426829268292683,-12,0.731707317073171,-77,0.334782608695652,43,0.18695652173913,101,-0.492682926829268,
10800758,6933.59375,2352,-1.44206008583691,-15552,-9.53525444512569,-3984,2.4426732066217,18,1.76829268292683,-29,-1.09756097560976,-16,0.975609756097561,-76,0.330434782608696,43,0.18695652173913,101,-0.492682926829268,
10801398,6953.125,2304,-1.41263028816677,-15504,-9.50582464745555,-4016,2.46229307173513,27,1.89024390243902,-31,-1.64634146341463,-24,1.46341463414634,-76,0.330434782608696,48,0.208695652173913,102,-0.497560975609756,
10802038,6972.65625,2256,-1.38320049049663,-15536,-9.52544451256898,-4048,2.48191293684856,17,2.19512195121951,-36,-1.03658536585366,-21,1.28048780487805,-75,0.326086956521739,42,0.182608695652174,100,-0.48780487804878,
10802678,6992.1875,2192,-1.34396076026977,-15568,-9.5450643776824,-4160,2.55058246474555,4,2.4390243902439,-40,-0.24390243902439,-23,1.40243902439024,-78,0.339130434782609,45,0.195652173913043,100,-0.48780487804878,
10803318,7011.71875,2144,-1.31453096259963,-15568,-9.5450643776824,-4144,2.54077253218884,2,2.80487804878049,-46,-0.121951219512195,-22,1.34146341463415,-77,0.334782608695652,45,0.195652173913043,101,-0.492682926829268,
10803958,7031.25,2208,-1.35377069282649,-15680,-9.6137339055794,-4112,2.52115266707541,3,3.17073170731707,-52,-0.182926829268293,-20,1.21951219512195,-77,0.334782608695652,45,0.195652173913043,101,-0.492682926829268,
10804598,7050.78125,2160,-1.32434089515635,-15712,-9.63335377069283,-4000,2.45248313917842,2,3.41463414634146,-56,-0.121951219512195,-18,1.09756097560976,-76,0.330434782608696,42,0.182608695652174,101,-0.492682926829268,
10805238,7070.3125,2176,-1.33415082771306,-15712,-9.63335377069283,-3984,2.4426732066217,1,3.78048780487805,-62,-0.0609756097560976,-21,1.28048780487805,-74,0.321739130434783,42,0.182608695652174,102,-0.497560975609756,
10805878,7089.84375,2160,-1.32434089515635,-15680,-9.6137339055794,-3936,2.41324340895156,4,3.35365853658537,-55,-0.24390243902439,-20,1.21951219512195,-75,0.326086956521739,46,0.2,99,-0.482926829268293,
10806518,7109.375,2176,-1.33415082771306,-15760,-9.66278356836297,-3952,2.42305334150828,15,3.10975609756098,-51,-0.914634146341463,-20,1.21951219512195,-75,0.326086956521739,45,0.195652173913043,100,-0.48780487804878,
10807158,7128.90625,2144,-1.31453096259963,-15584,-9.55487431023912,-3952,2.42305334150828,26,2.92682926829268,-48,-1.58536585365854,-14,0.853658536585366,-78,0.339130434782609,45,0.195652173913043,100,-0.48780487804878,
10807798,7148.4375,2128,-1.30472103004292,-15584,-9.55487431023912,-3904,2.39362354383814,27,2.98780487804878,-49,-1.64634146341463,-10,0.609756097560976,-77,0.334782608695652,44,0.191304347826087,101,-0.492682926829268,
10808438,7167.96875,2048,-1.25567136725935,-15552,-9.53525444512569,-3888,2.38381361128142,23,3.17073170731707,-52,-1.40243902439024,-6,0.365853658536585,-75,0.326086956521739,44,0.191304347826087,99,-0.482926829268293,
10809078,7187.5,2080,-1.27529123237278,-15520,-9.51563458001226,-3840,2.35438381361128,17,3.29268292682927,-54,-1.03658536585366,0,0,-75,0.326086956521739,42,0.182608695652174,100,-0.48780487804878,
10809718,7207.03125,2128,-1.30472103004292,-15552,-9.53525444512569,-3856,2.364193746168,14,3.47560975609756,-57,-0.853658536585366,2,-0.121951219512195,-78,0.339130434782609,44,0.191304347826087,100,-0.48780487804878,
10810358,7226.5625,2176,-1.33415082771306,-15616,-9.57449417535254,-3904,2.39362354383814,10,3.29268292682927,-54,-0.609756097560976,4,-0.24390243902439,-76,0.330434782608696,48,0.208695652173913,101,-0.492682926829268,
10810998,7246.09375,2224,-1.3635806253832,-15568,-9.5450643776824,-3840,2.35438381361128,10,3.17073170731707,-52,-0.609756097560976,1,-0.0609756097560976,-77,0.334782608695652,42,0.182608695652174,100,-0.48780487804878,
10811638,7265.625,2272,-1.39301042305334,-15728,-9.64316370324954,-3760,2.30533415082771,4,3.10975609756098,-51,-0.24390243902439,0,0,-77,0.334782608695652,43,0.18695652173913,100,-0.48780487804878,
10812278,7285.15625,2192,-1.34396076026977,-15824,-9.70202329858982,-3744,2.295524218271,-2,3.23170731707317,-53,0.121951219512195,-7,0.426829268292683,-76,0.330434782608696,49,0.21304347826087,99,-0.482926829268293,
10812918,7304.6875,2224,-1.3635806253832,-15744,-9.65297363580625,-3760,2.30533415082771,-5,2.74390243902439,-45,0.304878048780488,-10,0.609756097560976,-76,0.330434782608696,45,0.195652173913043,100,-0.48780487804878,
10813558,7324.21875,2208,-1.35377069282649,-15648,-9.59411404046597,-3792,2.32495401594114,-13,2.6219512195122,-43,0.792682926829268,-14,0.853658536585366,-76,0.330434782608696,42,0.182608695652174,101,-0.492682926829268,
10814198,7343.75,2128,-1.30472103004292,-15552,-9.53525444512569,-3808,2.33476394849785,-7,2.80487804878049,-46,0.426829268292683,-16,0.975609756097561,-75,0.326086956521739,47,0.204347826086957,99,-0.482926829268293,
10814838,7363.28125,2096,-1.28510116492949,-15472,-9.48620478234212,-3728,2.28571428571429,-7,2.5,-41,0.426829268292683,-12,0.731707317073171,-75,0.326086956521739,46,0.2,100,-0.48780487804878,
10815478,7382.8125,2192,-1.34396076026977,-15520,-9.51563458001226,-3792,2.32495401594114,-5,2.68292682926829,-44,0.304878048780488,-4,0.24390243902439,-76,0.330434782608696,45,0.195652173913043,100,-0.48780487804878,
10816118,7402.34375,2272,-1.39301042305334,-15536,-9.52544451256898,-3824,2.34457388105457,2,2.6219512195122,-43,-0.121951219512195,3,-0.182926829268293,-76,0.330434782608696,44,0.191304347826087,100,-0.48780487804878,
10816758,7421.875,2224,-1.3635806253832,-15552,-9.53525444512569,-3856,2.364193746168,8,2.5,-41,-0.487804878048781,7,-0.426829268292683,-77,0.334782608695652,43,0.18695652173913,100,-0.48780487804878,
10817398,7441.40625,2224,-1.3635806253832,-15680,-9.6137339055794,-3888,2.38381361128142,2,2.6219512195122,-43,-0.121951219512195,5,-0.304878048780488,-75,0.326086956521739,45,0.195652173913043,100,-0.48780487804878,
10818038,7460.9375,2192,-1.34396076026977,-15680,-9.6137339055794,-3808,2.33476394849785,-2,2.4390243902439,-40,0.121951219512195,-1,0.0609756097560976,-78,0.339130434782609,48,0.208695652173913,99,-0.482926829268293,
10818678,7480.46875,2224,-1.3635806253832,-15760,-9.66278356836297,-3856,2.364193746168,-9,2.5609756097561,-42,0.548780487804878,-5,0.304878048780488,-77,0.334782608695652,42,0.182608695652174,101,-0.492682926829268,
10819318,7500,2192,-1.34396076026977,-15648,-9.59411404046597,-3904,2.39362354383814,-8,2.5609756097561,-42,0.487804878048781,-4,0.24390243902439,-76,0.330434782608696,47,0.204347826086957,100,-0.48780487804878,
10819958,7519.53125,2160,-1.32434089515635,-15632,-9.58430410790926,-3904,2.39362354383814,-1,2.68292682926829,-44,0.0609756097560976,-8,0.487804878048781,-75,0.326086956521739,41,0.178260869565217,100,-0.48780487804878,
10820598,7539.0625,2160,-1.32434089515635,-15568,-9.5450643776824,-3920,2.40343347639485,0,2.74390243902439,-45,0,-1,0.0609756097560976,-77,0.334782608695652,42,0.182608695652174,100,-0.48780487804878,
10821238,7558.59375,2144,-1.31453096259963,-15520,-9.51563458001226,-3984,2.4426732066217,-4,3.04878048780488,-50,0.24390243902439,0,0,-76,0.330434782608696,46,0.2,101,-0.492682926829268,
10821878,7578.125,2160,-1.32434089515635,-15600,-9.56468424279583,-3904,2.39362354383814,-9,3.17073170731707,-52,0.548780487804878,5,-0.304878048780488,-76,0.330434782608696,46,0.2,100,-0.48780487804878,
10822518,7597.65625,2240,-1.37339055793991,-15616,-9.57449417535254,-3856,2.364193746168,-5,3.35365853658537,-55,0.304878048780488,7,-0.426829268292683,-75,0.326086956521739,42,0.182608695652174,101,-0.492682926829268,
10823158,7617.1875,2256,-1.38320049049663,-15680,-9.6137339055794,-3776,2.31514408338443,-2,3.29268292682927,-54,0.121951219512195,6,-0.365853658536585,-75,0.326086956521739,43,0.18695652173913,101,-0.492682926829268,
10823798,7636.71875,2288,-1.40282035561006,-15680,-9.6137339055794,-3824,2.34457388105457,1,3.23170731707317,-53,-0.0609756097560976,3,-0.182926829268293,-75,0.326086956521739,45,0.195652173913043,99,-0.482926829268293,
10824438,7656.25,2288,-1.40282035561006,-15712,-9.63335377069283,-3824,2.34457388105457,1,3.04878048780488,-50,-0.0609756097560976,-3,0.182926829268293,-75,0.326086956521739,46,0.2,99,-0.482926829268293,
10825078,7675.78125,2240,-1.37339055793991,-15648,-9.59411404046597,-3872,2.37400367872471,5,2.80487804878049,-46,-0.304878048780488,-8,0.487804878048781,-75,0.326086956521739,43,0.18695652173913,100,-0.48780487804878,
10825718,7695.3125,2224,-1.3635806253832,-15680,-9.6137339055794,-3824,2.34457388105457,5,2.74390243902439,-45,-0.304878048780488,-9,0.548780487804878,-75,0.326086956521739,44,0.191304347826087,101,-0.492682926829268,
10826358,7714.84375,2176,-1.33415082771306,-15680,-9.6137339055794,-3888,2.38381361128142,6,2.74390243902439,-45,-0.365853658536585,-8,0.487804878048781,-74,0.321739130434783,45,0.195652173913043,100,-0.48780487804878,
10826998,7734.375,2160,-1.32434089515635,-15600,-9.56468424279583,-3936,2.41324340895156,3,2.80487804878049,-46,-0.182926829268293,-6,0.365853658536585,-75,0.326086956521739,44,0.191304347826087,99,-0.482926829268293,
10827638,7753.90625,2144,-1.31453096259963,-15456,-9.47639484978541,-3968,2.43286327406499,6,3.10975609756098,-51,-0.365853658536585,-4,0.24390243902439,-77,0.334782608695652,43,0.18695652173913,101,-0.492682926829268,
10828278,7773.4375,2192,-1.34396076026977,-15488,-9.49601471489883,-3968,2.43286327406499,7,3.17073170731707,-52,-0.426829268292683,-8,0.487804878048781,-76,0.330434782608696,42,0.182608695652174,100,-0.48780487804878,
10828918,7792.96875,2176,-1.33415082771306,-15504,-9.50582464745555,-3904,2.39362354383814,7,3.59756097560976,-59,-0.426829268292683,-11,0.670731707317073,-74,0.321739130434783,42,0.182608695652174,100,-0.48780487804878,
10829558,7812.5,2128,-1.30472103004292,-15600,-9.56468424279583,-3888,2.38381361128142,-2,3.90243902439024,-64,0.121951219512195,-10,0.609756097560976,-77,0.334782608695652,42,0.182608695652174,101,-0.492682926829268,
10830198,7832.03125,2144,-1.31453096259963,-15664,-9.60392397302268,-3904,2.39362354383814,-7,3.71951219512195,-61,0.426829268292683,-8,0.487804878048781,-76,0.330434782608696,46,0.2,100,-0.48780487804878,
10830838,7851.5625,2256,-1.38320049049663,-15696,-9.62354383813611,-3856,2.364193746168,-12,3.71951219512195,-61,0.731707317073171,-13,0.792682926829268,-77,0.334782608695652,47,0.204347826086957,100,-0.48780487804878,
10831478,7871.09375,2208,-1.35377069282649,-15664,-9.60392397302268,-3856,2.364193746168,-7,3.41463414634146,-56,0.426829268292683,-15,0.914634146341463,-75,0.326086956521739,43,0.18695652173913,101,-0.492682926829268,
10832118,7890.625,2240,-1.37339055793991,-15664,-9.60392397302268,-3840,2.35438381361128,0,3.10975609756098,-51,0,-16,0.975609756097561,-76,0.330434782608696,42,0.182608695652174,101,-0.492682926829268,
10832758,7910.15625,2240,-1.37339055793991,-15568,-9.5450643776824,-3856,2.364193746168,10,2.86585365853659,-47,-0.609756097560976,-16,0.975609756097561,-76,0.330434782608696,45,0.195652173913043,99,-0.482926829268293,
10833398,7929.6875,2144,-1.31453096259963,-15552,-9.53525444512569,-3888,2.38381361128142,15,2.80487804878049,-46,-0.914634146341463,-14,0.853658536585366,-77,0.334782608695652,47,0.204347826086957,100,-0.48780487804878,
10834038,7949.21875,2080,-1.27529123237278,-15568,-9.5450643776824,-3904,2.39362354383814,13,2.68292682926829,-44,-0.792682926829268,-10,0.609756097560976,-75,0.326086956521739,43,0.18695652173913,101,-0.492682926829268,
10834678,7968.75,2112,-1.2949110974862,-15600,-9.56468424279583,-3920,2.40343347639485,13,2.68292682926829,-44,-0.792682926829268,-7,0.426829268292683,-76,0.330434782608696,44,0.191304347826087,100,-0.48780487804878,
10835318,7988.28125,2128,-1.30472103004292,-15584,-9.55487431023912,-3904,2.39362354383814,8,3.29268292682927,-54,-0.487804878048781,-3,0.182926829268293,-75,0.326086956521739,46,0.2,100,-0.48780487804878,
10835958,8007.8125,2176,-1.33415082771306,-15584,-9.55487431023912,-3936,2.41324340895156,6,3.29268292682927,-54,-0.365853658536585,-3,0.182926829268293,-74,0.321739130434783,46,0.2,99,-0.482926829268293,
10836598,8027.34375,2208,-1.35377069282649,-15632,-9.58430410790926,-3936,2.41324340895156,7,3.29268292682927,-54,-0.426829268292683,-5,0.304878048780488,-77,0.334782608695652,44,0.191304347826087,99,-0.482926829268293,
10837238,8046.875,2272,-1.39301042305334,-15616,-9.57449417535254,-3808,2.33476394849785,2,3.29268292682927,-54,-0.121951219512195,-6,0.365853658536585,-74,0.321739130434783,44,0.191304347826087,100,-0.48780487804878,
10837878,8066.40625,2160,-1.32434089515635,-15616,-9.57449417535254,-3792,2.32495401594114,-3,3.04878048780488,-50,0.182926829268293,-8,0.487804878048781,-75,0.326086956521739,44,0.191304347826087,99,-0.482926829268293,
10838518,8085.9375,2208,-1.35377069282649,-15664,-9.60392397302268,-3808,2.33476394849785,-1,2.86585365853659,-47,0.0609756097560976,-10,0.609756097560976,-76,0.330434782608696,43,0.18695652173913,101,-0.492682926829268,
10839158,8105.46875,2192,-1.34396076026977,-15632,-9.58430410790926,-3840,2.35438381361128,11,2.5,-41,-0.670731707317073,-7,0.426829268292683,-77,0.334782608695652,46,0.2,100,-0.48780487804878,
10839798,8125,2160,-1.32434089515635,-15616,-9.57449417535254,-3936,2.41324340895156,11,2.5,-41,-0.670731707317073,-6,0.365853658536585,-73,0.317391304347826,42,0.182608695652174,100,-0.48780487804878,
10840438,8144.53125,2160,-1.32434089515635,-15648,-9.59411404046597,-3920,2.40343347639485,8,2.37804878048781,-39,-0.487804878048781,-9,0.548780487804878,-75,0.326086956521739,42,0.182608695652174,100,-0.48780487804878,
10841078,8164.0625,2160,-1.32434089515635,-15616,-9.57449417535254,-3936,2.41324340895156,-4,2.68292682926829,-44,0.24390243902439,-7,0.426829268292683,-77,0.334782608695652,46,0.2,100,-0.48780487804878,
10841718,8183.59375,2160,-1.32434089515635,-15600,-9.56468424279583,-3968,2.43286327406499,-10,2.74390243902439,-45,0.609756097560976,-5,0.304878048780488,-76,0.330434782608696,48,0.208695652173913,99,-0.482926829268293,
10842358,8203.125,2208,-1.35377069282649,-15616,-9.57449417535254,-3952,2.42305334150828,-12,3.04878048780488,-50,0.731707317073171,-1,0.0609756097560976,-75,0.326086956521739,42,0.182608695652174,100,-0.48780487804878,
10842998,8222.65625,2176,-1.33415082771306,-15648,-9.59411404046597,-3920,2.40343347639485,-10,3.10975609756098,-51,0.609756097560976,0,0,-76,0.330434782608696,47,0.204347826086957,100,-0.48780487804878,
10843638,8242.1875,2128,-1.30472103004292,-15680,-9.6137339055794,-3920,2.40343347639485,-12,2.98780487804878,-49,0.731707317073171,0,0,-76,0.330434782608696,44,0.191304347826087,99,-0.482926829268293,
10844278,8261.71875,2208,-1.35377069282649,-15648,-9.59411404046597,-3936,2.41324340895156,-5,3.10975609756098,-51,0.304878048780488,0,0,-78,0.339130434782609,47,0.204347826086957,99,-0.482926829268293,
10844918,8281.25,2208,-1.35377069282649,-15600,-9.56468424279583,-3984,2.4426732066217,4,2.86585365853659,-47,-0.24390243902439,-1,0.0609756097560976,-74,0.321739130434783,43,0.18695652173913,101,-0.492682926829268,
10845558,8300.78125,2144,-1.31453096259963,-15568,-9.5450643776824,-3984,2.4426732066217,6,3.10975609756098,-51,-0.365853658536585,-4,0.24390243902439,-77,0.334782608695652,44,0.191304347826087,99,-0.482926829268293,
10846198,8320.3125,2224,-1.3635806253832,-15520,-9.51563458001226,-3984,2.4426732066217,4,3.17073170731707,-52,-0.24390243902439,-6,0.365853658536585,-74,0.321739130434783,45,0.195652173913043,100,-0.48780487804878,
10846838,8339.84375,2192,-1.34396076026977,-15552,-9.53525444512569,-3968,2.43286327406499,0,3.10975609756098,-51,0,-4,0.24390243902439,-75,0.326086956521739,44,0.191304347826087,99,-0.482926829268293,
10847478,8359.375,2208,-1.35377069282649,-15568,-9.5450643776824,-3920,2.40343347639485,-1,3.41463414634146,-56,0.0609756097560976,-1,0.0609756097560976,-77,0.334782608695652,45,0.195652173913043,98,-0.478048780487805,
10848118,8378.90625,2224,-1.3635806253832,-15568,-9.5450643776824,-3824,2.34457388105457,-2,3.29268292682927,-54,0.121951219512195,0,0,-77,0.334782608695652,43,0.18695652173913,101,-0.492682926829268,
10848758,8398.4375,2288,-1.40282035561006,-15536,-9.52544451256898,-3904,2.39362354383814,-3,3.41463414634146,-56,0.182926829268293,-2,0.121951219512195,-76,0.330434782608696,41,0.178260869565217,100,-0.48780487804878,
10849398,8417.96875,2288,-1.40282035561006,-15552,-9.53525444512569,-3888,2.38381361128142,3,3.10975609756098,-51,-0.182926829268293,-4,0.24390243902439,-77,0.334782608695652,44,0.191304347826087,99,-0.482926829268293,
10850038,8437.5,2256,-1.38320049049663,-15536,-9.52544451256898,-3840,2.35438381361128,6,3.04878048780488,-50,-0.365853658536585,-10,0.609756097560976,-78,0.339130434782609,47,0.204347826086957,101,-0.492682926829268,
10850678,8457.03125,2240,-1.37339055793991,-15616,-9.57449417535254,-3888,2.38381361128142,8,3.10975609756098,-51,-0.487804878048781,-6,0.365853658536585,-77,0.334782608695652,47,0.204347826086957,100,-0.48780487804878,
10851318,8476.5625,2208,-1.35377069282649,-15568,-9.5450643776824,-3872,2.37400367872471,5,2.68292682926829,-44,-0.304878048780488,-7,0.426829268292683,-74,0.321739130434783,41,0.178260869565217,100,-0.48780487804878,
10851958,8496.09375,2240,-1.37339055793991,-15536,-9.52544451256898,-3840,2.35438381361128,5,2.68292682926829,-44,-0.304878048780488,-8,0.487804878048781,-75,0.326086956521739,43,0.18695652173913,100,-0.48780487804878,
10852598,8515.625,2208,-1.35377069282649,-15600,-9.56468424279583,-3888,2.38381361128142,6,2.92682926829268,-48,-0.365853658536585,-14,0.853658536585366,-76,0.330434782608696,45,0.195652173913043,99,-0.482926829268293,
10853238,8535.15625,2176,-1.33415082771306,-15648,-9.59411404046597,-3744,2.295524218271,0,2.98780487804878,-49,0,-20,1.21951219512195,-75,0.326086956521739,44,0.191304347826087,100,-0.48780487804878,
10853878,8554.6875,2192,-1.34396076026977,-15600,-9.56468424279583,-3824,2.34457388105457,-8,2.6219512195122,-43,0.487804878048781,-18,1.09756097560976,-74,0.321739130434783,43,0.18695652173913,100,-0.48780487804878,
10854518,8574.21875,2160,-1.32434089515635,-15680,-9.6137339055794,-3968,2.43286327406499,-15,2.5,-41,0.914634146341463,-19,1.15853658536585,-76,0.330434782608696,46,0.2,101,-0.492682926829268,
10855158,8593.75,2192,-1.34396076026977,-15600,-9.56468424279583,-3920,2.40343347639485,0,2.01219512195122,-33,0,-15,0.914634146341463,-75,0.326086956521739,45,0.195652173913043,98,-0.478048780487805,
10855798,8613.28125,2176,-1.33415082771306,-15552,-9.53525444512569,-3920,2.40343347639485,16,1.89024390243902,-31,-0.975609756097561,-17,1.03658536585366,-74,0.321739130434783,46,0.2,99,-0.482926829268293,
10856438,8632.8125,2048,-1.25567136725935,-15568,-9.5450643776824,-3856,2.364193746168,25,2.07317073170732,-34,-1.52439024390244,-14,0.853658536585366,-77,0.334782608695652,46,0.2,99,-0.482926829268293,
10857078,8652.34375,2080,-1.27529123237278,-15584,-9.55487431023912,-3952,2.42305334150828,16,2.5,-41,-0.975609756097561,-12,0.731707317073171,-75,0.326086956521739,43,0.18695652173913,100,-0.48780487804878,
10857718,8671.875,2128,-1.30472103004292,-15616,-9.57449417535254,-4000,2.45248313917842,-2,2.5609756097561,-42,0.121951219512195,-8,0.487804878048781,-75,0.326086956521739,44,0.191304347826087,99,-0.482926829268293,
10858358,8691.40625,2208,-1.35377069282649,-15600,-9.56468424279583,-4016,2.46229307173513,-9,2.92682926829268,-48,0.548780487804878,-8,0.487804878048781,-75,0.326086956521739,42,0.182608695652174,100,-0.48780487804878,
10858998,8710.9375,2160,-1.32434089515635,-15632,-9.58430410790926,-3904,2.39362354383814,-11,2.98780487804878,-49,0.670731707317073,-11,0.670731707317073,-76,0.330434782608696,47,0.204347826086957,100,-0.48780487804878,
10859638,8730.46875,2144,-1.31453096259963,-15584,-9.55487431023912,-3872,2.37400367872471,-10,3.23170731707317,-53,0.609756097560976,-13,0.792682926829268,-76,0.330434782608696,48,0.208695652173913,100,-0.48780487804878,
10860278,8750,2176,-1.33415082771306,-15616,-9.57449417535254,-3904,2.39362354383814,-7,3.41463414634146,-56,0.426829268292683,-12,0.731707317073171,-75,0.326086956521739,42,0.182608695652174,99,-0.482926829268293,
10860918,8769.53125,2256,-1.38320049049663,-15648,-9.59411404046597,-3872,2.37400367872471,-8,3.53658536585366,-58,0.487804878048781,-7,0.426829268292683,-77,0.334782608695652,47,0.204347826086957,99,-0.482926829268293,
10861558,8789.0625,2272,-1.39301042305334,-15600,-9.56468424279583,-3888,2.38381361128142,-4,3.41463414634146,-56,0.24390243902439,-5,0.304878048780488,-76,0.330434782608696,45,0.195652173913043,100,-0.48780487804878,
10862198,8808.59375,2272,-1.39301042305334,-15712,-9.63335377069283,-3856,2.364193746168,0,3.35365853658537,-55,0,-6,0.365853658536585,-76,0.330434782608696,45,0.195652173913043,101,-0.492682926829268,
10862838,8828.125,2256,-1.38320049049663,-15696,-9.62354383813611,-3888,2.38381361128142,-2,3.17073170731707,-52,0.121951219512195,-11,0.670731707317073,-78,0.339130434782609,47,0.204347826086957,100,-0.48780487804878,
10863478,8847.65625,2240,-1.37339055793991,-15632,-9.58430410790926,-3856,2.364193746168,-3,3.04878048780488,-50,0.182926829268293,-13,0.792682926829268,-76,0.330434782608696,46,0.2,100,-0.48780487804878,
10864118,8867.1875,2272,-1.39301042305334,-15600,-9.56468424279583,-3808,2.33476394849785,-1,2.74390243902439,-45,0.0609756097560976,-18,1.09756097560976,-77,0.334782608695652,45,0.195652173913043,99,-0.482926829268293,
10864758,8886.71875,2288,-1.40282035561006,-15472,-9.48620478234212,-3776,2.31514408338443,13,2.5,-41,-0.792682926829268,-18,1.09756097560976,-75,0.326086956521739,45,0.195652173913043,99,-0.482926829268293,
10865398,8906.25,2208,-1.35377069282649,-15552,-9.53525444512569,-3840,2.35438381361128,18,2.5609756097561,-42,-1.09756097560976,-19,1.15853658536585,-75,0.326086956521739,44,0.191304347826087,100,-0.48780487804878,
10866038,8925.78125,2160,-1.32434089515635,-15552,-9.53525444512569,-3904,2.39362354383814,17,2.5,-41,-1.03658536585366,-15,0.914634146341463,-76,0.330434782608696,44,0.191304347826087,100,-0.48780487804878,
10866678,8945.3125,2128,-1.30472103004292,-15648,-9.59411404046597,-3904,2.39362354383814,8,2.74390243902439,-45,-0.487804878048781,-12,0.731707317073171,-75,0.326086956521739,45,0.195652173913043,100,-0.48780487804878,
10867318,8964.84375,2128,-1.30472103004292,-15648,-9.59411404046597,-3920,2.40343347639485,-1,2.98780487804878,-49,0.0609756097560976,-10,0.609756097560976,-75,0.326086956521739,42,0.182608695652174,100,-0.48780487804878,
10867958,8984.375,2208,-1.35377069282649,-15744,-9.65297363580625,-3792,2.32495401594114,-10,3.29268292682927,-54,0.609756097560976,-10,0.609756097560976,-76,0.330434782608696,43,0.18695652173913,100,-0.48780487804878,
10868598,9003.90625,2208,-1.35377069282649,-15744,-9.65297363580625,-3840,2.35438381361128,-16,3.47560975609756,-57,0.975609756097561,-14,0.853658536585366,-76,0.330434782608696,45,0.195652173913043,101,-0.492682926829268,
10869238,9023.4375,2208,-1.35377069282649,-15696,-9.62354383813611,-3792,2.32495401594114,-17,3.35365853658537,-55,1.03658536585366,-16,0.975609756097561,-74,0.321739130434783,42,0.182608695652174,100,-0.48780487804878,
10869878,9042.96875,2192,-1.34396076026977,-15712,-9.63335377069283,-3744,2.295524218271,-15,3.17073170731707,-52,0.914634146341463,-20,1.21951219512195,-75,0.326086956521739,43,0.18695652173913,99,-0.482926829268293,
10870518,9062.5,2160,-1.32434089515635,-15616,-9.57449417535254,-3856,2.364193746168,-11,2.74390243902439,-45,0.670731707317073,-20,1.21951219512195,-76,0.330434782608696,46,0.2,100,-0.48780487804878,
10871158,9082.03125,2112,-1.2949110974862,-15568,-9.5450643776824,-3888,2.38381361128142,7,2.07317073170732,-34,-0.426829268292683,-12,0.731707317073171,-76,0.330434782608696,48,0.208695652173913,100,-0.48780487804878,
10871798,9101.5625,2048,-1.25567136725935,-15536,-9.52544451256898,-3888,2.38381361128142,36,1.70731707317073,-28,-2.19512195121951,6,-0.365853658536585,-75,0.326086956521739,43,0.18695652173913,100,-0.48780487804878,
10872438,9121.09375,2064,-1.26548129981606,-15536,-9.52544451256898,-3952,2.42305334150828,40,1.76829268292683,-29,-2.4390243902439,10,-0.609756097560976,-76,0.330434782608696,46,0.2,100,-0.48780487804878,
10873078,9140.625,2096,-1.28510116492949,-15568,-9.5450643776824,-3936,2.41324340895156,27,2.25609756097561,-37,-1.64634146341463,15,-0.914634146341463,-77,0.334782608695652,47,0.204347826086957,98,-0.478048780487805,
10873718,9160.15625,2048,-1.25567136725935,-15552,-9.53525444512569,-3984,2.4426732066217,4,2.86585365853659,-47,-0.24390243902439,12,-0.731707317073171,-74,0.321739130434783,42,0.182608695652174,101,-0.492682926829268,
10874358,9179.6875,1984,-1.2164316370325,-15648,-9.59411404046597,-3968,2.43286327406499,-14,3.23170731707317,-53,0.853658536585366,11,-0.670731707317073,-75,0.326086956521739,43,0.18695652173913,100,-0.48780487804878,
10874998,9199.21875,2096,-1.28510116492949,-15696,-9.62354383813611,-3904,2.39362354383814,-29,3.90243902439024,-64,1.76829268292683,8,-0.487804878048781,-75,0.326086956521739,46,0.2,99,-0.482926829268293,
10875638,9218.75,2192,-1.34396076026977,-15744,-9.65297363580625,-3808,2.33476394849785,-41,4.02439024390244,-66,2.5,5,-0.304878048780488,-74,0.321739130434783,46,0.2,99,-0.482926829268293,
10876278,9238.28125,2272,-1.39301042305334,-15728,-9.64316370324954,-3792,2.32495401594114,-44,3.65853658536585,-60,2.68292682926829,5,-0.304878048780488,-75,0.326086956521739,45,0.195652173913043,100,-0.48780487804878,
10876918,9257.8125,2288,-1.40282035561006,-15760,-9.66278356836297,-3744,2.295524218271,-42,3.35365853658537,-55,2.5609756097561,0,0,-76,0.330434782608696,43,0.18695652173913,101,-0.492682926829268,
10877558,9277.34375,2336,-1.4322501532802,-15696,-9.62354383813611,-3744,2.295524218271,-34,2.98780487804878,-49,2.07317073170732,-6,0.365853658536585,-76,0.330434782608696,50,0.217391304347826,100,-0.48780487804878,
10878198,9296.875,2336,-1.4322501532802,-15664,-9.60392397302268,-3728,2.28571428571429,-24,2.5,-41,1.46341463414634,-10,0.609756097560976,-74,0.321739130434783,42,0.182608695652174,100,-0.48780487804878,
10878838,9316.40625,2304,-1.41263028816677,-15600,-9.56468424279583,-3744,2.295524218271,-17,2.25609756097561,-37,1.03658536585366,-11,0.670731707317073,-77,0.334782608695652,48,0.208695652173913,100,-0.48780487804878,
10879478,9335.9375,2256,-1.38320049049663,-15552,-9.53525444512569,-3920,2.40343347639485,-8,1.95121951219512,-32,0.487804878048781,-10,0.609756097560976,-77,0.334782608695652,47,0.204347826086957,100,-0.48780487804878,
10880118,9355.46875,2224,-1.3635806253832,-15520,-9.51563458001226,-3904,2.39362354383814,-4,1.95121951219512,-32,0.24390243902439,-5,0.304878048780488,-76,0.330434782608696,43,0.18695652173913,99,-0.482926829268293,
10880758,9375,2176,-1.33415082771306,-15376,-9.42734518700184,-3936,2.41324340895156,-4,2.31707317073171,-38,0.24390243902439,-6,0.365853658536585,-75,0.326086956521739,42,0.182608695652174,101,-0.492682926829268,
10881398,9394.53125,2080,-1.27529123237278,-15440,-9.46658491722869,-3936,2.41324340895156,-13,2.6219512195122,-43,0.792682926829268,-2,0.121951219512195,-77,0.334782608695652,46,0.2,101,-0.492682926829268,
10882038,9414.0625,2096,-1.28510116492949,-15440,-9.46658491722869,-3968,2.43286327406499,-28,3.17073170731707,-52,1.70731707317073,-2,0.121951219512195,-77,0.334782608695652,46,0.2,101,-0.492682926829268,
10882678,9433.59375,2096,-1.28510116492949,-15520,-9.51563458001226,-4064,2.49172286940527,-40,3.17073170731707,-52,2.4390243902439,-4,0.24390243902439,-75,0.326086956521739,42,0.182608695652174,102,-0.497560975609756,
10883318,9453.125,2256,-1.38320049049663,-15616,-9.57449417535254,-3936,2.41324340895156,-36,3.29268292682927,-54,2.19512195121951,-1,0.0609756097560976,-76,0.330434782608696,44,0.191304347826087,100,-0.48780487804878,
10883958,9472.65625,2304,-1.41263028816677,-15680,-9.6137339055794,-3904,2.39362354383814,-18,2.98780487804878,-49,1.09756097560976,-3,0.182926829268293,-75,0.326086956521739,45,0.195652173913043,100,-0.48780487804878,
10884598,9492.1875,2336,-1.4322501532802,-15744,-9.65297363580625,-3904,2.39362354383814,-3,2.6219512195122,-43,0.182926829268293,1,-0.0609756097560976,-76,0.330434782608696,46,0.2,99,-0.482926829268293,
10885238,9511.71875,2416,-1.48129981606376,-15696,-9.62354383813611,-3808,2.33476394849785,10,2.19512195121951,-36,-0.609756097560976,-4,0.24390243902439,-76,0.330434782608696,43,0.18695652173913,101,-0.492682926829268,
10885878,9531.25,2432,-1.49110974862048,-15696,-9.62354383813611,-3856,2.364193746168,13,1.70731707317073,-28,-0.792682926829268,-14,0.853658536585366,-75,0.326086956521739,45,0.195652173913043,102,-0.497560975609756,
10886518,9550.78125,2448,-1.50091968117719,-15600,-9.56468424279583,-3824,2.34457388105457,22,1.28048780487805,-21,-1.34146341463415,-25,1.52439024390244,-75,0.326086956521739,46,0.2,100,-0.48780487804878,
10887158,9570.3125,2384,-1.46167995095034,-15648,-9.59411404046597,-4000,2.45248313917842,46,1.28048780487805,-21,-2.80487804878049,-28,1.70731707317073,-75,0.326086956521739,44,0.191304347826087,100,-0.48780487804878,
10887798,9589.84375,2304,-1.41263028816677,-15584,-9.55487431023912,-4064,2.49172286940527,63,1.58536585365854,-26,-3.84146341463415,-22,1.34146341463415,-77,0.334782608695652,43,0.18695652173913,101,-0.492682926829268,
10888438,9609.375,2240,-1.37339055793991,-15504,-9.50582464745555,-4000,2.45248313917842,70,2.19512195121951,-36,-4.26829268292683,-15,0.914634146341463,-77,0.334782608695652,43,0.18695652173913,101,-0.492682926829268,
10889078,9628.90625,2160,-1.32434089515635,-15504,-9.50582464745555,-3968,2.43286327406499,58,2.80487804878049,-46,-3.53658536585366,-12,0.731707317073171,-76,0.330434782608696,43,0.18695652173913,100,-0.48780487804878,
10889718,9648.4375,2160,-1.32434089515635,-15424,-9.45677498467198,-3952,2.42305334150828,44,3.23170731707317,-53,-2.68292682926829,-19,1.15853658536585,-75,0.326086956521739,47,0.204347826086957,99,-0.482926829268293,
10890358,9667.96875,2192,-1.34396076026977,-15600,-9.56468424279583,-3952,2.42305334150828,22,3.78048780487805,-62,-1.34146341463415,-24,1.46341463414634,-76,0.330434782608696,47,0.204347826086957,101,-0.492682926829268,
10890998,9687.5,2272,-1.39301042305334,-15648,-9.59411404046597,-3808,2.33476394849785,4,4.26829268292683,-70,-0.24390243902439,-26,1.58536585365854,-76,0.330434782608696,48,0.208695652173913,99,-0.482926829268293,
10891638,9707.03125,2304,-1.41263028816677,-15696,-9.62354383813611,-3664,2.24647455548743,-2,4.26829268292683,-70,0.121951219512195,-28,1.70731707317073,-75,0.326086956521739,44,0.191304347826087,100,-0.48780487804878,
10892278,9726.5625,2304,-1.41263028816677,-15696,-9.62354383813611,-3616,2.21704475781729,-4,4.08536585365854,-67,0.24390243902439,-29,1.76829268292683,-75,0.326086956521739,48,0.208695652173913,100,-0.48780487804878,
10892918,9746.09375,2304,-1.41263028816677,-15760,-9.66278356836297,-3504,2.14837522992029,2,3.47560975609756,-57,-0.121951219512195,-34,2.07317073170732,-75,0.326086956521739,44,0.191304347826087,100,-0.48780487804878,
10893558,9765.625,2288,-1.40282035561006,-15760,-9.66278356836297,-3472,2.12875536480687,1,2.5,-41,-0.0609756097560976,-38,2.31707317073171,-76,0.330434782608696,47,0.204347826086957,99,-0.482926829268293,
10894198,9785.15625,2240,-1.37339055793991,-15712,-9.63335377069283,-3536,2.16799509503372,9,1.70731707317073,-28,-0.548780487804878,-40,2.4390243902439,-74,0.321739130434783,43,0.18695652173913,101,-0.492682926829268,
10894838,9804.6875,2176,-1.33415082771306,-15632,-9.58430410790926,-3552,2.17780502759044,15,1.34146341463415,-22,-0.914634146341463,-33,2.01219512195122,-78,0.339130434782609,43,0.18695652173913,101,-0.492682926829268,
10895478,9824.21875,2016,-1.23605150214592,-15632,-9.58430410790926,-3696,2.26609442060086,18,0.853658536585366,-14,-1.09756097560976,-27,1.64634146341463,-77,0.334782608695652,48,0.208695652173913,99,-0.482926829268293,
10896118,9843.75,2032,-1.24586143470264,-15616,-9.57449417535254,-3664,2.24647455548743,11,0.853658536585366,-14,-0.670731707317073,-15,0.914634146341463,-75,0.326086956521739,48,0.208695652173913,100,-0.48780487804878,
10896758,9863.28125,2032,-1.24586143470264,-15536,-9.52544451256898,-3744,2.295524218271,3,1.09756097560976,-18,-0.182926829268293,-8,0.487804878048781,-77,0.334782608695652,44,0.191304347826087,100,-0.48780487804878,
10897398,9882.8125,1968,-1.20662170447578,-15552,-9.53525444512569,-3872,2.37400367872471,-17,1.34146341463415,-22,1.03658536585366,-1,0.0609756097560976,-78,0.339130434782609,45,0.195652173913043,99,-0.482926829268293,
10898038,9902.34375,2016,-1.23605150214592,-15648,-9.59411404046597,-3888,2.38381361128142,-30,1.64634146341463,-27,1.82926829268293,-1,0.0609756097560976,-75,0.326086956521739,45,0.195652173913043,99,-0.482926829268293,
10898678,9921.875,2080,-1.27529123237278,-15680,-9.6137339055794,-3776,2.31514408338443,-44,2.13414634146341,-35,2.68292682926829,1,-0.0609756097560976,-75,0.326086956521739,44,0.191304347826087,99,-0.482926829268293,
10899318,9941.40625,2192,-1.34396076026977,-15664,-9.60392397302268,-3792,2.32495401594114,-50,2.19512195121951,-36,3.04878048780488,8,-0.487804878048781,-76,0.330434782608696,49,0.21304347826087,99,-0.482926829268293,
10899958,9960.9375,2240,-1.37339055793991,-15696,-9.62354383813611,-3776,2.31514408338443,-45,2.19512195121951,-36,2.74390243902439,10,-0.609756097560976,-78,0.339130434782609,47,0.204347826086957,99,-0.482926829268293,
10900598,9980.46875,2272,-1.39301042305334,-15680,-9.6137339055794,-3808,2.33476394849785,-36,2.07317073170732,-34,2.19512195121951,13,-0.792682926829268,-77,0.334782608695652,46,0.2,99,-0.482926829268293,
10901238,10000,2304,-1.41263028816677,-15632,-9.58430410790926,-3840,2.35438381361128,-24,1.89024390243902,-31,1.46341463414634,11,-0.670731707317073,-75,0.326086956521739,44,0.191304347826087,101,-0.492682926829268,
10901878,10019.53125,2320,-1.42244022072348,-15664,-9.60392397302268,-3824,2.34457388105457,-19,1.58536585365854,-26,1.15853658536585,10,-0.609756097560976,-76,0.330434782608696,47,0.204347826086957,101,-0.492682926829268,
10902518,10039.0625,2336,-1.4322501532802,-15600,-9.56468424279583,-3792,2.32495401594114,-11,1.89024390243902,-31,0.670731707317073,9,-0.548780487804878,-77,0.334782608695652,46,0.2,99,-0.482926829268293,
10903158,10058.59375,2320,-1.42244022072348,-15632,-9.58430410790926,-3888,2.38381361128142,-2,2.19512195121951,-36,0.121951219512195,11,-0.670731707317073,-77,0.334782608695652,43,0.18695652173913,102,-0.497560975609756,
10903798,10078.125,2336,-1.4322501532802,-15632,-9.58430410790926,-3936,2.41324340895156,3,2.31707317073171,-38,-0.182926829268293,8,-0.487804878048781,-75,0.326086956521739,46,0.2,100,-0.48780487804878,
10904438,10097.65625,2368,-1.45187001839362,-15648,-9.59411404046597,-3904,2.39362354383814,2,2.92682926829268,-48,-0.121951219512195,5,-0.304878048780488,-76,0.330434782608696,47,0.204347826086957,99,-0.482926829268293,
10905078,10117.1875,2352,-1.44206008583691,-15664,-9.60392397302268,-3984,2.4426732066217,-2,3.17073170731707,-52,0.121951219512195,-1,0.0609756097560976,-76,0.330434782608696,47,0.204347826086957,100,-0.48780487804878,
10905718,10136.71875,2352,-1.44206008583691,-15664,-9.60392397302268,-3968,2.43286327406499,-7,3.41463414634146,-56,0.426829268292683,-4,0.24390243902439,-76,0.330434782608696,46,0.2,102,-0.497560975609756,
10906358,10156.25,2368,-1.45187001839362,-15616,-9.57449417535254,-3808,2.33476394849785,-14,3.71951219512195,-61,0.853658536585366,-10,0.609756097560976,-77,0.334782608695652,45,0.195652173913043,100,-0.48780487804878,
10906998,10175.78125,2400,-1.47148988350705,-15600,-9.56468424279583,-3840,2.35438381361128,-9,3.90243902439024,-64,0.548780487804878,-15,0.914634146341463,-78,0.339130434782609,52,0.226086956521739,100,-0.48780487804878,
10907638,10195.3125,2384,-1.46167995095034,-15648,-9.59411404046597,-3808,2.33476394849785,1,4.02439024390244,-66,-0.0609756097560976,-18,1.09756097560976,-77,0.334782608695652,51,0.221739130434783,99,-0.482926829268293,
10908278,10214.84375,2320,-1.42244022072348,-15536,-9.52544451256898,-3856,2.364193746168,15,3.59756097560976,-59,-0.914634146341463,-23,1.40243902439024,-77,0.334782608695652,44,0.191304347826087,102,-0.497560975609756,
10908918,10234.375,2320,-1.42244022072348,-15568,-9.5450643776824,-3696,2.26609442060086,22,3.47560975609756,-57,-1.34146341463415,-24,1.46341463414634,-76,0.330434782608696,45,0.195652173913043,99,-0.482926829268293,
10909558,10253.90625,2320,-1.42244022072348,-15648,-9.59411404046597,-3680,2.25628448804414,23,3.35365853658537,-55,-1.40243902439024,-25,1.52439024390244,-78,0.339130434782609,45,0.195652173913043,100,-0.48780487804878,
10910198,10273.4375,2320,-1.42244022072348,-15744,-9.65297363580625,-3712,2.27590435315757,32,3.10975609756098,-51,-1.95121951219512,-21,1.28048780487805,-79,0.343478260869565,44,0.191304347826087,100,-0.48780487804878,
10910838,10292.96875,2288,-1.40282035561006,-15664,-9.60392397302268,-3792,2.32495401594114,43,2.92682926829268,-48,-2.6219512195122,-20,1.21951219512195,-78,0.339130434782609,48,0.208695652173913,100,-0.48780487804878,
10911478,10312.5,2288,-1.40282035561006,-15632,-9.58430410790926,-3776,2.31514408338443,48,2.74390243902439,-45,-2.92682926829268,-17,1.03658536585366,-75,0.326086956521739,45,0.195652173913043,100,-0.48780487804878,
10912118,10332.03125,2208,-1.35377069282649,-15680,-9.6137339055794,-3744,2.295524218271,54,2.86585365853659,-47,-3.29268292682927,-18,1.09756097560976,-76,0.330434782608696,44,0.191304347826087,99,-0.482926829268293,
10912758,10351.5625,2144,-1.31453096259963,-15760,-9.66278356836297,-3808,2.33476394849785,42,2.80487804878049,-46,-2.5609756097561,-21,1.28048780487805,-78,0.339130434782609,48,0.208695652173913,100,-0.48780487804878,
10913398,10371.09375,2048,-1.25567136725935,-15776,-9.67259350091968,-3776,2.31514408338443,30,2.74390243902439,-45,-1.82926829268293,-15,0.914634146341463,-77,0.334782608695652,47,0.204347826086957,99,-0.482926829268293,
10914038,10390.625,2064,-1.26548129981606,-15776,-9.67259350091968,-3776,2.31514408338443,32,2.92682926829268,-48,-1.95121951219512,-9,0.548780487804878,-75,0.326086956521739,43,0.18695652173913,100,-0.48780487804878,
10914678,10410.15625,2112,-1.2949110974862,-15760,-9.66278356836297,-3744,2.295524218271,40,2.74390243902439,-45,-2.4390243902439,-4,0.24390243902439,-76,0.330434782608696,44,0.191304347826087,100,-0.48780487804878,
10915318,10429.6875,2096,-1.28510116492949,-15696,-9.62354383813611,-3872,2.37400367872471,40,2.74390243902439,-45,-2.4390243902439,1,-0.0609756097560976,-76,0.330434782608696,48,0.208695652173913,99,-0.482926829268293,
10915958,10449.21875,2160,-1.32434089515635,-15680,-9.6137339055794,-3808,2.33476394849785,39,2.92682926829268,-48,-2.37804878048781,6,-0.365853658536585,-75,0.326086956521739,47,0.204347826086957,99,-0.482926829268293,
10916598,10468.75,2112,-1.2949110974862,-15712,-9.63335377069283,-3776,2.31514408338443,46,2.68292682926829,-44,-2.80487804878049,7,-0.426829268292683,-77,0.334782608695652,45,0.195652173913043,99,-0.482926829268293,
10917238,10488.28125,2160,-1.32434089515635,-15664,-9.60392397302268,-3808,2.33476394849785,48,2.98780487804878,-49,-2.92682926829268,12,-0.731707317073171,-76,0.330434782608696,47,0.204347826086957,100,-0.48780487804878,
10917878,10507.8125,2160,-1.32434089515635,-15632,-9.58430410790926,-3872,2.37400367872471,47,3.04878048780488,-50,-2.86585365853659,16,-0.975609756097561,-75,0.326086956521739,47,0.204347826086957,100,-0.48780487804878,
10918518,10527.34375,2096,-1.28510116492949,-15664,-9.60392397302268,-3856,2.364193746168,41,3.23170731707317,-53,-2.5,19,-1.15853658536585,-76,0.330434782608696,50,0.217391304347826,98,-0.478048780487805,
10919158,10546.875,2224,-1.3635806253832,-15664,-9.60392397302268,-3824,2.34457388105457,31,3.17073170731707,-52,-1.89024390243902,19,-1.15853658536585,-76,0.330434782608696,44,0.191304347826087,100,-0.48780487804878,
10919798,10566.40625,2256,-1.38320049049663,-15680,-9.6137339055794,-3744,2.295524218271,31,3.17073170731707,-52,-1.89024390243902,19,-1.15853658536585,-75,0.326086956521739,44,0.191304347826087,99,-0.482926829268293,
10920438,10585.9375,2288,-1.40282035561006,-15696,-9.62354383813611,-3808,2.33476394849785,23,3.59756097560976,-59,-1.40243902439024,15,-0.914634146341463,-73,0.317391304347826,43,0.18695652173913,98,-0.478048780487805,
10921078,10605.46875,2272,-1.39301042305334,-15568,-9.5450643776824,-3744,2.295524218271,23,3.53658536585366,-58,-1.40243902439024,8,-0.487804878048781,-73,0.317391304347826,42,0.182608695652174,99,-0.482926829268293,
10921718,10625,2304,-1.41263028816677,-15616,-9.57449417535254,-3744,2.295524218271,23,3.41463414634146,-56,-1.40243902439024,3,-0.182926829268293,-74,0.321739130434783,46,0.2,100,-0.48780487804878,
10922358,10644.53125,2272,-1.39301042305334,-15616,-9.57449417535254,-3712,2.27590435315757,23,3.53658536585366,-58,-1.40243902439024,6,-0.365853658536585,-75,0.326086956521739,46,0.2,100,-0.48780487804878,
10922998,10664.0625,2272,-1.39301042305334,-15616,-9.57449417535254,-3696,2.26609442060086,24,3.23170731707317,-53,-1.46341463414634,3,-0.182926829268293,-73,0.317391304347826,42,0.182608695652174,100,-0.48780487804878,
10923638,10683.59375,2272,-1.39301042305334,-15600,-9.56468424279583,-3696,2.26609442060086,24,3.17073170731707,-52,-1.46341463414634,-2,0.121951219512195,-73,0.317391304347826,47,0.204347826086957,100,-0.48780487804878,
10924278,10703.125,2240,-1.37339055793991,-15616,-9.57449417535254,-3744,2.295524218271,20,3.10975609756098,-51,-1.21951219512195,-6,0.365853658536585,-74,0.321739130434783,45,0.195652173913043,100,-0.48780487804878,
