Shimmer,Shimmer,Shimmer,Shimmer,Shimmer,Shimmer,Shimmer,Shimmer,Shimmer,Shimmer,Shimmer,Shimmer,Shimmer,Shimmer,Shimmer,Shimmer,Shimmer,Shimmer,Shimmer,Shimmer,
Timestamp,Timestamp,Wide Range Accelerometer X,Wide Range Accelerometer X,Wide Range Accelerometer Y,Wide Range Accelerometer Y,Wide Range Accelerometer Z,Wide Range Accelerometer Z,Gyroscope X,Gyroscope X,Gyroscope Y,Gyroscope Y,Gyroscope Z,Gyroscope Z,Magnetometer X,Magnetometer X,Magnetometer Y,Magnetometer Y,Magnetometer Z,Magnetometer Z,
RAW,CAL,RAW,CAL,RAW,CAL,RAW,CAL,RAW,CAL,RAW,CAL,RAW,CAL,RAW,CAL,RAW,CAL,RAW,CAL,
no units,mSecs,no units,m/(sec^2),no units,m/(sec^2),no units,m/(sec^2),no units,deg/sec,no units,deg/sec,no units,deg/sec,no units,local,no units,local,no units,local,
9301034,0,2352,-1.44206008583691,-15520,-9.51563458001226,-4384,2.68792152053955,-8,2.92682926829268,-48,0.487804878048781,-9,0.548780487804878,-73,0.317391304347826,40,0.173913043478261,94,-0.458536585365854,
9301674,19.53125,2336,-1.4322501532802,-15488,-9.49601471489883,-4320,2.64868179031269,-5,3.10975609756098,-51,0.304878048780488,-9,0.548780487804878,-72,0.31304347826087,41,0.178260869565217,94,-0.458536585365854,
9302314,39.0625,2320,-1.42244022072348,-15488,-9.49601471489883,-4368,2.67811158798283,-3,3.17073170731707,-52,0.182926829268293,-7,0.426829268292683,-72,0.31304347826087,40,0.173913043478261,93,-0.453658536585366,
9302954,58.59375,2352,-1.44206008583691,-15472,-9.48620478234212,-4336,2.6584917228694,-10,3.23170731707317,-53,0.609756097560976,-7,0.426829268292683,-72,0.31304347826087,45,0.195652173913043,92,-0.448780487804878,
9303594,78.125,2352,-1.44206008583691,-15488,-9.49601471489883,-4384,2.68792152053955,-7,3.17073170731707,-52,0.426829268292683,-7,0.426829268292683,-74,0.321739130434783,45,0.195652173913043,94,-0.458536585365854,
9304234,97.65625,2432,-1.49110974862048,-15504,-9.50582464745555,-4336,2.6584917228694,-8,3.29268292682927,-54,0.487804878048781,-4,0.24390243902439,-74,0.321739130434783,45,0.195652173913043,93,-0.453658536585366,
9304874,117.1875,2448,-1.50091968117719,-15440,-9.46658491722869,-4320,2.64868179031269,-3,3.23170731707317,-53,0.182926829268293,-3,0.182926829268293,-73,0.317391304347826,40,0.173913043478261,95,-0.463414634146341,
9305514,136.71875,2368,-1.45187001839362,-15424,-9.45677498467198,-4256,2.60944206008584,-1,3.41463414634146,-56,0.0609756097560976,-2,0.121951219512195,-72,0.31304347826087,40,0.173913043478261,94,-0.458536585365854,
9306154,156.25,2368,-1.45187001839362,-15424,-9.45677498467198,-4272,2.61925199264255,-9,3.29268292682927,-54,0.548780487804878,-1,0.0609756097560976,-73,0.317391304347826,42,0.182608695652174,92,-0.448780487804878,
9306794,175.78125,2320,-1.42244022072348,-15408,-9.44696505211527,-4224,2.58982219497241,-6,3.17073170731707,-52,0.365853658536585,-8,0.487804878048781,-73,0.317391304347826,42,0.182608695652174,92,-0.448780487804878,
9307434,195.3125,2368,-1.45187001839362,-15424,-9.45677498467198,-4304,2.63887185775598,-4,3.29268292682927,-54,0.24390243902439,-2,0.121951219512195,-72,0.31304347826087,40,0.173913043478261,95,-0.463414634146341,
9308074,214.84375,2464,-1.51072961373391,-15440,-9.46658491722869,-4256,2.60944206008584,-9,3.17073170731707,-52,0.548780487804878,-2,0.121951219512195,-72,0.31304347826087,41,0.178260869565217,94,-0.458536585365854,
9308714,234.375,2400,-1.47148988350705,-15440,-9.46658491722869,-4256,2.60944206008584,-1,2.98780487804878,-49,0.0609756097560976,-5,0.304878048780488,-72,0.31304347826087,43,0.18695652173913,93,-0.453658536585366,
9309354,253.90625,2416,-1.48129981606376,-15504,-9.50582464745555,-4336,2.6584917228694,-5,3.29268292682927,-54,0.304878048780488,-4,0.24390243902439,-73,0.317391304347826,44,0.191304347826087,92,-0.448780487804878,
9309994,273.4375,2400,-1.47148988350705,-15440,-9.46658491722869,-4336,2.6584917228694,-5,3.29268292682927,-54,0.304878048780488,-8,0.487804878048781,-75,0.326086956521739,42,0.182608695652174,94,-0.458536585365854,
9310634,292.96875,2400,-1.47148988350705,-15392,-9.43715511955855,-4432,2.71735131820969,-7,2.98780487804878,-49,0.426829268292683,-8,0.487804878048781,-75,0.326086956521739,42,0.182608695652174,93,-0.453658536585366,
9311274,312.5,2448,-1.50091968117719,-15344,-9.40772532188841,-4336,2.6584917228694,-9,2.80487804878049,-46,0.548780487804878,-11,0.670731707317073,-72,0.31304347826087,42,0.182608695652174,93,-0.453658536585366,
9311914,332.03125,2400,-1.47148988350705,-15344,-9.40772532188841,-4272,2.61925199264255,-8,2.98780487804878,-49,0.487804878048781,-14,0.853658536585366,-73,0.317391304347826,40,0.173913043478261,93,-0.453658536585366,
9312554,351.5625,2352,-1.44206008583691,-15456,-9.47639484978541,-4304,2.63887185775598,-6,3.04878048780488,-50,0.365853658536585,-10,0.609756097560976,-73,0.317391304347826,45,0.195652173913043,94,-0.458536585365854,
9313194,371.09375,2400,-1.47148988350705,-15472,-9.48620478234212,-4304,2.63887185775598,-9,3.17073170731707,-52,0.548780487804878,-7,0.426829268292683,-73,0.317391304347826,45,0.195652173913043,94,-0.458536585365854,
9313834,390.625,2448,-1.50091968117719,-15440,-9.46658491722869,-4384,2.68792152053955,-15,2.98780487804878,-49,0.914634146341463,-4,0.24390243902439,-72,0.31304347826087,40,0.173913043478261,93,-0.453658536585366,
9314474,410.15625,2432,-1.49110974862048,-15408,-9.44696505211527,-4336,2.6584917228694,-8,2.74390243902439,-45,0.487804878048781,-3,0.182926829268293,-73,0.317391304347826,44,0.191304347826087,92,-0.448780487804878,
9315114,429.6875,2448,-1.50091968117719,-15376,-9.42734518700184,-4256,2.60944206008584,2,2.86585365853659,-47,-0.121951219512195,-5,0.304878048780488,-74,0.321739130434783,44,0.191304347826087,94,-0.458536585365854,
9315754,449.21875,2400,-1.47148988350705,-15344,-9.40772532188841,-4256,2.60944206008584,3,3.29268292682927,-54,-0.182926829268293,-6,0.365853658536585,-75,0.326086956521739,43,0.18695652173913,92,-0.448780487804878,
9316394,468.75,2384,-1.46167995095034,-15392,-9.43715511955855,-4384,2.68792152053955,0,3.17073170731707,-52,0,-7,0.426829268292683,-73,0.317391304347826,40,0.173913043478261,94,-0.458536585365854,
9317034,488.28125,2352,-1.44206008583691,-15488,-9.49601471489883,-4400,2.69773145309626,-11,3.29268292682927,-54,0.670731707317073,-9,0.548780487804878,-73,0.317391304347826,41,0.178260869565217,94,-0.458536585365854,
9317674,507.8125,2336,-1.4322501532802,-15552,-9.53525444512569,-4288,2.62906192519926,-15,3.23170731707317,-53,0.914634146341463,-8,0.487804878048781,-73,0.317391304347826,44,0.191304347826087,92,-0.448780487804878,
9318314,527.34375,2336,-1.4322501532802,-15504,-9.50582464745555,-4352,2.66830165542612,-10,2.98780487804878,-49,0.609756097560976,-12,0.731707317073171,-74,0.321739130434783,44,0.191304347826087,92,-0.448780487804878,
9318954,546.875,2336,-1.4322501532802,-15440,-9.46658491722869,-4368,2.67811158798283,-10,3.29268292682927,-54,0.609756097560976,-13,0.792682926829268,-72,0.31304347826087,43,0.18695652173913,94,-0.458536585365854,
9319594,566.40625,2368,-1.45187001839362,-15392,-9.43715511955855,-4400,2.69773145309626,-12,3.23170731707317,-53,0.731707317073171,-10,0.609756097560976,-74,0.321739130434783,43,0.18695652173913,94,-0.458536585365854,
9320234,585.9375,2416,-1.48129981606376,-15296,-9.37829552421827,-4400,2.69773145309626,-11,2.92682926829268,-48,0.670731707317073,-7,0.426829268292683,-72,0.31304347826087,43,0.18695652173913,93,-0.453658536585366,
9320874,605.46875,2448,-1.50091968117719,-15408,-9.44696505211527,-4352,2.66830165542612,-2,2.98780487804878,-49,0.121951219512195,-3,0.182926829268293,-77,0.334782608695652,48,0.208695652173913,93,-0.453658536585366,
9321514,625,2432,-1.49110974862048,-15456,-9.47639484978541,-4336,2.6584917228694,1,2.98780487804878,-49,-0.0609756097560976,-2,0.121951219512195,-76,0.330434782608696,41,0.178260869565217,95,-0.463414634146341,
9322154,644.53125,2432,-1.49110974862048,-15504,-9.50582464745555,-4384,2.68792152053955,2,3.04878048780488,-50,-0.121951219512195,-2,0.121951219512195,-75,0.326086956521739,40,0.173913043478261,94,-0.458536585365854,
9322794,664.0625,2448,-1.50091968117719,-15456,-9.47639484978541,-4336,2.6584917228694,-6,3.10975609756098,-51,0.365853658536585,-7,0.426829268292683,-73,0.317391304347826,40,0.173913043478261,93,-0.453658536585366,
9323434,683.59375,2480,-1.52053954629062,-15440,-9.46658491722869,-4352,2.66830165542612,-4,2.98780487804878,-49,0.24390243902439,-9,0.548780487804878,-73,0.317391304347826,40,0.173913043478261,92,-0.448780487804878,
9324074,703.125,2464,-1.51072961373391,-15440,-9.46658491722869,-4320,2.64868179031269,-3,3.17073170731707,-52,0.182926829268293,-10,0.609756097560976,-74,0.321739130434783,45,0.195652173913043,93,-0.453658536585366,
9324714,722.65625,2496,-1.53034947884733,-15408,-9.44696505211527,-4336,2.6584917228694,-2,3.29268292682927,-54,0.121951219512195,-11,0.670731707317073,-73,0.317391304347826,46,0.2,92,-0.448780487804878,
9325354,742.1875,2416,-1.48129981606376,-15424,-9.45677498467198,-4368,2.67811158798283,-4,3.10975609756098,-51,0.24390243902439,-12,0.731707317073171,-72,0.31304347826087,39,0.169565217391304,95,-0.463414634146341,
9325994,761.71875,2416,-1.48129981606376,-15424,-9.45677498467198,-4320,2.64868179031269,-4,3.10975609756098,-51,0.24390243902439,-8,0.487804878048781,-74,0.321739130434783,43,0.18695652173913,94,-0.458536585365854,
9326634,781.25,2448,-1.50091968117719,-15456,-9.47639484978541,-4320,2.64868179031269,-3,2.98780487804878,-49,0.182926829268293,-13,0.792682926829268,-74,0.321739130434783,45,0.195652173913043,94,-0.458536585365854,
9327274,800.78125,2512,-1.54015941140405,-15488,-9.49601471489883,-4352,2.66830165542612,1,2.98780487804878,-49,-0.0609756097560976,-15,0.914634146341463,-74,0.321739130434783,40,0.173913043478261,94,-0.458536585365854,
9327914,820.3125,2384,-1.46167995095034,-15488,-9.49601471489883,-4384,2.68792152053955,3,2.98780487804878,-49,-0.182926829268293,-15,0.914634146341463,-73,0.317391304347826,42,0.182608695652174,93,-0.453658536585366,
9328554,839.84375,2432,-1.49110974862048,-15424,-9.45677498467198,-4336,2.6584917228694,2,3.17073170731707,-52,-0.121951219512195,-13,0.792682926829268,-73,0.317391304347826,43,0.18695652173913,93,-0.453658536585366,
9329194,859.375,2448,-1.50091968117719,-15456,-9.47639484978541,-4368,2.67811158798283,1,2.98780487804878,-49,-0.0609756097560976,-10,0.609756097560976,-75,0.326086956521739,43,0.18695652173913,91,-0.44390243902439,
9329834,878.90625,2432,-1.49110974862048,-15440,-9.46658491722869,-4272,2.61925199264255,1,3.17073170731707,-52,-0.0609756097560976,-11,0.670731707317073,-73,0.317391304347826,44,0.191304347826087,95,-0.463414634146341,
9330474,898.4375,2416,-1.48129981606376,-15424,-9.45677498467198,-4320,2.64868179031269,-4,3.23170731707317,-53,0.24390243902439,-9,0.548780487804878,-75,0.326086956521739,44,0.191304347826087,95,-0.463414634146341,
9331114,917.96875,2352,-1.44206008583691,-15504,-9.50582464745555,-4368,2.67811158798283,-3,3.23170731707317,-53,0.182926829268293,-11,0.670731707317073,-73,0.317391304347826,44,0.191304347826087,93,-0.453658536585366,
9331754,937.5,2384,-1.46167995095034,-15424,-9.45677498467198,-4336,2.6584917228694,-6,2.98780487804878,-49,0.365853658536585,-12,0.731707317073171,-74,0.321739130434783,44,0.191304347826087,92,-0.448780487804878,
9332394,957.03125,2432,-1.49110974862048,-15456,-9.47639484978541,-4304,2.63887185775598,-7,3.04878048780488,-50,0.426829268292683,-11,0.670731707317073,-75,0.326086956521739,43,0.18695652173913,92,-0.448780487804878,
9333034,976.5625,2416,-1.48129981606376,-15408,-9.44696505211527,-4304,2.63887185775598,-5,2.98780487804878,-49,0.304878048780488,-8,0.487804878048781,-75,0.326086956521739,42,0.182608695652174,92,-0.448780487804878,
9333674,996.09375,2336,-1.4322501532802,-15440,-9.46658491722869,-4240,2.59963212752912,-1,2.86585365853659,-47,0.0609756097560976,-6,0.365853658536585,-73,0.317391304347826,40,0.173913043478261,92,-0.448780487804878,
9334314,1015.625,2416,-1.48129981606376,-15392,-9.43715511955855,-4208,2.5800122624157,-4,2.74390243902439,-45,0.24390243902439,-4,0.24390243902439,-73,0.317391304347826,40,0.173913043478261,93,-0.453658536585366,
9334954,1035.15625,2400,-1.47148988350705,-15440,-9.46658491722869,-4256,2.60944206008584,1,2.68292682926829,-44,-0.0609756097560976,-5,0.304878048780488,-74,0.321739130434783,46,0.2,94,-0.458536585365854,
9335594,1054.6875,2416,-1.48129981606376,-15392,-9.43715511955855,-4352,2.66830165542612,1,2.6219512195122,-43,-0.0609756097560976,-4,0.24390243902439,-75,0.326086956521739,44,0.191304347826087,94,-0.458536585365854,
9336234,1074.21875,2416,-1.48129981606376,-15424,-9.45677498467198,-4384,2.68792152053955,2,2.74390243902439,-45,-0.121951219512195,-6,0.365853658536585,-73,0.317391304347826,39,0.169565217391304,94,-0.458536585365854,
9336874,1093.75,2416,-1.48129981606376,-15456,-9.47639484978541,-4304,2.63887185775598,1,2.6219512195122,-43,-0.0609756097560976,-7,0.426829268292683,-74,0.321739130434783,41,0.178260869565217,94,-0.458536585365854,
9337514,1113.28125,2464,-1.51072961373391,-15408,-9.44696505211527,-4320,2.64868179031269,1,2.74390243902439,-45,-0.0609756097560976,-5,0.304878048780488,-74,0.321739130434783,43,0.18695652173913,93,-0.453658536585366,
9338154,1132.8125,2416,-1.48129981606376,-15440,-9.46658491722869,-4304,2.63887185775598,3,2.86585365853659,-47,-0.182926829268293,-5,0.304878048780488,-74,0.321739130434783,44,0.191304347826087,93,-0.453658536585366,
9338794,1152.34375,2432,-1.49110974862048,-15424,-9.45677498467198,-4272,2.61925199264255,1,2.80487804878049,-46,-0.0609756097560976,-6,0.365853658536585,-74,0.321739130434783,46,0.2,94,-0.458536585365854,
9339434,1171.875,2480,-1.52053954629062,-15440,-9.46658491722869,-4288,2.62906192519926,-5,2.68292682926829,-44,0.304878048780488,-7,0.426829268292683,-74,0.321739130434783,45,0.195652173913043,94,-0.458536585365854,
9340074,1191.40625,2448,-1.50091968117719,-15424,-9.45677498467198,-4304,2.63887185775598,-2,2.68292682926829,-44,0.121951219512195,-10,0.609756097560976,-74,0.321739130434783,43,0.18695652173913,93,-0.453658536585366,
9340714,1210.9375,2432,-1.49110974862048,-15456,-9.47639484978541,-4336,2.6584917228694,1,2.92682926829268,-48,-0.0609756097560976,-11,0.670731707317073,-74,0.321739130434783,44,0.191304347826087,93,-0.453658536585366,
9341354,1230.46875,2384,-1.46167995095034,-15456,-9.47639484978541,-4272,2.61925199264255,-2,2.74390243902439,-45,0.121951219512195,-14,0.853658536585366,-74,0.321739130434783,43,0.18695652173913,94,-0.458536585365854,
9341994,1250,2432,-1.49110974862048,-15472,-9.48620478234212,-4304,2.63887185775598,0,2.92682926829268,-48,0,-14,0.853658536585366,-76,0.330434782608696,44,0.191304347826087,93,-0.453658536585366,
9342634,1269.53125,2432,-1.49110974862048,-15424,-9.45677498467198,-4352,2.66830165542612,-4,2.80487804878049,-46,0.24390243902439,-7,0.426829268292683,-73,0.317391304347826,43,0.18695652173913,93,-0.453658536585366,
9343274,1289.0625,2448,-1.50091968117719,-15408,-9.44696505211527,-4320,2.64868179031269,-4,2.80487804878049,-46,0.24390243902439,-3,0.182926829268293,-75,0.326086956521739,46,0.2,91,-0.44390243902439,
9343914,1308.59375,2512,-1.54015941140405,-15440,-9.46658491722869,-4416,2.70754138565297,14,2.68292682926829,-44,-0.853658536585366,-1,0.0609756097560976,-74,0.321739130434783,41,0.178260869565217,94,-0.458536585365854,
9344554,1328.125,2480,-1.52053954629062,-15424,-9.45677498467198,-4448,2.7271612507664,23,2.86585365853659,-47,-1.40243902439024,-6,0.365853658536585,-75,0.326086956521739,44,0.191304347826087,93,-0.453658536585366,
9345194,1347.65625,2384,-1.46167995095034,-15424,-9.45677498467198,-4384,2.68792152053955,13,3.10975609756098,-51,-0.792682926829268,-9,0.548780487804878,-73,0.317391304347826,41,0.178260869565217,92,-0.448780487804878,
9345834,1367.1875,2384,-1.46167995095034,-15472,-9.48620478234212,-4384,2.68792152053955,9,3.23170731707317,-53,-0.548780487804878,-10,0.609756097560976,-76,0.330434782608696,41,0.178260869565217,92,-0.448780487804878,
9346474,1386.71875,2400,-1.47148988350705,-15472,-9.48620478234212,-4352,2.66830165542612,1,2.98780487804878,-49,-0.0609756097560976,-12,0.731707317073171,-75,0.326086956521739,47,0.204347826086957,95,-0.463414634146341,
9347114,1406.25,2416,-1.48129981606376,-15440,-9.46658491722869,-4320,2.64868179031269,-1,3.04878048780488,-50,0.0609756097560976,-13,0.792682926829268,-75,0.326086956521739,45,0.195652173913043,93,-0.453658536585366,
9347754,1425.78125,2400,-1.47148988350705,-15440,-9.46658491722869,-4288,2.62906192519926,2,3.10975609756098,-51,-0.121951219512195,-15,0.914634146341463,-73,0.317391304347826,43,0.18695652173913,92,-0.448780487804878,
9348394,1445.3125,2432,-1.49110974862048,-15440,-9.46658491722869,-4336,2.6584917228694,0,3.23170731707317,-53,0,-15,0.914634146341463,-73,0.317391304347826,40,0.173913043478261,95,-0.463414634146341,
9349034,1464.84375,2352,-1.44206008583691,-15408,-9.44696505211527,-4272,2.61925199264255,0,3.17073170731707,-52,0,-13,0.792682926829268,-75,0.326086956521739,43,0.18695652173913,93,-0.453658536585366,
9349674,1484.375,2416,-1.48129981606376,-15328,-9.3979153893317,-4288,2.62906192519926,0,2.98780487804878,-49,0,-8,0.487804878048781,-74,0.321739130434783,43,0.18695652173913,93,-0.453658536585366,
9350314,1503.90625,2384,-1.46167995095034,-15392,-9.43715511955855,-4288,2.62906192519926,7,2.80487804878049,-46,-0.426829268292683,-5,0.304878048780488,-73,0.317391304347826,40,0.173913043478261,94,-0.458536585365854,
9350954,1523.4375,2336,-1.4322501532802,-15440,-9.46658491722869,-4256,2.60944206008584,6,2.80487804878049,-46,-0.365853658536585,-5,0.304878048780488,-74,0.321739130434783,46,0.2,92,-0.448780487804878,
9351594,1542.96875,2416,-1.48129981606376,-15456,-9.47639484978541,-4240,2.59963212752912,1,2.80487804878049,-46,-0.0609756097560976,-4,0.24390243902439,-75,0.326086956521739,46,0.2,93,-0.453658536585366,
9352234,1562.5,2416,-1.48129981606376,-15488,-9.49601471489883,-4240,2.59963212752912,1,2.74390243902439,-45,-0.0609756097560976,-5,0.304878048780488,-75,0.326086956521739,45,0.195652173913043,92,-0.448780487804878,
9352874,1582.03125,2480,-1.52053954629062,-15392,-9.43715511955855,-4272,2.61925199264255,3,2.68292682926829,-44,-0.182926829268293,-3,0.182926829268293,-74,0.321739130434783,42,0.182608695652174,94,-0.458536585365854,
9353514,1601.5625,2400,-1.47148988350705,-15392,-9.43715511955855,-4304,2.63887185775598,-2,2.5,-41,0.121951219512195,-6,0.365853658536585,-76,0.330434782608696,46,0.2,92,-0.448780487804878,
9354154,1621.09375,2368,-1.45187001839362,-15408,-9.44696505211527,-4240,2.59963212752912,-4,2.5,-41,0.24390243902439,-8,0.487804878048781,-73,0.317391304347826,42,0.182608695652174,93,-0.453658536585366,
9354794,1640.625,2400,-1.47148988350705,-15456,-9.47639484978541,-4208,2.5800122624157,-8,2.6219512195122,-43,0.487804878048781,-6,0.365853658536585,-74,0.321739130434783,42,0.182608695652174,94,-0.458536585365854,
9355434,1660.15625,2432,-1.49110974862048,-15504,-9.50582464745555,-4288,2.62906192519926,-10,2.68292682926829,-44,0.609756097560976,-4,0.24390243902439,-75,0.326086956521739,41,0.178260869565217,93,-0.453658536585366,
9356074,1679.6875,2416,-1.48129981606376,-15488,-9.49601471489883,-4288,2.62906192519926,-9,2.5609756097561,-42,0.548780487804878,-1,0.0609756097560976,-73,0.317391304347826,44,0.191304347826087,94,-0.458536585365854,
9356714,1699.21875,2400,-1.47148988350705,-15472,-9.48620478234212,-4208,2.5800122624157,-4,2.37804878048781,-39,0.24390243902439,-1,0.0609756097560976,-73,0.317391304347826,40,0.173913043478261,94,-0.458536585365854,
9357354,1718.75,2416,-1.48129981606376,-15440,-9.46658491722869,-4256,2.60944206008584,-2,2.5,-41,0.121951219512195,-3,0.182926829268293,-73,0.317391304347826,46,0.2,90,-0.439024390243902,
9357994,1738.28125,2480,-1.52053954629062,-15456,-9.47639484978541,-4320,2.64868179031269,-2,2.4390243902439,-40,0.121951219512195,-5,0.304878048780488,-75,0.326086956521739,45,0.195652173913043,94,-0.458536585365854,
9358634,1757.8125,2480,-1.52053954629062,-15472,-9.48620478234212,-4288,2.62906192519926,-3,2.74390243902439,-45,0.182926829268293,-7,0.426829268292683,-74,0.321739130434783,45,0.195652173913043,94,-0.458536585365854,
9359274,1777.34375,2560,-1.56958920907419,-15424,-9.45677498467198,-4320,2.64868179031269,-2,2.80487804878049,-46,0.121951219512195,-4,0.24390243902439,-75,0.326086956521739,46,0.2,93,-0.453658536585366,
9359914,1796.875,2432,-1.49110974862048,-15456,-9.47639484978541,-4320,2.64868179031269,0,3.10975609756098,-51,0,-1,0.0609756097560976,-77,0.334782608695652,43,0.18695652173913,93,-0.453658536585366,
9360554,1816.40625,2416,-1.48129981606376,-15392,-9.43715511955855,-4352,2.66830165542612,-3,3.23170731707317,-53,0.182926829268293,-5,0.304878048780488,-74,0.321739130434783,44,0.191304347826087,93,-0.453658536585366,
9361194,1835.9375,2400,-1.47148988350705,-15504,-9.50582464745555,-4352,2.66830165542612,-4,3.35365853658537,-55,0.24390243902439,-7,0.426829268292683,-75,0.326086956521739,41,0.178260869565217,94,-0.458536585365854,
9361834,1855.46875,2368,-1.45187001839362,-15504,-9.50582464745555,-4208,2.5800122624157,-7,3.47560975609756,-57,0.426829268292683,-9,0.548780487804878,-73,0.317391304347826,41,0.178260869565217,94,-0.458536585365854,
9362474,1875,2416,-1.48129981606376,-15456,-9.47639484978541,-4224,2.58982219497241,-9,3.47560975609756,-57,0.548780487804878,-9,0.548780487804878,-73,0.317391304347826,44,0.191304347826087,93,-0.453658536585366,
9363114,1894.53125,2448,-1.50091968117719,-15488,-9.49601471489883,-4304,2.63887185775598,-9,3.53658536585366,-58,0.548780487804878,-8,0.487804878048781,-73,0.317391304347826,44,0.191304347826087,92,-0.448780487804878,
9363754,1914.0625,2448,-1.50091968117719,-15472,-9.48620478234212,-4272,2.61925199264255,-5,3.59756097560976,-59,0.304878048780488,-9,0.548780487804878,-73,0.317391304347826,41,0.178260869565217,94,-0.458536585365854,
9364394,1933.59375,2416,-1.48129981606376,-15408,-9.44696505211527,-4256,2.60944206008584,-7,3.41463414634146,-56,0.426829268292683,-12,0.731707317073171,-74,0.321739130434783,42,0.182608695652174,93,-0.453658536585366,
9365034,1953.125,2448,-1.50091968117719,-15440,-9.46658491722869,-4320,2.64868179031269,-7,3.29268292682927,-54,0.426829268292683,-12,0.731707317073171,-73,0.317391304347826,44,0.191304347826087,93,-0.453658536585366,
9365674,1972.65625,2480,-1.52053954629062,-15392,-9.43715511955855,-4176,2.56039239730227,-11,3.23170731707317,-53,0.670731707317073,-14,0.853658536585366,-73,0.317391304347826,43,0.18695652173913,93,-0.453658536585366,
9366314,1992.1875,2464,-1.51072961373391,-15472,-9.48620478234212,-4224,2.58982219497241,-9,3.29268292682927,-54,0.548780487804878,-18,1.09756097560976,-75,0.326086956521739,41,0.178260869565217,93,-0.453658536585366,
9366954,2011.71875,2416,-1.48129981606376,-15440,-9.46658491722869,-4320,2.64868179031269,-4,2.98780487804878,-49,0.24390243902439,-14,0.853658536585366,-76,0.330434782608696,41,0.178260869565217,93,-0.453658536585366,
9367594,2031.25,2432,-1.49110974862048,-15392,-9.43715511955855,-4304,2.63887185775598,5,2.74390243902439,-45,-0.304878048780488,-14,0.853658536585366,-74,0.321739130434783,41,0.178260869565217,93,-0.453658536585366,
9368234,2050.78125,2368,-1.45187001839362,-15424,-9.45677498467198,-4224,2.58982219497241,4,2.80487804878049,-46,-0.24390243902439,-11,0.670731707317073,-75,0.326086956521739,43,0.18695652173913,93,-0.453658536585366,
9368874,2070.3125,2432,-1.49110974862048,-15440,-9.46658491722869,-4256,2.60944206008584,4,2.80487804878049,-46,-0.24390243902439,-11,0.670731707317073,-75,0.326086956521739,43,0.18695652173913,93,-0.453658536585366,
9369514,2089.84375,2496,-1.53034947884733,-15536,-9.52544451256898,-4416,2.70754138565297,7,2.68292682926829,-44,-0.426829268292683,-12,0.731707317073171,-73,0.317391304347826,45,0.195652173913043,93,-0.453658536585366,
9370154,2109.375,2512,-1.54015941140405,-15424,-9.45677498467198,-4464,2.73697118332311,14,2.74390243902439,-45,-0.853658536585366,-14,0.853658536585366,-75,0.326086956521739,42,0.182608695652174,93,-0.453658536585366,
9370794,2128.90625,2464,-1.51072961373391,-15504,-9.50582464745555,-4448,2.7271612507664,23,2.98780487804878,-49,-1.40243902439024,-18,1.09756097560976,-72,0.31304347826087,41,0.178260869565217,93,-0.453658536585366,
9371434,2148.4375,2448,-1.50091968117719,-15440,-9.46658491722869,-4368,2.67811158798283,27,3.04878048780488,-50,-1.64634146341463,-15,0.914634146341463,-75,0.326086956521739,46,0.2,94,-0.458536585365854,
9372074,2167.96875,2448,-1.50091968117719,-15456,-9.47639484978541,-4368,2.67811158798283,25,3.17073170731707,-52,-1.52439024390244,-12,0.731707317073171,-74,0.321739130434783,44,0.191304347826087,93,-0.453658536585366,
9372714,2187.5,2448,-1.50091968117719,-15472,-9.48620478234212,-4384,2.68792152053955,21,3.10975609756098,-51,-1.28048780487805,-5,0.304878048780488,-76,0.330434782608696,48,0.208695652173913,92,-0.448780487804878,
9373354,2207.03125,2416,-1.48129981606376,-15440,-9.46658491722869,-4432,2.71735131820969,29,3.17073170731707,-52,-1.76829268292683,0,0,-75,0.326086956521739,48,0.208695652173913,92,-0.448780487804878,
9373994,2226.5625,2480,-1.52053954629062,-15440,-9.46658491722869,-4432,2.71735131820969,44,3.29268292682927,-54,-2.68292682926829,-1,0.0609756097560976,-74,0.321739130434783,42,0.182608695652174,92,-0.448780487804878,
9374634,2246.09375,2416,-1.48129981606376,-15472,-9.48620478234212,-4304,2.63887185775598,49,3.71951219512195,-61,-2.98780487804878,-8,0.487804878048781,-73,0.317391304347826,44,0.191304347826087,93,-0.453658536585366,
9375274,2265.625,2400,-1.47148988350705,-15488,-9.49601471489883,-4352,2.66830165542612,43,3.78048780487805,-62,-2.6219512195122,-10,0.609756097560976,-74,0.321739130434783,39,0.169565217391304,95,-0.463414634146341,
9375914,2285.15625,2416,-1.48129981606376,-15536,-9.52544451256898,-4384,2.68792152053955,31,3.84146341463415,-63,-1.89024390243902,-12,0.731707317073171,-74,0.321739130434783,45,0.195652173913043,94,-0.458536585365854,
9376554,2304.6875,2544,-1.55977927651747,-15456,-9.47639484978541,-4352,2.66830165542612,35,3.71951219512195,-61,-2.13414634146341,-14,0.853658536585366,-72,0.31304347826087,43,0.18695652173913,94,-0.458536585365854,
9377194,2324.21875,2480,-1.52053954629062,-15344,-9.40772532188841,-4336,2.6584917228694,41,3.78048780487805,-62,-2.5,-15,0.914634146341463,-74,0.321739130434783,46,0.2,93,-0.453658536585366,
9377834,2343.75,2464,-1.51072961373391,-15440,-9.46658491722869,-4336,2.6584917228694,41,3.71951219512195,-61,-2.5,-19,1.15853658536585,-74,0.321739130434783,41,0.178260869565217,95,-0.463414634146341,
9378474,2363.28125,2576,-1.5793991416309,-15376,-9.42734518700184,-4416,2.70754138565297,35,4.02439024390244,-66,-2.13414634146341,-24,1.46341463414634,-74,0.321739130434783,41,0.178260869565217,95,-0.463414634146341,
9379114,2382.8125,2608,-1.59901900674433,-15328,-9.3979153893317,-4400,2.69773145309626,35,3.65853658536585,-60,-2.13414634146341,-27,1.64634146341463,-71,0.308695652173913,41,0.178260869565217,93,-0.453658536585366,
9379754,2402.34375,2656,-1.62844880441447,-15344,-9.40772532188841,-4480,2.74678111587983,43,3.71951219512195,-61,-2.6219512195122,-30,1.82926829268293,-71,0.308695652173913,40,0.173913043478261,94,-0.458536585365854,
9380394,2421.875,2704,-1.65787860208461,-15392,-9.43715511955855,-4464,2.73697118332311,60,3.53658536585366,-58,-3.65853658536585,-31,1.89024390243902,-72,0.31304347826087,39,0.169565217391304,95,-0.463414634146341,
9381034,2441.40625,2640,-1.61863887185776,-15456,-9.47639484978541,-4528,2.77621091354997,88,3.65853658536585,-60,-5.36585365853659,-24,1.46341463414634,-72,0.31304347826087,44,0.191304347826087,94,-0.458536585365854,
9381674,2460.9375,2672,-1.63825873697118,-15440,-9.46658491722869,-4544,2.78602084610668,104,3.71951219512195,-61,-6.34146341463415,-25,1.52439024390244,-70,0.304347826086957,38,0.165217391304348,94,-0.458536585365854,
9382314,2480.46875,2688,-1.6480686695279,-15424,-9.45677498467198,-4560,2.7958307786634,113,3.84146341463415,-63,-6.89024390243902,-27,1.64634146341463,-71,0.308695652173913,43,0.18695652173913,92,-0.448780487804878,
9382954,2500,2704,-1.65787860208461,-15408,-9.44696505211527,-4624,2.83507050889025,112,3.78048780487805,-62,-6.82926829268293,-35,2.13414634146341,-72,0.31304347826087,42,0.182608695652174,95,-0.463414634146341,
9383594,2519.53125,2624,-1.60882893930104,-15344,-9.40772532188841,-4784,2.93316983445739,123,4.26829268292683,-70,-7.5,-40,2.4390243902439,-71,0.308695652173913,44,0.191304347826087,95,-0.463414634146341,
9384234,2539.0625,2672,-1.63825873697118,-15344,-9.40772532188841,-4640,2.84488044144697,133,4.57317073170732,-75,-8.10975609756098,-43,2.6219512195122,-71,0.308695652173913,38,0.165217391304348,95,-0.463414634146341,
9384874,2558.59375,2576,-1.5793991416309,-15328,-9.3979153893317,-4672,2.86450030656039,140,4.87804878048781,-80,-8.53658536585366,-44,2.68292682926829,-71,0.308695652173913,40,0.173913043478261,95,-0.463414634146341,
9385514,2578.125,2656,-1.62844880441447,-15312,-9.38810545677498,-4608,2.82526057633354,138,5.36585365853659,-88,-8.41463414634146,-44,2.68292682926829,-70,0.304347826086957,42,0.182608695652174,94,-0.458536585365854,
9386154,2597.65625,2608,-1.59901900674433,-15392,-9.43715511955855,-4624,2.83507050889025,137,5.85365853658537,-96,-8.35365853658537,-48,2.92682926829268,-69,0.3,41,0.178260869565217,93,-0.453658536585366,
9386794,2617.1875,2544,-1.55977927651747,-15392,-9.43715511955855,-4592,2.81545064377682,140,6.09756097560976,-100,-8.53658536585366,-53,3.23170731707317,-69,0.3,38,0.165217391304348,94,-0.458536585365854,
9387434,2636.71875,2432,-1.49110974862048,-15392,-9.43715511955855,-4592,2.81545064377682,140,6.28048780487805,-103,-8.53658536585366,-63,3.84146341463415,-69,0.3,44,0.191304347826087,92,-0.448780487804878,
9388074,2656.25,2480,-1.52053954629062,-15376,-9.42734518700184,-4560,2.7958307786634,138,6.52439024390244,-107,-8.41463414634146,-65,3.96341463414634,-68,0.295652173913043,40,0.173913043478261,93,-0.453658536585366,
9388714,2675.78125,2544,-1.55977927651747,-15408,-9.44696505211527,-4608,2.82526057633354,133,6.70731707317073,-110,-8.10975609756098,-67,4.08536585365854,-69,0.3,44,0.191304347826087,92,-0.448780487804878,
9389354,2695.3125,2480,-1.52053954629062,-15376,-9.42734518700184,-4544,2.78602084610668,131,6.58536585365854,-108,-7.98780487804878,-64,3.90243902439024,-69,0.3,37,0.160869565217391,94,-0.458536585365854,
9389994,2714.84375,2400,-1.47148988350705,-15392,-9.43715511955855,-4496,2.75659104843654,134,6.28048780487805,-103,-8.17073170731707,-61,3.71951219512195,-70,0.304347826086957,41,0.178260869565217,93,-0.453658536585366,
9390634,2734.375,2400,-1.47148988350705,-15392,-9.43715511955855,-4496,2.75659104843654,134,6.03658536585366,-99,-8.17073170731707,-60,3.65853658536585,-68,0.295652173913043,37,0.160869565217391,93,-0.453658536585366,
9391274,2753.90625,2304,-1.41263028816677,-15360,-9.41753525444513,-4400,2.69773145309626,128,5.85365853658537,-96,-7.80487804878049,-59,3.59756097560976,-66,0.28695652173913,36,0.156521739130435,94,-0.458536585365854,
9391914,2773.4375,2336,-1.4322501532802,-15248,-9.34886572654813,-4448,2.7271612507664,126,5.60975609756098,-92,-7.68292682926829,-55,3.35365853658537,-68,0.295652173913043,38,0.165217391304348,95,-0.463414634146341,
9392554,2792.96875,2320,-1.42244022072348,-15200,-9.31943592887799,-4464,2.73697118332311,123,5.18292682926829,-85,-7.5,-51,3.10975609756098,-67,0.291304347826087,42,0.182608695652174,94,-0.458536585365854,
9393194,2812.5,2256,-1.38320049049663,-15200,-9.31943592887799,-4528,2.77621091354997,122,5,-82,-7.4390243902439,-49,2.98780487804878,-68,0.295652173913043,44,0.191304347826087,92,-0.448780487804878,
9393834,2832.03125,2192,-1.34396076026977,-15184,-9.30962599632127,-4480,2.74678111587983,120,4.63414634146342,-76,-7.31707317073171,-43,2.6219512195122,-67,0.291304347826087,41,0.178260869565217,93,-0.453658536585366,
9394474,2851.5625,2240,-1.37339055793991,-15264,-9.35867565910484,-4464,2.73697118332311,113,4.14634146341463,-68,-6.89024390243902,-38,2.31707317073171,-67,0.291304347826087,39,0.169565217391304,93,-0.453658536585366,
9395114,2871.09375,2240,-1.37339055793991,-15280,-9.36848559166156,-4544,2.78602084610668,101,3.84146341463415,-63,-6.15853658536585,-31,1.89024390243902,-65,0.282608695652174,38,0.165217391304348,94,-0.458536585365854,
9395754,2890.625,2368,-1.45187001839362,-15296,-9.37829552421827,-4512,2.76640098099326,97,3.59756097560976,-59,-5.91463414634146,-29,1.76829268292683,-66,0.28695652173913,37,0.160869565217391,94,-0.458536585365854,
9396394,2910.15625,2240,-1.37339055793991,-15312,-9.38810545677498,-4464,2.73697118332311,89,3.35365853658537,-55,-5.42682926829268,-24,1.46341463414634,-67,0.291304347826087,38,0.165217391304348,93,-0.453658536585366,
9397034,2929.6875,2240,-1.37339055793991,-15280,-9.36848559166156,-4576,2.80564071122011,83,2.98780487804878,-49,-5.0609756097561,-19,1.15853658536585,-67,0.291304347826087,40,0.173913043478261,91,-0.44390243902439,
9397674,2949.21875,2224,-1.3635806253832,-15216,-9.3292458614347,-4560,2.7958307786634,76,2.86585365853659,-47,-4.63414634146342,-16,0.975609756097561,-65,0.282608695652174,36,0.156521739130435,93,-0.453658536585366,
9398314,2968.75,2288,-1.40282035561006,-15312,-9.38810545677498,-4592,2.81545064377682,75,2.4390243902439,-40,-4.57317073170732,-16,0.975609756097561,-66,0.28695652173913,37,0.160869565217391,93,-0.453658536585366,
9398954,2988.28125,2288,-1.40282035561006,-15264,-9.35867565910484,-4688,2.87431023911711,64,2.31707317073171,-38,-3.90243902439024,-16,0.975609756097561,-68,0.295652173913043,41,0.178260869565217,92,-0.448780487804878,
9399594,3007.8125,2240,-1.37339055793991,-15216,-9.3292458614347,-4592,2.81545064377682,53,2.31707317073171,-38,-3.23170731707317,-20,1.21951219512195,-65,0.282608695652174,39,0.169565217391304,92,-0.448780487804878,
9400234,3027.34375,2304,-1.41263028816677,-15248,-9.34886572654813,-4672,2.86450030656039,34,2.5609756097561,-42,-2.07317073170732,-21,1.28048780487805,-68,0.295652173913043,37,0.160869565217391,93,-0.453658536585366,
9400874,3046.875,2352,-1.44206008583691,-15312,-9.38810545677498,-4624,2.83507050889025,22,2.4390243902439,-40,-1.34146341463415,-20,1.21951219512195,-68,0.295652173913043,38,0.165217391304348,93,-0.453658536585366,
9401514,3066.40625,2352,-1.44206008583691,-15296,-9.37829552421827,-4688,2.87431023911711,18,2.19512195121951,-36,-1.09756097560976,-13,0.792682926829268,-66,0.28695652173913,38,0.165217391304348,91,-0.44390243902439,
9402154,3085.9375,2320,-1.42244022072348,-15296,-9.37829552421827,-4608,2.82526057633354,21,2.07317073170732,-34,-1.28048780487805,-7,0.426829268292683,-68,0.295652173913043,42,0.182608695652174,90,-0.439024390243902,
9402794,3105.46875,2384,-1.46167995095034,-15312,-9.38810545677498,-4640,2.84488044144697,20,1.95121951219512,-32,-1.21951219512195,-10,0.609756097560976,-68,0.295652173913043,38,0.165217391304348,93,-0.453658536585366,
9403434,3125,2368,-1.45187001839362,-15296,-9.37829552421827,-4608,2.82526057633354,14,1.76829268292683,-29,-0.853658536585366,-14,0.853658536585366,-69,0.3,40,0.173913043478261,92,-0.448780487804878,
9404074,3144.53125,2400,-1.47148988350705,-15296,-9.37829552421827,-4640,2.84488044144697,9,1.70731707317073,-28,-0.548780487804878,-18,1.09756097560976,-66,0.28695652173913,36,0.156521739130435,91,-0.44390243902439,
9404714,3164.0625,2480,-1.52053954629062,-15312,-9.38810545677498,-4656,2.85469037400368,16,1.46341463414634,-24,-0.975609756097561,-18,1.09756097560976,-68,0.295652173913043,39,0.169565217391304,92,-0.448780487804878,
9405354,3183.59375,2448,-1.50091968117719,-15280,-9.36848559166156,-4704,2.88412017167382,25,1.21951219512195,-20,-1.52439024390244,-22,1.34146341463415,-68,0.295652173913043,44,0.191304347826087,91,-0.44390243902439,
9405994,3203.125,2384,-1.46167995095034,-15248,-9.34886572654813,-4768,2.92335990190067,29,1.09756097560976,-18,-1.76829268292683,-22,1.34146341463415,-70,0.304347826086957,44,0.191304347826087,90,-0.439024390243902,
9406634,3222.65625,2368,-1.45187001839362,-15216,-9.3292458614347,-4864,2.98221949724096,37,1.03658536585366,-17,-2.25609756097561,-24,1.46341463414634,-68,0.295652173913043,37,0.160869565217391,92,-0.448780487804878,
9407274,3242.1875,2416,-1.48129981606376,-15296,-9.37829552421827,-4976,3.05088902513795,35,1.40243902439024,-23,-2.13414634146341,-23,1.40243902439024,-68,0.295652173913043,40,0.173913043478261,91,-0.44390243902439,
9407914,3261.71875,2624,-1.60882893930104,-15200,-9.31943592887799,-4768,2.92335990190067,36,1.70731707317073,-28,-2.19512195121951,-19,1.15853658536585,-69,0.3,40,0.173913043478261,90,-0.439024390243902,
9408554,3281.25,2592,-1.58920907418761,-15264,-9.35867565910484,-5072,3.10974862047823,91,2.37804878048781,-39,-5.54878048780488,-17,1.03658536585366,-69,0.3,40,0.173913043478261,90,-0.439024390243902,
9409194,3300.78125,2528,-1.54996934396076,-15248,-9.34886572654813,-5184,3.17841814837523,120,1.40243902439024,-23,-7.31707317073171,-25,1.52439024390244,-68,0.295652173913043,38,0.165217391304348,92,-0.448780487804878,
9409834,3320.3125,2480,-1.52053954629062,-15280,-9.36848559166156,-5184,3.17841814837523,134,2.5609756097561,-42,-8.17073170731707,-27,1.64634146341463,-71,0.308695652173913,38,0.165217391304348,91,-0.44390243902439,
9410474,3339.84375,2432,-1.49110974862048,-15520,-9.51563458001226,-5376,3.29613733905579,116,4.26829268292683,-70,-7.07317073170732,-24,1.46341463414634,-69,0.3,42,0.182608695652174,90,-0.439024390243902,
9411114,3359.375,2240,-1.37339055793991,-15376,-9.42734518700184,-5328,3.26670754138565,65,6.09756097560976,-100,-3.96341463414634,-21,1.28048780487805,-71,0.308695652173913,43,0.18695652173913,90,-0.439024390243902,
9411754,3378.90625,2512,-1.54015941140405,-15360,-9.41753525444513,-5328,3.26670754138565,-4,6.09756097560976,-100,0.24390243902439,-37,2.25609756097561,-71,0.308695652173913,38,0.165217391304348,91,-0.44390243902439,
9412394,3398.4375,2576,-1.5793991416309,-15328,-9.3979153893317,-5264,3.2274678111588,5,7.5609756097561,-124,-0.304878048780488,-32,1.95121951219512,-70,0.304347826086957,37,0.160869565217391,92,-0.448780487804878,
9413034,3417.96875,2752,-1.68730839975475,-15344,-9.40772532188841,-5104,3.12936848559166,9,7.92682926829268,-130,-0.548780487804878,-39,2.37804878048781,-72,0.31304347826087,43,0.18695652173913,90,-0.439024390243902,
9413674,3437.5,2608,-1.59901900674433,-15344,-9.40772532188841,-4976,3.05088902513795,46,8.23170731707317,-135,-2.80487804878049,-33,2.01219512195122,-67,0.291304347826087,37,0.160869565217391,91,-0.44390243902439,
9414314,3457.03125,2656,-1.62844880441447,-15392,-9.43715511955855,-4784,2.93316983445739,53,7.74390243902439,-127,-3.23170731707317,-33,2.01219512195122,-68,0.295652173913043,39,0.169565217391304,92,-0.448780487804878,
9414954,3476.5625,2800,-1.71673819742489,-15392,-9.43715511955855,-4656,2.85469037400368,50,7.19512195121951,-118,-3.04878048780488,-32,1.95121951219512,-69,0.3,41,0.178260869565217,92,-0.448780487804878,
9415594,3496.09375,2832,-1.73635806253832,-15328,-9.3979153893317,-4672,2.86450030656039,72,6.09756097560976,-100,-4.39024390243902,-36,2.19512195121951,-66,0.28695652173913,36,0.156521739130435,92,-0.448780487804878,
9416234,3515.625,2816,-1.72654812998161,-15312,-9.38810545677498,-4688,2.87431023911711,123,4.57317073170732,-75,-7.5,-39,2.37804878048781,-68,0.295652173913043,38,0.165217391304348,91,-0.44390243902439,
9416874,3535.15625,2720,-1.66768853464132,-15200,-9.31943592887799,-4848,2.97240956468424,177,3.59756097560976,-59,-10.7926829268293,-49,2.98780487804878,-67,0.291304347826087,43,0.18695652173913,91,-0.44390243902439,
9417514,3554.6875,2608,-1.59901900674433,-15088,-9.25076640098099,-5072,3.10974862047823,200,3.29268292682927,-54,-12.1951219512195,-62,3.78048780487805,-67,0.291304347826087,41,0.178260869565217,91,-0.44390243902439,
9418154,3574.21875,2896,-1.77559779276517,-14992,-9.19190680564071,-6112,3.74739423666462,228,3.23170731707317,-53,-13.9024390243902,-87,5.30487804878049,-66,0.28695652173913,37,0.160869565217391,93,-0.453658536585366,
9418794,3593.75,2672,-1.63825873697118,-15280,-9.36848559166156,-7184,4.40465971796444,314,4.02439024390244,-66,-19.1463414634146,-127,7.74390243902439,-64,0.278260869565217,37,0.160869565217391,93,-0.453658536585366,
9419434,3613.28125,2720,-1.66768853464132,-15840,-9.71183323114654,-8112,4.97363580625383,340,8.84146341463415,-145,-20.7317073170732,-180,10.9756097560976,-63,0.273913043478261,38,0.165217391304348,91,-0.44390243902439,
9420074,3632.8125,2480,-1.52053954629062,-15920,-9.7608828939301,-9152,5.61128142244022,215,27.1951219512195,-446,-13.109756097561,-309,18.8414634146341,-62,0.269565217391304,39,0.169565217391304,91,-0.44390243902439,
9420714,3652.34375,2384,-1.46167995095034,-15888,-9.74126302881668,-10432,6.39607602697731,74,37.3780487804878,-613,-4.51219512195122,-367,22.3780487804878,-61,0.265217391304348,36,0.156521739130435,94,-0.458536585365854,
9421354,3671.875,3040,-1.8638871857756,-16208,-9.93746167995095,-11760,7.21030042918455,45,48.1707317073171,-790,-2.74390243902439,-393,23.9634146341463,-60,0.260869565217391,36,0.156521739130435,98,-0.478048780487805,
9421994,3691.40625,3632,-2.226854690374,-16528,-10.1336603310852,-12608,7.73022685469037,121,61.8292682926829,-1014,-7.37804878048781,-398,24.2682926829268,-57,0.247826086956522,36,0.156521739130435,98,-0.478048780487805,
9422634,3710.9375,3840,-2.35438381361128,-16512,-10.1238503985285,-12816,7.85775597792765,150,74.7560975609756,-1226,-9.14634146341463,-386,23.5365853658537,-53,0.230434782608696,34,0.147826086956522,103,-0.502439024390244,
9423274,3730.46875,3536,-2.16799509503372,-16528,-10.1336603310852,-13056,8.00490496627836,64,86.4634146341463,-1418,-3.90243902439024,-375,22.8658536585366,-54,0.234782608695652,31,0.134782608695652,107,-0.521951219512195,
9423914,3750,3376,-2.06989576946658,-16480,-10.1042305334151,-13424,8.23053341508277,-91,97.8658536585366,-1605,5.54878048780488,-391,23.8414634146341,-50,0.217391304347826,30,0.130434782608696,111,-0.541463414634146,
9424554,3769.53125,3824,-2.34457388105457,-16368,-10.0355610055181,-13392,8.21091354996934,-180,105.853658536585,-1736,10.9756097560976,-395,24.0853658536585,-52,0.226086956521739,34,0.147826086956522,113,-0.551219512195122,
9425194,3789.0625,4544,-2.78602084610668,-16400,-10.0551808706315,-13216,8.10300429184549,-106,112.987804878049,-1853,6.46341463414634,-387,23.5975609756098,-47,0.204347826086957,26,0.11304347826087,120,-0.585365853658537,
9425834,3808.59375,4976,-3.05088902513795,-16304,-9.99632127529123,-13200,8.09319435928878,27,118.170731707317,-1938,-1.64634146341463,-373,22.7439024390244,-46,0.2,30,0.130434782608696,123,-0.6,
9426474,3828.125,5344,-3.27651747394237,-16128,-9.88841201716738,-13248,8.12262415695892,159,122.682926829268,-2012,-9.69512195121951,-359,21.890243902439,-48,0.208695652173913,27,0.117391304347826,129,-0.629268292682927,
9427114,3847.65625,5248,-3.21765787860208,-15888,-9.74126302881668,-13312,8.16186388718578,277,126.40243902439,-2073,-16.890243902439,-348,21.219512195122,-45,0.195652173913043,21,0.091304347826087,132,-0.64390243902439,
9427754,3867.1875,5056,-3.09993868792152,-15808,-9.69221336603311,-13344,8.1814837522992,309,129.817073170732,-2129,-18.8414634146341,-342,20.8536585365854,-45,0.195652173913043,23,0.1,138,-0.673170731707317,
9428394,3886.71875,4960,-3.04107909258124,-15712,-9.63335377069283,-13360,8.19129368485592,292,133.90243902439,-2196,-17.8048780487805,-325,19.8170731707317,-46,0.2,20,0.0869565217391304,140,-0.682926829268293,
9429034,3906.25,4736,-2.90374003678725,-15552,-9.53525444512569,-13200,8.09319435928878,210,138.414634146341,-2270,-12.8048780487805,-337,20.5487804878049,-45,0.195652173913043,14,0.0608695652173913,142,-0.692682926829268,
9429674,3925.78125,4704,-2.88412017167382,-14896,-9.13304721030043,-12992,7.9656652360515,132,140.121951219512,-2298,-8.04878048780488,-380,23.1707317073171,-46,0.2,15,0.0652173913043478,146,-0.712195121951219,
9430314,3945.3125,5104,-3.12936848559166,-14480,-8.87798896382587,-12960,7.94604537093807,151,141.036585365854,-2313,-9.20731707317073,-423,25.7926829268293,-45,0.195652173913043,11,0.0478260869565217,148,-0.721951219512195,
9430954,3964.84375,5056,-3.09993868792152,-14080,-8.63274064990803,-13008,7.97547516860822,194,142.317073170732,-2334,-11.8292682926829,-443,27.0121951219512,-46,0.2,6,0.0260869565217391,151,-0.736585365853659,
9431594,3984.375,5088,-3.11955855303495,-13472,-8.25996321275291,-12752,7.8185162477008,232,141.829268292683,-2326,-14.1463414634146,-460,28.0487804878049,-43,0.18695652173913,7,0.0304347826086957,152,-0.741463414634146,
9432234,4003.90625,4912,-3.0116492949111,-12624,-7.74003678724709,-12656,7.75965665236051,245,139.756097560976,-2292,-14.9390243902439,-462,28.1707317073171,-42,0.182608695652174,-5,-0.0217391304347826,157,-0.765853658536585,
9432874,4023.4375,4848,-2.97240956468424,-11920,-7.30839975475169,-12512,7.67136725935009,259,136.829268292683,-2244,-15.7926829268293,-473,28.8414634146341,-44,0.191304347826087,-2,-0.00869565217391304,156,-0.760975609756098,
9433514,4042.96875,4848,-2.97240956468424,-11120,-6.817903126916,-12464,7.64193746167995,270,134.329268292683,-2203,-16.4634146341463,-484,29.5121951219512,-43,0.18695652173913,-8,-0.0347826086956522,158,-0.770731707317073,
9434154,4062.5,4816,-2.95278969957082,-10032,-6.15082771305947,-12288,7.5340282035561,304,129.573170731707,-2125,-18.5365853658537,-487,29.6951219512195,-42,0.182608695652174,-11,-0.0478260869565217,159,-0.775609756097561,
9434794,4082.03125,4784,-2.93316983445739,-8944,-5.48375229920294,-12080,7.40649908031882,372,123.90243902439,-2032,-22.6829268292683,-495,30.1829268292683,-42,0.182608695652174,-20,-0.0869565217391304,162,-0.790243902439024,
9435434,4101.5625,4784,-2.93316983445739,-8096,-4.96382587369712,-11952,7.32801961986511,505,116.158536585366,-1905,-30.7926829268293,-497,30.3048780487805,-40,0.173913043478261,-17,-0.0739130434782609,161,-0.785365853658537,
9436074,4121.09375,4640,-2.84488044144697,-7520,-4.61066830165543,-11776,7.22011036174126,683,111.463414634146,-1828,-41.6463414634146,-522,31.8292682926829,-37,0.160869565217391,-26,-0.11304347826087,162,-0.790243902439024,
9436714,4140.625,4128,-2.53096259963213,-6464,-3.96321275291232,-11792,7.22992029429798,772,105.548780487805,-1731,-47.0731707317073,-503,30.6707317073171,-41,0.178260869565217,-24,-0.104347826086957,161,-0.785365853658537,
9437354,4160.15625,3728,-2.28571428571429,-5296,-3.24708767627223,-11776,7.22011036174126,822,99.2073170731707,-1627,-50.1219512195122,-485,29.5731707317073,-35,0.152173913043478,-29,-0.126086956521739,161,-0.785365853658537,
9437994,4179.6875,3408,-2.08951563458001,-4448,-2.7271612507664,-11712,7.18087063151441,854,92.8658536585366,-1523,-52.0731707317073,-438,26.7073170731707,-35,0.152173913043478,-28,-0.121739130434783,161,-0.785365853658537,
9438634,4199.21875,2992,-1.83445738810546,-3936,-2.41324340895156,-11728,7.19068056407112,886,87.9878048780488,-1443,-54.0243902439024,-380,23.1707317073171,-29,0.126086956521739,-37,-0.160869565217391,161,-0.785365853658537,
9439274,4218.75,2496,-1.53034947884733,-3328,-2.04046597179644,-11792,7.22992029429798,856,83.719512195122,-1373,-52.1951219512195,-340,20.7317073170732,-29,0.126086956521739,-33,-0.143478260869565,161,-0.785365853658537,
9439914,4238.28125,2192,-1.34396076026977,-2784,-1.70692826486818,-12048,7.3868792152054,843,79.3292682926829,-1301,-51.4024390243902,-294,17.9268292682927,-27,0.117391304347826,-38,-0.165217391304348,159,-0.775609756097561,
9440554,4257.8125,1744,-1.06928264868179,-2208,-1.35377069282649,-12240,7.50459840588596,821,74.8170731707317,-1227,-50.0609756097561,-230,14.0243902439024,-27,0.117391304347826,-38,-0.165217391304348,157,-0.765853658536585,
9441194,4277.34375,1184,-0.725935009196812,-1776,-1.08890251379522,-12096,7.41630901287554,744,70.9146341463415,-1163,-45.3658536585366,-194,11.8292682926829,-22,0.0956521739130435,-44,-0.191304347826087,156,-0.760975609756098,
9441834,4296.875,800,-0.490496627835684,-1232,-0.755364806866953,-12144,7.44573881054568,685,65.9146341463415,-1081,-41.7682926829268,-170,10.3658536585366,-22,0.0956521739130435,-44,-0.191304347826087,157,-0.765853658536585,
9442474,4316.40625,512,-0.313917841814838,-656,-0.402207234825261,-12192,7.47516860821582,627,61.5853658536585,-1010,-38.2317073170732,-149,9.08536585365854,-19,0.0826086956521739,-48,-0.208695652173913,155,-0.75609756097561,
9443114,4335.9375,176,-0.10790925812385,-192,-0.117719190680564,-12336,7.56345800122624,564,57.5,-943,-34.390243902439,-136,8.29268292682927,-17,0.0739130434782609,-52,-0.226086956521739,155,-0.75609756097561,
9443754,4355.46875,-64,0.0392397302268547,240,0.147148988350705,-12416,7.61250766400981,478,53.4146341463415,-876,-29.1463414634146,-118,7.19512195121951,-17,0.0739130434782609,-49,-0.21304347826087,154,-0.751219512195122,
9444394,4375,-96,0.058859595340282,640,0.392397302268547,-12480,7.65174739423666,435,49.1463414634146,-806,-26.5243902439024,-115,7.01219512195122,-16,0.0695652173913043,-50,-0.217391304347826,152,-0.741463414634146,
9445034,4394.53125,-240,0.147148988350705,1248,0.765174739423666,-12624,7.74003678724709,423,45,-738,-25.7926829268293,-108,6.58536585365854,-13,0.0565217391304348,-53,-0.230434782608696,151,-0.736585365853659,
9445674,4414.0625,-576,0.353157572041692,2112,1.2949110974862,-12896,7.90680564071122,403,39.2682926829268,-644,-24.5731707317073,-68,4.14634146341463,-12,0.0521739130434783,-56,-0.243478260869565,152,-0.741463414634146,
9446314,4433.59375,-560,0.343347639484979,1792,1.09871244635193,-12944,7.93623543838136,383,35.9146341463415,-589,-23.3536585365854,-101,6.15853658536585,-13,0.0565217391304348,-56,-0.243478260869565,151,-0.736585365853659,
9446954,4453.125,-464,0.284488044144696,2512,1.54015941140405,-13200,8.09319435928878,382,30.0609756097561,-493,-23.2926829268293,-78,4.75609756097561,-11,0.0478260869565217,-55,-0.239130434782609,149,-0.726829268292683,
9447594,4472.65625,-528,0.323727774371551,2784,1.70692826486818,-13424,8.23053341508277,422,26.1585365853659,-429,-25.7317073170732,-48,2.92682926829268,-10,0.0434782608695652,-57,-0.247826086956522,149,-0.726829268292683,
9448234,4492.1875,-640,0.392397302268547,2768,1.69711833231147,-13904,8.52483139178418,455,22.1341463414634,-363,-27.7439024390244,-12,0.731707317073171,-12,0.0521739130434783,-59,-0.256521739130435,149,-0.726829268292683,
9448874,4511.71875,-576,0.353157572041692,2576,1.5793991416309,-14192,8.70141017780503,493,19.9390243902439,-327,-30.0609756097561,24,-1.46341463414634,-11,0.0478260869565217,-59,-0.256521739130435,148,-0.721951219512195,
9449514,4531.25,-720,0.441446965052115,2400,1.47148988350705,-14272,8.7504598405886,509,18.3536585365854,-301,-31.0365853658537,51,-3.10975609756098,-10,0.0434782608695652,-55,-0.239130434782609,146,-0.712195121951219,
9450154,4550.78125,-1088,0.66707541385653,2352,1.44206008583691,-14256,8.74064990803188,458,17.8658536585366,-293,-27.9268292682927,51,-3.10975609756098,-9,0.0391304347826087,-56,-0.243478260869565,144,-0.702439024390244,
9450794,4570.3125,-1376,0.843654199877376,2384,1.46167995095034,-14432,8.84855916615573,341,17.1341463414634,-281,-20.7926829268293,40,-2.4390243902439,-8,0.0347826086956522,-58,-0.252173913043478,144,-0.702439024390244,
9451434,4589.84375,-1488,0.912323727774372,2528,1.54996934396076,-14448,8.85836909871245,221,16.9512195121951,-278,-13.4756097560976,24,-1.46341463414634,-7,0.0304347826086957,-56,-0.243478260869565,144,-0.702439024390244,
9452074,4609.375,-1056,0.647455548743102,2832,1.73635806253832,-14320,8.77988963825874,162,15.0609756097561,-247,-9.87804878048781,10,-0.609756097560976,-7,0.0304347826086957,-63,-0.273913043478261,145,-0.707317073170732,
9452714,4628.90625,-928,0.568976088289393,2800,1.71673819742489,-14208,8.71122011036174,218,13.2926829268293,-218,-13.2926829268293,9,-0.548780487804878,-7,0.0304347826086957,-56,-0.243478260869565,142,-0.692682926829268,
9453354,4648.4375,-1200,0.735744941753525,2960,1.81483752299203,-14176,8.69160024524831,278,11.7682926829268,-193,-16.9512195121951,0,0,-6,0.0260869565217391,-55,-0.239130434782609,143,-0.697560975609756,
9453994,4667.96875,-1232,0.755364806866953,3312,2.03065603923973,-14112,8.65236051502146,301,9.08536585365854,-149,-18.3536585365854,-23,1.40243902439024,-7,0.0304347826086957,-58,-0.252173913043478,140,-0.682926829268293,
9454634,4687.5,-1504,0.922133660331085,3520,2.15818516247701,-14064,8.62293071735132,349,6.46341463414634,-106,-21.280487804878,-49,2.98780487804878,-6,0.0260869565217391,-54,-0.234782608695652,141,-0.68780487804878,
9455274,4707.03125,-1808,1.10852237890864,3888,2.38381361128142,-14160,8.6817903126916,343,3.47560975609756,-57,-20.9146341463415,-74,4.51219512195122,-5,0.0217391304347826,-54,-0.234782608695652,138,-0.673170731707317,
9455914,4726.5625,-1856,1.13795217657879,3984,2.4426732066217,-14464,8.86817903126916,346,0.670731707317073,-11,-21.0975609756098,-80,4.87804878048781,-5,0.0217391304347826,-58,-0.252173913043478,140,-0.682926829268293,
9456554,4746.09375,-1840,1.12814224402207,3920,2.40343347639485,-14752,9.04475781729001,386,-1.64634146341463,27,-23.5365853658537,-63,3.84146341463415,-4,0.0173913043478261,-58,-0.252173913043478,139,-0.678048780487805,
9457194,4765.625,-2016,1.23605150214592,3520,2.15818516247701,-15104,9.26057633353771,417,-2.98780487804878,49,-25.4268292682927,-36,2.19512195121951,-3,0.0130434782608696,-57,-0.247826086956522,139,-0.678048780487805,
9457834,4785.15625,-2112,1.2949110974862,3104,1.90312691600245,-15328,9.3979153893317,424,-2.86585365853659,47,-25.8536585365854,-7,0.426829268292683,-1,0.00434782608695652,-61,-0.265217391304348,139,-0.678048780487805,
9458474,4804.6875,-2320,1.42244022072348,2656,1.62844880441447,-15568,9.5450643776824,397,-1.89024390243902,31,-24.2073170731707,3,-0.182926829268293,0,0,-59,-0.256521739130435,139,-0.678048780487805,
9459114,4824.21875,-2800,1.71673819742489,2304,1.41263028816677,-15440,9.46658491722869,293,0.792682926829268,-13,-17.8658536585366,0,0,-1,0.00434782608695652,-56,-0.243478260869565,137,-0.668292682926829,
9459754,4843.75,-3088,1.89331698344574,2192,1.34396076026977,-15344,9.40772532188841,88,3.23170731707317,-53,-5.36585365853659,-22,1.34146341463415,0,0,-62,-0.269565217391304,137,-0.668292682926829,
9460394,4863.28125,-3024,1.85407725321888,2256,1.38320049049663,-15360,9.41753525444513,-133,5.1219512195122,-84,8.10975609756098,-58,3.53658536585366,0,0,-62,-0.269565217391304,139,-0.678048780487805,
9461034,4882.8125,-2784,1.70692826486818,2400,1.47148988350705,-15152,9.29000613120785,-277,6.15853658536585,-101,16.890243902439,-97,5.91463414634146,0,0,-61,-0.265217391304348,138,-0.673170731707317,
9461674,4902.34375,-2464,1.51072961373391,2560,1.56958920907419,-15152,9.29000613120785,-259,6.52439024390244,-107,15.7926829268293,-121,7.37804878048781,-2,0.00869565217391304,-61,-0.265217391304348,139,-0.678048780487805,
9462314,4921.875,-2464,1.51072961373391,2784,1.70692826486818,-15152,9.29000613120785,-168,5.97560975609756,-98,10.2439024390244,-139,8.47560975609756,-2,0.00869565217391304,-59,-0.256521739130435,138,-0.673170731707317,
9462954,4941.40625,-2688,1.6480686695279,2944,1.80502759043532,-15216,9.3292458614347,-89,4.9390243902439,-81,5.42682926829268,-154,9.39024390243902,-3,0.0130434782608696,-57,-0.247826086956522,137,-0.668292682926829,
9463594,4960.9375,-2800,1.71673819742489,3184,1.95217657878602,-15392,9.43715511955855,-32,2.68292682926829,-44,1.95121951219512,-166,10.1219512195122,0,0,-57,-0.247826086956522,138,-0.673170731707317,
9464234,4980.46875,-2752,1.68730839975475,3440,2.10913549969344,-15536,9.52544451256898,22,0,0,-1.34146341463415,-166,10.1219512195122,-2,0.00869565217391304,-58,-0.252173913043478,140,-0.682926829268293,
9464874,5000,-2768,1.69711833231147,3616,2.21704475781729,-15728,9.64316370324954,98,-2.6219512195122,43,-5.97560975609756,-136,8.29268292682927,-1,0.00434782608695652,-59,-0.256521739130435,140,-0.682926829268293,
9465514,5019.53125,-2672,1.63825873697118,3504,2.14837522992029,-16128,9.88841201716738,168,-4.81707317073171,79,-10.2439024390244,-86,5.24390243902439,-1,0.00434782608695652,-53,-0.230434782608696,137,-0.668292682926829,
9466154,5039.0625,-2720,1.66768853464132,3200,1.96198651134273,-16304,9.99632127529123,258,-5.79268292682927,95,-15.7317073170732,-24,1.46341463414634,1,-0.00434782608695652,-61,-0.265217391304348,141,-0.68780487804878,
9466794,5058.59375,-3008,1.84426732066217,2784,1.70692826486818,-16448,10.0846106683017,304,-4.87804878048781,80,-18.5365853658537,32,-1.95121951219512,1,-0.00434782608695652,-59,-0.256521739130435,137,-0.668292682926829,
9467434,5078.125,-3328,2.04046597179644,2288,1.40282035561006,-16432,10.0748007357449,234,-2.86585365853659,47,-14.2682926829268,57,-3.47560975609756,0,0,-58,-0.252173913043478,136,-0.663414634146342,
9468074,5097.65625,-3392,2.0797057020233,2240,1.37339055793991,-16400,10.0551808706315,74,0.0609756097560976,-1,-4.51219512195122,53,-3.23170731707317,3,-0.0130434782608696,-61,-0.265217391304348,139,-0.678048780487805,
9468714,5117.1875,-3136,1.92274678111588,2304,1.41263028816677,-16256,9.96689147762109,-93,2.92682926829268,-48,5.67073170731707,33,-2.01219512195122,1,-0.00434782608695652,-61,-0.265217391304348,139,-0.678048780487805,
9469354,5136.71875,-2784,1.70692826486818,2528,1.54996934396076,-16208,9.93746167995095,-186,5,-82,11.3414634146341,11,-0.670731707317073,0,0,-57,-0.247826086956522,137,-0.668292682926829,
9469994,5156.25,-2544,1.55977927651747,2768,1.69711833231147,-16192,9.92765174739424,-179,6.28048780487805,-103,10.9146341463415,0,0,1,-0.00434782608695652,-58,-0.252173913043478,138,-0.673170731707317,
9470634,5175.78125,-2448,1.50091968117719,2848,1.74616799509503,-15904,9.75107296137339,-119,6.76829268292683,-111,7.25609756097561,-12,0.731707317073171,-1,0.00434782608695652,-59,-0.256521739130435,138,-0.673170731707317,
9471274,5195.3125,-2288,1.40282035561006,3040,1.8638871857756,-16112,9.87860208461067,-42,6.82926829268293,-112,2.5609756097561,-30,1.82926829268293,0,0,-60,-0.260869565217391,139,-0.678048780487805,
9471914,5214.84375,-2384,1.46167995095034,3104,1.90312691600245,-15952,9.78050275904353,29,7.86585365853659,-129,-1.76829268292683,-46,2.80487804878049,0,0,-59,-0.256521739130435,138,-0.673170731707317,
9472554,5234.375,-2640,1.61863887185776,3408,2.08951563458001,-15808,9.69221336603311,3,8.10975609756098,-133,-0.182926829268293,-72,4.39024390243902,1,-0.00434782608695652,-61,-0.265217391304348,137,-0.668292682926829,
9473194,5253.90625,-2736,1.67749846719804,3728,2.28571428571429,-15632,9.58430410790926,-80,7.01219512195122,-115,4.87804878048781,-100,6.09756097560976,1,-0.00434782608695652,-56,-0.243478260869565,138,-0.673170731707317,
9473834,5273.4375,-2512,1.54015941140405,3984,2.4426732066217,-15600,9.56468424279583,-118,5.36585365853659,-88,7.19512195121951,-112,6.82926829268293,0,0,-56,-0.243478260869565,139,-0.678048780487805,
9474474,5292.96875,-2096,1.28510116492949,4160,2.55058246474555,-15520,9.51563458001226,-75,3.23170731707317,-53,4.57317073170732,-97,5.91463414634146,0,0,-56,-0.243478260869565,136,-0.663414634146342,
9475114,5312.5,-1792,1.09871244635193,4032,2.47210300429185,-15648,9.59411404046597,45,0.914634146341463,-15,-2.74390243902439,-52,3.17073170731707,-2,0.00869565217391304,-60,-0.260869565217391,139,-0.678048780487805,
9475754,5332.03125,-1808,1.10852237890864,3760,2.30533415082771,-15840,9.71183323114654,175,0,0,-10.6707317073171,5,-0.304878048780488,-1,0.00434782608695652,-56,-0.243478260869565,139,-0.678048780487805,
9476394,5351.5625,-2176,1.33415082771306,3440,2.10913549969344,-15888,9.74126302881668,218,-0.365853658536585,6,-13.2926829268293,55,-3.35365853658537,1,-0.00434782608695652,-54,-0.234782608695652,137,-0.668292682926829,
9477034,5371.09375,-2480,1.52053954629062,3008,1.84426732066217,-16016,9.81974248927039,155,0.731707317073171,-12,-9.45121951219512,76,-4.63414634146342,-1,0.00434782608695652,-55,-0.239130434782609,138,-0.673170731707317,
9477674,5390.625,-2688,1.6480686695279,2720,1.66768853464132,-15984,9.80012262415696,43,2.98780487804878,-49,-2.6219512195122,68,-4.14634146341463,2,-0.00869565217391304,-61,-0.265217391304348,138,-0.673170731707317,
9478314,5410.15625,-2688,1.6480686695279,2624,1.60882893930104,-15936,9.77069282648682,-73,4.9390243902439,-81,4.45121951219512,41,-2.5,1,-0.00434782608695652,-58,-0.252173913043478,137,-0.668292682926829,
9478954,5429.6875,-2352,1.44206008583691,2752,1.68730839975475,-15856,9.72164316370325,-133,6.58536585365854,-108,8.10975609756098,7,-0.426829268292683,-1,0.00434782608695652,-55,-0.239130434782609,137,-0.668292682926829,
9479594,5449.21875,-2080,1.27529123237278,2880,1.76578786020846,-15792,9.6824034334764,-87,7.19512195121951,-118,5.30487804878049,-22,1.34146341463415,-1,0.00434782608695652,-55,-0.239130434782609,136,-0.663414634146342,
9480234,5468.75,-2256,1.38320049049663,3088,1.89331698344574,-15648,9.59411404046597,9,7.25609756097561,-119,-0.548780487804878,-37,2.25609756097561,0,0,-60,-0.260869565217391,138,-0.673170731707317,
9480874,5488.28125,-2464,1.51072961373391,3280,2.0110361741263,-15584,9.55487431023912,77,6.09756097560976,-100,-4.69512195121951,-49,2.98780487804878,2,-0.00869565217391304,-58,-0.252173913043478,137,-0.668292682926829,
9481514,5507.8125,-2672,1.63825873697118,3360,2.06008583690987,-15456,9.47639484978541,118,4.87804878048781,-80,-7.19512195121951,-54,3.29268292682927,1,-0.00434782608695652,-59,-0.256521739130435,137,-0.668292682926829,
9482154,5527.34375,-2832,1.73635806253832,3536,2.16799509503372,-15264,9.35867565910484,114,3.47560975609756,-57,-6.95121951219512,-58,3.53658536585366,0,0,-59,-0.256521739130435,139,-0.678048780487805,
9482794,5546.875,-2928,1.7952176578786,3680,2.25628448804414,-15280,9.36848559166156,111,1.89024390243902,-31,-6.76829268292683,-47,2.86585365853659,-1,0.00434782608695652,-62,-0.269565217391304,139,-0.678048780487805,
9483434,5566.40625,-2848,1.74616799509503,3760,2.30533415082771,-15296,9.37829552421827,126,-0.487804878048781,8,-7.68292682926829,-25,1.52439024390244,1,-0.00434782608695652,-56,-0.243478260869565,136,-0.663414634146342,
9484074,5585.9375,-2800,1.71673819742489,3744,2.295524218271,-15344,9.40772532188841,164,-2.5,41,-10,24,-1.46341463414634,3,-0.0130434782608696,-61,-0.265217391304348,137,-0.668292682926829,
9484714,5605.46875,-2896,1.77559779276517,3424,2.09932556713673,-15520,9.51563458001226,182,-3.59756097560976,59,-11.0975609756098,61,-3.71951219512195,2,-0.00869565217391304,-57,-0.247826086956522,136,-0.663414634146342,
9485354,5625,-2960,1.81483752299203,3104,1.90312691600245,-15648,9.59411404046597,146,-3.47560975609756,57,-8.90243902439025,83,-5.0609756097561,2,-0.00869565217391304,-56,-0.243478260869565,136,-0.663414634146342,
9485994,5644.53125,-3008,1.84426732066217,2800,1.71673819742489,-15792,9.6824034334764,85,-2.4390243902439,40,-5.18292682926829,89,-5.42682926829268,1,-0.00434782608695652,-55,-0.239130434782609,135,-0.658536585365854,
9486634,5664.0625,-2944,1.80502759043532,2608,1.59901900674433,-15824,9.70202329858982,22,-0.670731707317073,11,-1.34146341463415,81,-4.9390243902439,3,-0.0130434782608696,-61,-0.265217391304348,137,-0.668292682926829,
9487274,5683.59375,-2896,1.77559779276517,2512,1.54015941140405,-15712,9.63335377069283,-29,1.34146341463415,-22,1.76829268292683,65,-3.96341463414634,1,-0.00434782608695652,-57,-0.247826086956522,138,-0.673170731707317,
9487914,5703.125,-2816,1.72654812998161,2544,1.55977927651747,-15600,9.56468424279583,-69,2.98780487804878,-49,4.20731707317073,34,-2.07317073170732,0,0,-59,-0.256521739130435,137,-0.668292682926829,
9488554,5722.65625,-2768,1.69711833231147,2672,1.63825873697118,-15568,9.5450643776824,-84,3.78048780487805,-62,5.1219512195122,5,-0.304878048780488,4,-0.0173913043478261,-61,-0.265217391304348,138,-0.673170731707317,
9489194,5742.1875,-2624,1.60882893930104,2816,1.72654812998161,-15520,9.51563458001226,-62,3.78048780487805,-62,3.78048780487805,-22,1.34146341463415,0,0,-57,-0.247826086956522,136,-0.663414634146342,
9489834,5761.71875,-2640,1.61863887185776,3024,1.85407725321888,-15472,9.48620478234212,-6,3.47560975609756,-57,0.365853658536585,-31,1.89024390243902,2,-0.00869565217391304,-57,-0.247826086956522,136,-0.663414634146342,
9490474,5781.25,-2832,1.73635806253832,3168,1.94236664622931,-15456,9.47639484978541,56,2.92682926829268,-48,-3.41463414634146,-32,1.95121951219512,2,-0.00869565217391304,-57,-0.247826086956522,137,-0.668292682926829,
9491114,5800.78125,-3056,1.87369711833231,3312,2.03065603923973,-15296,9.37829552421827,86,1.82926829268293,-30,-5.24390243902439,-24,1.46341463414634,2,-0.00869565217391304,-60,-0.260869565217391,137,-0.668292682926829,
9491754,5820.3125,-3248,1.99141630901288,3472,2.12875536480687,-15248,9.34886572654813,95,0.487804878048781,-8,-5.79268292682927,-19,1.15853658536585,1,-0.00434782608695652,-59,-0.256521739130435,138,-0.673170731707317,
9492394,5839.84375,-3328,2.04046597179644,3600,2.20723482526058,-15376,9.42734518700184,68,-1.21951219512195,20,-4.14634146341463,-1,0.0609756097560976,4,-0.0173913043478261,-58,-0.252173913043478,136,-0.663414634146342,
9493034,5859.375,-3232,1.98160637645616,3712,2.27590435315757,-15472,9.48620478234212,49,-2.98780487804878,49,-2.98780487804878,23,-1.40243902439024,0,0,-54,-0.234782608695652,135,-0.658536585365854,
9493674,5878.90625,-3056,1.87369711833231,3536,2.16799509503372,-15568,9.5450643776824,61,-4.45121951219512,73,-3.71951219512195,53,-3.23170731707317,2,-0.00869565217391304,-60,-0.260869565217391,137,-0.668292682926829,
9494314,5898.4375,-3008,1.84426732066217,3296,2.02084610668302,-15664,9.60392397302268,88,-5.18292682926829,85,-5.36585365853659,83,-5.0609756097561,1,-0.00434782608695652,-58,-0.252173913043478,135,-0.658536585365854,
9494954,5917.96875,-3072,1.88350705088903,2992,1.83445738810546,-15792,9.6824034334764,74,-4.57317073170732,75,-4.51219512195122,99,-6.03658536585366,2,-0.00869565217391304,-59,-0.256521739130435,135,-0.658536585365854,
9495594,5937.5,-3072,1.88350705088903,2800,1.71673819742489,-15968,9.79031269160024,28,-3.35365853658537,55,-1.70731707317073,104,-6.34146341463415,0,0,-54,-0.234782608695652,135,-0.658536585365854,
9496234,5957.03125,-2912,1.78540772532189,2496,1.53034947884733,-15936,9.77069282648682,-43,-1.40243902439024,23,2.6219512195122,93,-5.67073170731707,0,0,-55,-0.239130434782609,135,-0.658536585365854,
9496874,5976.5625,-2848,1.74616799509503,2320,1.42244022072348,-15984,9.80012262415696,-91,0.24390243902439,-4,5.54878048780488,76,-4.63414634146342,3,-0.0130434782608696,-56,-0.243478260869565,135,-0.658536585365854,
9497514,5996.09375,-2704,1.65787860208461,2368,1.45187001839362,-15920,9.7608828939301,-115,2.07317073170732,-34,7.01219512195122,50,-3.04878048780488,3,-0.0130434782608696,-63,-0.273913043478261,138,-0.673170731707317,
9498154,6015.625,-2528,1.54996934396076,2320,1.42244022072348,-16048,9.83936235438381,-114,3.29268292682927,-54,6.95121951219512,23,-1.40243902439024,-2,0.00869565217391304,-56,-0.243478260869565,136,-0.663414634146342,
9498794,6035.15625,-2576,1.5793991416309,2480,1.52053954629062,-16000,9.80993255671367,-88,4.51219512195122,-74,5.36585365853659,-9,0.548780487804878,0,0,-56,-0.243478260869565,136,-0.663414634146342,
9499434,6054.6875,-2624,1.60882893930104,2688,1.6480686695279,-15984,9.80012262415696,-64,4.9390243902439,-81,3.90243902439024,-34,2.07317073170732,0,0,-53,-0.230434782608696,136,-0.663414634146342,
9500074,6074.21875,-2640,1.61863887185776,2848,1.74616799509503,-16048,9.83936235438381,-39,5.30487804878049,-87,2.37804878048781,-45,2.74390243902439,2,-0.00869565217391304,-61,-0.265217391304348,139,-0.678048780487805,
9500714,6093.75,-2768,1.69711833231147,2928,1.7952176578786,-15840,9.71183323114654,7,5.24390243902439,-86,-0.426829268292683,-48,2.92682926829268,-1,0.00434782608695652,-55,-0.239130434782609,136,-0.663414634146342,
9501354,6113.28125,-2976,1.82464745554874,3056,1.87369711833231,-15760,9.66278356836297,42,4.87804878048781,-80,-2.5609756097561,-39,2.37804878048781,0,0,-55,-0.239130434782609,135,-0.658536585365854,
9501994,6132.8125,-3152,1.93255671367259,3136,1.92274678111588,-15728,9.64316370324954,48,3.90243902439024,-64,-2.92682926829268,-32,1.95121951219512,3,-0.0130434782608696,-62,-0.269565217391304,138,-0.673170731707317,
9502634,6152.34375,-3200,1.96198651134273,3248,1.99141630901288,-15712,9.63335377069283,32,2.98780487804878,-49,-1.95121951219512,-18,1.09756097560976,1,-0.00434782608695652,-56,-0.243478260869565,138,-0.673170731707317,
9503274,6171.875,-3088,1.89331698344574,3264,2.00122624156959,-15648,9.59411404046597,13,1.70731707317073,-28,-0.792682926829268,3,-0.182926829268293,4,-0.0173913043478261,-58,-0.252173913043478,135,-0.658536585365854,
9503914,6191.40625,-2896,1.77559779276517,3216,1.97179644389945,-15712,9.63335377069283,16,0.609756097560976,-10,-0.975609756097561,27,-1.64634146341463,2,-0.00869565217391304,-58,-0.252173913043478,137,-0.668292682926829,
9504554,6210.9375,-2800,1.71673819742489,3120,1.91293684855917,-15680,9.6137339055794,36,-0.0609756097560976,1,-2.19512195121951,42,-2.5609756097561,2,-0.00869565217391304,-60,-0.260869565217391,137,-0.668292682926829,
9505194,6230.46875,-2848,1.74616799509503,2832,1.73635806253832,-15696,9.62354383813611,51,0,0,-3.10975609756098,51,-3.10975609756098,-1,0.00434782608695652,-57,-0.247826086956522,135,-0.658536585365854,
9505834,6250,-2928,1.7952176578786,2688,1.6480686695279,-15648,9.59411404046597,38,0.304878048780488,-5,-2.31707317073171,56,-3.41463414634146,1,-0.00434782608695652,-55,-0.239130434782609,135,-0.658536585365854,
9506474,6269.53125,-2816,1.72654812998161,2576,1.5793991416309,-15728,9.64316370324954,-1,1.28048780487805,-21,0.0609756097560976,50,-3.04878048780488,3,-0.0130434782608696,-61,-0.265217391304348,136,-0.663414634146342,
9507114,6289.0625,-2752,1.68730839975475,2480,1.52053954629062,-15744,9.65297363580625,-34,2.19512195121951,-36,2.07317073170732,34,-2.07317073170732,1,-0.00434782608695652,-58,-0.252173913043478,138,-0.673170731707317,
9507754,6308.59375,-2656,1.62844880441447,2512,1.54015941140405,-15824,9.70202329858982,-57,3.10975609756098,-51,3.47560975609756,18,-1.09756097560976,2,-0.00869565217391304,-56,-0.243478260869565,138,-0.673170731707317,
9508394,6328.125,-2736,1.67749846719804,2576,1.5793991416309,-15808,9.69221336603311,-57,3.90243902439024,-64,3.47560975609756,-2,0.121951219512195,2,-0.00869565217391304,-55,-0.239130434782609,136,-0.663414634146342,
9509034,6347.65625,-2672,1.63825873697118,2768,1.69711833231147,-15680,9.6137339055794,-45,4.39024390243902,-72,2.74390243902439,-22,1.34146341463415,0,0,-52,-0.226086956521739,135,-0.658536585365854,
9509674,6367.1875,-2784,1.70692826486818,2816,1.72654812998161,-15728,9.64316370324954,-22,4.14634146341463,-68,1.34146341463415,-41,2.5,1,-0.00434782608695652,-57,-0.247826086956522,138,-0.673170731707317,
9510314,6386.71875,-2880,1.76578786020846,2896,1.77559779276517,-15680,9.6137339055794,15,3.96341463414634,-65,-0.914634146341463,-48,2.92682926829268,1,-0.00434782608695652,-58,-0.252173913043478,138,-0.673170731707317,
9510954,6406.25,-2928,1.7952176578786,3088,1.89331698344574,-15744,9.65297363580625,39,3.59756097560976,-59,-2.37804878048781,-47,2.86585365853659,2,-0.00869565217391304,-60,-0.260869565217391,138,-0.673170731707317,
9511594,6425.78125,-3024,1.85407725321888,3088,1.89331698344574,-15744,9.65297363580625,64,2.86585365853659,-47,-3.90243902439024,-47,2.86585365853659,1,-0.00434782608695652,-54,-0.234782608695652,136,-0.663414634146342,
9512234,6445.3125,-3136,1.92274678111588,3152,1.93255671367259,-15680,9.6137339055794,81,2.25609756097561,-37,-4.9390243902439,-34,2.07317073170732,3,-0.0130434782608696,-57,-0.247826086956522,135,-0.658536585365854,
9512874,6464.84375,-3184,1.95217657878602,3152,1.93255671367259,-15648,9.59411404046597,82,1.82926829268293,-30,-5,-15,0.914634146341463,3,-0.0130434782608696,-58,-0.252173913043478,136,-0.663414634146342,
9513514,6484.375,-3184,1.95217657878602,3120,1.91293684855917,-15728,9.64316370324954,78,1.28048780487805,-21,-4.75609756097561,9,-0.548780487804878,1,-0.00434782608695652,-60,-0.260869565217391,136,-0.663414634146342,
9514154,6503.90625,-3168,1.94236664622931,3040,1.8638871857756,-15824,9.70202329858982,59,1.15853658536585,-19,-3.59756097560976,31,-1.89024390243902,2,-0.00869565217391304,-59,-0.256521739130435,136,-0.663414634146342,
9514794,6523.4375,-2992,1.83445738810546,2928,1.7952176578786,-15792,9.6824034334764,26,0.914634146341463,-15,-1.58536585365854,49,-2.98780487804878,0,0,-56,-0.243478260869565,136,-0.663414634146342,
9515434,6542.96875,-2880,1.76578786020846,2800,1.71673819742489,-15840,9.71183323114654,-8,1.34146341463415,-22,0.487804878048781,52,-3.17073170731707,0,0,-53,-0.230434782608696,136,-0.663414634146342,
9516074,6562.5,-2736,1.67749846719804,2656,1.62844880441447,-15808,9.69221336603311,-31,1.76829268292683,-29,1.89024390243902,48,-2.92682926829268,-1,0.00434782608695652,-59,-0.256521739130435,136,-0.663414634146342,
9516714,6582.03125,-2688,1.6480686695279,2624,1.60882893930104,-15744,9.65297363580625,-21,2.5609756097561,-42,1.28048780487805,29,-1.76829268292683,0,0,-55,-0.239130434782609,135,-0.658536585365854,
9517354,6601.5625,-2576,1.5793991416309,2688,1.6480686695279,-15776,9.67259350091968,-9,2.74390243902439,-45,0.548780487804878,11,-0.670731707317073,2,-0.00869565217391304,-61,-0.265217391304348,136,-0.663414634146342,
9517994,6621.09375,-2560,1.56958920907419,2640,1.61863887185776,-15776,9.67259350091968,-1,2.86585365853659,-47,0.0609756097560976,-7,0.426829268292683,-1,0.00434782608695652,-55,-0.239130434782609,136,-0.663414634146342,
9518634,6640.625,-2608,1.59901900674433,2720,1.66768853464132,-15776,9.67259350091968,13,3.29268292682927,-54,-0.792682926829268,-30,1.82926829268293,2,-0.00869565217391304,-56,-0.243478260869565,137,-0.668292682926829,
9519274,6660.15625,-2656,1.62844880441447,2784,1.70692826486818,-15744,9.65297363580625,20,3.29268292682927,-54,-1.21951219512195,-43,2.6219512195122,2,-0.00869565217391304,-56,-0.243478260869565,136,-0.663414634146342,
9519914,6679.6875,-2784,1.70692826486818,2848,1.74616799509503,-15680,9.6137339055794,33,2.86585365853659,-47,-2.01219512195122,-43,2.6219512195122,-1,0.00434782608695652,-56,-0.243478260869565,135,-0.658536585365854,
9520554,6699.21875,-2880,1.76578786020846,2864,1.75597792765175,-15776,9.67259350091968,59,2.74390243902439,-45,-3.59756097560976,-42,2.5609756097561,0,0,-51,-0.221739130434783,135,-0.658536585365854,
9521194,6718.75,-3056,1.87369711833231,2816,1.72654812998161,-15744,9.65297363580625,60,2.98780487804878,-49,-3.65853658536585,-35,2.13414634146341,1,-0.00434782608695652,-56,-0.243478260869565,136,-0.663414634146342,
9521834,6738.28125,-3168,1.94236664622931,2864,1.75597792765175,-15664,9.60392397302268,28,3.10975609756098,-51,-1.70731707317073,-31,1.89024390243902,2,-0.00869565217391304,-56,-0.243478260869565,136,-0.663414634146342,
9522474,6757.8125,-3120,1.91293684855917,2880,1.76578786020846,-15728,9.64316370324954,-2,2.98780487804878,-49,0.121951219512195,-30,1.82926829268293,2,-0.00869565217391304,-53,-0.230434782608696,135,-0.658536585365854,
9523114,6777.34375,-3056,1.87369711833231,2816,1.72654812998161,-15712,9.63335377069283,-9,3.29268292682927,-54,0.548780487804878,-27,1.64634146341463,2,-0.00869565217391304,-54,-0.234782608695652,135,-0.658536585365854,
9523754,6796.875,-3040,1.8638871857756,2752,1.68730839975475,-15680,9.6137339055794,3,3.35365853658537,-55,-0.182926829268293,-24,1.46341463414634,2,-0.00869565217391304,-58,-0.252173913043478,135,-0.658536585365854,
9524394,6816.40625,-3152,1.93255671367259,2800,1.71673819742489,-15712,9.63335377069283,14,3.35365853658537,-55,-0.853658536585366,-25,1.52439024390244,1,-0.00434782608695652,-56,-0.243478260869565,135,-0.658536585365854,
9525034,6835.9375,-3120,1.91293684855917,2832,1.73635806253832,-15600,9.56468424279583,5,3.10975609756098,-51,-0.304878048780488,-25,1.52439024390244,3,-0.0130434782608696,-54,-0.234782608695652,133,-0.648780487804878,
9525674,6855.46875,-3104,1.90312691600245,2816,1.72654812998161,-15584,9.55487431023912,9,2.86585365853659,-47,-0.548780487804878,-22,1.34146341463415,2,-0.00869565217391304,-55,-0.239130434782609,134,-0.653658536585366,
9526314,6875,-3072,1.88350705088903,2848,1.74616799509503,-15616,9.57449417535254,21,2.6219512195122,-43,-1.28048780487805,-18,1.09756097560976,0,0,-55,-0.239130434782609,135,-0.658536585365854,
9526954,6894.53125,-3152,1.93255671367259,2752,1.68730839975475,-15552,9.53525444512569,24,2.5,-41,-1.46341463414634,-14,0.853658536585366,1,-0.00434782608695652,-54,-0.234782608695652,136,-0.663414634146342,
9527594,6914.0625,-3216,1.97179644389945,2784,1.70692826486818,-15600,9.56468424279583,20,2.37804878048781,-39,-1.21951219512195,-13,0.792682926829268,1,-0.00434782608695652,-55,-0.239130434782609,134,-0.653658536585366,
9528234,6933.59375,-3184,1.95217657878602,2752,1.68730839975475,-15696,9.62354383813611,7,2.31707317073171,-38,-0.426829268292683,-9,0.548780487804878,0,0,-56,-0.243478260869565,135,-0.658536585365854,
9528874,6953.125,-3168,1.94236664622931,2768,1.69711833231147,-15744,9.65297363580625,3,2.25609756097561,-37,-0.182926829268293,-5,0.304878048780488,-1,0.00434782608695652,-55,-0.239130434782609,134,-0.653658536585366,
9529514,6972.65625,-3056,1.87369711833231,2736,1.67749846719804,-15728,9.64316370324954,7,2.19512195121951,-36,-0.426829268292683,-2,0.121951219512195,2,-0.00869565217391304,-58,-0.252173913043478,135,-0.658536585365854,
9530154,6992.1875,-3040,1.8638871857756,2800,1.71673819742489,-15760,9.66278356836297,8,2.37804878048781,-39,-0.487804878048781,-3,0.182926829268293,2,-0.00869565217391304,-57,-0.247826086956522,136,-0.663414634146342,
9530794,7011.71875,-3088,1.89331698344574,2800,1.71673819742489,-15792,9.6824034334764,4,2.6219512195122,-43,-0.24390243902439,-4,0.24390243902439,2,-0.00869565217391304,-57,-0.247826086956522,136,-0.663414634146342,
9531434,7031.25,-3072,1.88350705088903,2784,1.70692826486818,-15744,9.65297363580625,-8,2.80487804878049,-46,0.487804878048781,-5,0.304878048780488,2,-0.00869565217391304,-56,-0.243478260869565,135,-0.658536585365854,
9532074,7050.78125,-2992,1.83445738810546,2768,1.69711833231147,-15792,9.6824034334764,-13,2.86585365853659,-47,0.792682926829268,-5,0.304878048780488,2,-0.00869565217391304,-56,-0.243478260869565,136,-0.663414634146342,
9532714,7070.3125,-2960,1.81483752299203,2752,1.68730839975475,-15760,9.66278356836297,-6,2.98780487804878,-49,0.365853658536585,-9,0.548780487804878,2,-0.00869565217391304,-58,-0.252173913043478,135,-0.658536585365854,
9533354,7089.84375,-3008,1.84426732066217,2736,1.67749846719804,-15728,9.64316370324954,-5,3.04878048780488,-50,0.304878048780488,-6,0.365853658536585,4,-0.0173913043478261,-55,-0.239130434782609,136,-0.663414634146342,
9533994,7109.375,-3008,1.84426732066217,2688,1.6480686695279,-15664,9.60392397302268,-12,2.68292682926829,-44,0.731707317073171,-10,0.609756097560976,4,-0.0173913043478261,-60,-0.260869565217391,136,-0.663414634146342,
9534634,7128.90625,-3008,1.84426732066217,2752,1.68730839975475,-15696,9.62354383813611,-11,2.68292682926829,-44,0.670731707317073,-8,0.487804878048781,2,-0.00869565217391304,-57,-0.247826086956522,135,-0.658536585365854,
9535274,7148.4375,-2944,1.80502759043532,2704,1.65787860208461,-15648,9.59411404046597,-1,2.4390243902439,-40,0.0609756097560976,-12,0.731707317073171,3,-0.0130434782608696,-57,-0.247826086956522,137,-0.668292682926829,
9535914,7167.96875,-2928,1.7952176578786,2720,1.66768853464132,-15680,9.6137339055794,5,2.6219512195122,-43,-0.304878048780488,-13,0.792682926829268,2,-0.00869565217391304,-54,-0.234782608695652,134,-0.653658536585366,
9536554,7187.5,-2960,1.81483752299203,2672,1.63825873697118,-15664,9.60392397302268,1,2.5609756097561,-42,-0.0609756097560976,-18,1.09756097560976,2,-0.00869565217391304,-59,-0.256521739130435,137,-0.668292682926829,
9537194,7207.03125,-2912,1.78540772532189,2720,1.66768853464132,-15728,9.64316370324954,-1,2.4390243902439,-40,0.0609756097560976,-20,1.21951219512195,4,-0.0173913043478261,-57,-0.247826086956522,136,-0.663414634146342,
9537834,7226.5625,-2944,1.80502759043532,2720,1.66768853464132,-15696,9.62354383813611,1,2.37804878048781,-39,-0.0609756097560976,-23,1.40243902439024,0,0,-53,-0.230434782608696,136,-0.663414634146342,
9538474,7246.09375,-2944,1.80502759043532,2736,1.67749846719804,-15664,9.60392397302268,7,2.4390243902439,-40,-0.426829268292683,-24,1.46341463414634,2,-0.00869565217391304,-58,-0.252173913043478,135,-0.658536585365854,
9539114,7265.625,-2992,1.83445738810546,2736,1.67749846719804,-15744,9.65297363580625,15,2.25609756097561,-37,-0.914634146341463,-22,1.34146341463415,2,-0.00869565217391304,-58,-0.252173913043478,134,-0.653658536585366,
9539754,7285.15625,-2944,1.80502759043532,2688,1.6480686695279,-15696,9.62354383813611,15,2.07317073170732,-34,-0.914634146341463,-22,1.34146341463415,3,-0.0130434782608696,-56,-0.243478260869565,136,-0.663414634146342,
9540394,7304.6875,-3088,1.89331698344574,2720,1.66768853464132,-15664,9.60392397302268,18,2.31707317073171,-38,-1.09756097560976,-24,1.46341463414634,1,-0.00434782608695652,-59,-0.256521739130435,135,-0.658536585365854,
9541034,7324.21875,-3104,1.90312691600245,2720,1.66768853464132,-15696,9.62354383813611,17,2.01219512195122,-33,-1.03658536585366,-18,1.09756097560976,2,-0.00869565217391304,-55,-0.239130434782609,136,-0.663414634146342,
9541674,7343.75,-3152,1.93255671367259,2656,1.62844880441447,-15696,9.62354383813611,15,2.19512195121951,-36,-0.914634146341463,-17,1.03658536585366,1,-0.00434782608695652,-55,-0.239130434782609,135,-0.658536585365854,
9542314,7363.28125,-3104,1.90312691600245,2688,1.6480686695279,-15728,9.64316370324954,12,2.19512195121951,-36,-0.731707317073171,-16,0.975609756097561,0,0,-54,-0.234782608695652,136,-0.663414634146342,
9542954,7382.8125,-3184,1.95217657878602,2672,1.63825873697118,-15696,9.62354383813611,17,2.19512195121951,-36,-1.03658536585366,-13,0.792682926829268,2,-0.00869565217391304,-52,-0.226086956521739,135,-0.658536585365854,
9543594,7402.34375,-3152,1.93255671367259,2688,1.6480686695279,-15664,9.60392397302268,9,2.37804878048781,-39,-0.548780487804878,-14,0.853658536585366,3,-0.0130434782608696,-53,-0.230434782608696,135,-0.658536585365854,
9544234,7421.875,-3232,1.98160637645616,2608,1.59901900674433,-15696,9.62354383813611,-4,2.4390243902439,-40,0.24390243902439,-12,0.731707317073171,-2,0.00869565217391304,-56,-0.243478260869565,135,-0.658536585365854,
9544874,7441.40625,-3152,1.93255671367259,2672,1.63825873697118,-15680,9.6137339055794,-4,2.4390243902439,-40,0.24390243902439,-14,0.853658536585366,3,-0.0130434782608696,-55,-0.239130434782609,135,-0.658536585365854,
9545514,7460.9375,-3152,1.93255671367259,2560,1.56958920907419,-15744,9.65297363580625,6,2.5609756097561,-42,-0.365853658536585,-13,0.792682926829268,3,-0.0130434782608696,-54,-0.234782608695652,136,-0.663414634146342,
9546154,7480.46875,-3120,1.91293684855917,2608,1.59901900674433,-15776,9.67259350091968,0,2.68292682926829,-44,0,-12,0.731707317073171,3,-0.0130434782608696,-57,-0.247826086956522,135,-0.658536585365854,
9546794,7500,-3168,1.94236664622931,2624,1.60882893930104,-15840,9.71183323114654,1,2.5,-41,-0.0609756097560976,-13,0.792682926829268,1,-0.00434782608695652,-55,-0.239130434782609,135,-0.658536585365854,
9547434,7519.53125,-3136,1.92274678111588,2624,1.60882893930104,-15760,9.66278356836297,-4,2.4390243902439,-40,0.24390243902439,-10,0.609756097560976,0,0,-54,-0.234782608695652,133,-0.648780487804878,
9548074,7539.0625,-3088,1.89331698344574,2576,1.5793991416309,-15808,9.69221336603311,8,2.5609756097561,-42,-0.487804878048781,-8,0.487804878048781,1,-0.00434782608695652,-55,-0.239130434782609,133,-0.648780487804878,
9548714,7558.59375,-3104,1.90312691600245,2528,1.54996934396076,-15696,9.62354383813611,10,2.92682926829268,-48,-0.609756097560976,-8,0.487804878048781,2,-0.00869565217391304,-57,-0.247826086956522,135,-0.658536585365854,
9549354,7578.125,-3232,1.98160637645616,2608,1.59901900674433,-15712,9.63335377069283,3,2.86585365853659,-47,-0.182926829268293,-13,0.792682926829268,0,0,-53,-0.230434782608696,134,-0.653658536585366,
9549994,7597.65625,-3152,1.93255671367259,2672,1.63825873697118,-15664,9.60392397302268,-1,2.74390243902439,-45,0.0609756097560976,-9,0.548780487804878,2,-0.00869565217391304,-60,-0.260869565217391,136,-0.663414634146342,
9550634,7617.1875,-3200,1.96198651134273,2640,1.61863887185776,-15696,9.62354383813611,1,2.6219512195122,-43,-0.0609756097560976,-5,0.304878048780488,3,-0.0130434782608696,-57,-0.247826086956522,135,-0.658536585365854,
9551274,7636.71875,-3152,1.93255671367259,2640,1.61863887185776,-15728,9.64316370324954,8,2.68292682926829,-44,-0.487804878048781,-5,0.304878048780488,0,0,-53,-0.230434782608696,135,-0.658536585365854,
9551914,7656.25,-3136,1.92274678111588,2672,1.63825873697118,-15776,9.67259350091968,11,2.74390243902439,-45,-0.670731707317073,-1,0.0609756097560976,1,-0.00434782608695652,-55,-0.239130434782609,134,-0.653658536585366,
9552554,7675.78125,-3184,1.95217657878602,2624,1.60882893930104,-15728,9.64316370324954,10,2.74390243902439,-45,-0.609756097560976,-3,0.182926829268293,2,-0.00869565217391304,-56,-0.243478260869565,135,-0.658536585365854,
9553194,7695.3125,-3168,1.94236664622931,2672,1.63825873697118,-15792,9.6824034334764,2,2.5609756097561,-42,-0.121951219512195,-1,0.0609756097560976,1,-0.00434782608695652,-55,-0.239130434782609,136,-0.663414634146342,
9553834,7714.84375,-3104,1.90312691600245,2640,1.61863887185776,-15728,9.64316370324954,-4,2.4390243902439,-40,0.24390243902439,-4,0.24390243902439,2,-0.00869565217391304,-55,-0.239130434782609,135,-0.658536585365854,
9554474,7734.375,-3056,1.87369711833231,2688,1.6480686695279,-15776,9.67259350091968,10,2.68292682926829,-44,-0.609756097560976,-4,0.24390243902439,2,-0.00869565217391304,-52,-0.226086956521739,135,-0.658536585365854,
9555114,7753.90625,-3136,1.92274678111588,2624,1.60882893930104,-15760,9.66278356836297,16,2.5,-41,-0.975609756097561,-8,0.487804878048781,0,0,-57,-0.247826086956522,135,-0.658536585365854,
9555754,7773.4375,-3120,1.91293684855917,2576,1.5793991416309,-15728,9.64316370324954,4,2.6219512195122,-43,-0.24390243902439,-11,0.670731707317073,4,-0.0173913043478261,-58,-0.252173913043478,135,-0.658536585365854,
9556394,7792.96875,-3040,1.8638871857756,2688,1.6480686695279,-15728,9.64316370324954,10,2.6219512195122,-43,-0.609756097560976,-12,0.731707317073171,4,-0.0173913043478261,-60,-0.260869565217391,136,-0.663414634146342,
9557034,7812.5,-3072,1.88350705088903,2672,1.63825873697118,-15760,9.66278356836297,18,2.68292682926829,-44,-1.09756097560976,-10,0.609756097560976,4,-0.0173913043478261,-54,-0.234782608695652,135,-0.658536585365854,
9557674,7832.03125,-3104,1.90312691600245,2672,1.63825873697118,-15680,9.6137339055794,19,2.86585365853659,-47,-1.15853658536585,-9,0.548780487804878,4,-0.0173913043478261,-55,-0.239130434782609,136,-0.663414634146342,
9558314,7851.5625,-3088,1.89331698344574,2736,1.67749846719804,-15776,9.67259350091968,19,3.10975609756098,-51,-1.15853658536585,-9,0.548780487804878,2,-0.00869565217391304,-58,-0.252173913043478,135,-0.658536585365854,
9558954,7871.09375,-3104,1.90312691600245,2672,1.63825873697118,-15728,9.64316370324954,13,2.74390243902439,-45,-0.792682926829268,-9,0.548780487804878,3,-0.0130434782608696,-57,-0.247826086956522,135,-0.658536585365854,
9559594,7890.625,-3152,1.93255671367259,2528,1.54996934396076,-15728,9.64316370324954,13,2.92682926829268,-48,-0.792682926829268,-10,0.609756097560976,1,-0.00434782608695652,-57,-0.247826086956522,135,-0.658536585365854,
9560234,7910.15625,-3152,1.93255671367259,2640,1.61863887185776,-15712,9.63335377069283,9,2.80487804878049,-46,-0.548780487804878,-12,0.731707317073171,2,-0.00869565217391304,-53,-0.230434782608696,133,-0.648780487804878,
9560874,7929.6875,-3168,1.94236664622931,2624,1.60882893930104,-15728,9.64316370324954,11,3.17073170731707,-52,-0.670731707317073,-13,0.792682926829268,4,-0.0173913043478261,-59,-0.256521739130435,135,-0.658536585365854,
9561514,7949.21875,-3216,1.97179644389945,2624,1.60882893930104,-15776,9.67259350091968,10,3.23170731707317,-53,-0.609756097560976,-15,0.914634146341463,2,-0.00869565217391304,-58,-0.252173913043478,136,-0.663414634146342,
9562154,7968.75,-3248,1.99141630901288,2640,1.61863887185776,-15728,9.64316370324954,9,3.35365853658537,-55,-0.548780487804878,-8,0.487804878048781,1,-0.00434782608695652,-58,-0.252173913043478,134,-0.653658536585366,
9562794,7988.28125,-3248,1.99141630901288,2624,1.60882893930104,-15712,9.63335377069283,6,3.17073170731707,-52,-0.365853658536585,-14,0.853658536585366,4,-0.0173913043478261,-59,-0.256521739130435,135,-0.658536585365854,
9563434,8007.8125,-3248,1.99141630901288,2576,1.5793991416309,-15760,9.66278356836297,3,3.23170731707317,-53,-0.182926829268293,-11,0.670731707317073,4,-0.0173913043478261,-54,-0.234782608695652,133,-0.648780487804878,
9564074,8027.34375,-3216,1.97179644389945,2608,1.59901900674433,-15696,9.62354383813611,11,3.29268292682927,-54,-0.670731707317073,-9,0.548780487804878,3,-0.0130434782608696,-54,-0.234782608695652,134,-0.653658536585366,
9564714,8046.875,-3248,1.99141630901288,2608,1.59901900674433,-15664,9.60392397302268,17,3.17073170731707,-52,-1.03658536585366,-7,0.426829268292683,3,-0.0130434782608696,-56,-0.243478260869565,136,-0.663414634146342,
9565354,8066.40625,-3248,1.99141630901288,2576,1.5793991416309,-15712,9.63335377069283,17,2.86585365853659,-47,-1.03658536585366,-8,0.487804878048781,4,-0.0173913043478261,-57,-0.247826086956522,135,-0.658536585365854,
9565994,8085.9375,-3200,1.96198651134273,2608,1.59901900674433,-15712,9.63335377069283,9,3.10975609756098,-51,-0.548780487804878,-8,0.487804878048781,2,-0.00869565217391304,-59,-0.256521739130435,136,-0.663414634146342,
9566634,8105.46875,-3248,1.99141630901288,2576,1.5793991416309,-15664,9.60392397302268,4,2.86585365853659,-47,-0.24390243902439,-7,0.426829268292683,1,-0.00434782608695652,-54,-0.234782608695652,135,-0.658536585365854,
9567274,8125,-3232,1.98160637645616,2592,1.58920907418761,-15680,9.6137339055794,7,2.86585365853659,-47,-0.426829268292683,-5,0.304878048780488,4,-0.0173913043478261,-57,-0.247826086956522,135,-0.658536585365854,
9567914,8144.53125,-3232,1.98160637645616,2608,1.59901900674433,-15680,9.6137339055794,12,2.80487804878049,-46,-0.731707317073171,-5,0.304878048780488,4,-0.0173913043478261,-54,-0.234782608695652,133,-0.648780487804878,
9568554,8164.0625,-3216,1.97179644389945,2624,1.60882893930104,-15664,9.60392397302268,22,2.5,-41,-1.34146341463415,-2,0.121951219512195,4,-0.0173913043478261,-57,-0.247826086956522,135,-0.658536585365854,
9569194,8183.59375,-3200,1.96198651134273,2592,1.58920907418761,-15744,9.65297363580625,18,2.68292682926829,-44,-1.09756097560976,-2,0.121951219512195,1,-0.00434782608695652,-56,-0.243478260869565,134,-0.653658536585366,
9569834,8203.125,-3232,1.98160637645616,2544,1.55977927651747,-15728,9.64316370324954,13,2.80487804878049,-46,-0.792682926829268,-4,0.24390243902439,2,-0.00869565217391304,-57,-0.247826086956522,136,-0.663414634146342,
9570474,8222.65625,-3200,1.96198651134273,2576,1.5793991416309,-15760,9.66278356836297,6,2.80487804878049,-46,-0.365853658536585,-2,0.121951219512195,2,-0.00869565217391304,-53,-0.230434782608696,134,-0.653658536585366,
9571114,8242.1875,-3216,1.97179644389945,2608,1.59901900674433,-15792,9.6824034334764,3,3.35365853658537,-55,-0.182926829268293,0,0,2,-0.00869565217391304,-59,-0.256521739130435,135,-0.658536585365854,
9571754,8261.71875,-3200,1.96198651134273,2640,1.61863887185776,-15776,9.67259350091968,11,3.23170731707317,-53,-0.670731707317073,-1,0.0609756097560976,1,-0.00434782608695652,-54,-0.234782608695652,134,-0.653658536585366,
9572394,8281.25,-3232,1.98160637645616,2608,1.59901900674433,-15696,9.62354383813611,2,3.41463414634146,-56,-0.121951219512195,-1,0.0609756097560976,2,-0.00869565217391304,-56,-0.243478260869565,135,-0.658536585365854,
9573034,8300.78125,-3296,2.02084610668302,2704,1.65787860208461,-15744,9.65297363580625,-7,3.47560975609756,-57,0.426829268292683,-3,0.182926829268293,3,-0.0130434782608696,-55,-0.239130434782609,135,-0.658536585365854,
9573674,8320.3125,-3184,1.95217657878602,2704,1.65787860208461,-15760,9.66278356836297,-4,3.35365853658537,-55,0.24390243902439,-6,0.365853658536585,4,-0.0173913043478261,-56,-0.243478260869565,133,-0.648780487804878,
9574314,8339.84375,-3184,1.95217657878602,2704,1.65787860208461,-15680,9.6137339055794,12,3.23170731707317,-53,-0.731707317073171,-6,0.365853658536585,1,-0.00434782608695652,-54,-0.234782608695652,136,-0.663414634146342,
9574954,8359.375,-3232,1.98160637645616,2688,1.6480686695279,-15808,9.69221336603311,21,3.47560975609756,-57,-1.28048780487805,-6,0.365853658536585,1,-0.00434782608695652,-54,-0.234782608695652,134,-0.653658536585366,
9575594,8378.90625,-3264,2.00122624156959,2640,1.61863887185776,-15712,9.63335377069283,15,3.59756097560976,-59,-0.914634146341463,-7,0.426829268292683,2,-0.00869565217391304,-56,-0.243478260869565,135,-0.658536585365854,
9576234,8398.4375,-3296,2.02084610668302,2704,1.65787860208461,-15616,9.57449417535254,1,3.53658536585366,-58,-0.0609756097560976,-8,0.487804878048781,4,-0.0173913043478261,-60,-0.260869565217391,136,-0.663414634146342,
9576874,8417.96875,-3216,1.97179644389945,2656,1.62844880441447,-15712,9.63335377069283,-9,3.53658536585366,-58,0.548780487804878,-10,0.609756097560976,2,-0.00869565217391304,-53,-0.230434782608696,134,-0.653658536585366,
9577514,8437.5,-3136,1.92274678111588,2736,1.67749846719804,-15648,9.59411404046597,-1,3.41463414634146,-56,0.0609756097560976,-11,0.670731707317073,1,-0.00434782608695652,-52,-0.226086956521739,135,-0.658536585365854,
9578154,8457.03125,-3152,1.93255671367259,2608,1.59901900674433,-15760,9.66278356836297,14,3.35365853658537,-55,-0.853658536585366,-8,0.487804878048781,1,-0.00434782608695652,-51,-0.221739130434783,133,-0.648780487804878,
9578794,8476.5625,-3248,1.99141630901288,2624,1.60882893930104,-15696,9.62354383813611,18,3.41463414634146,-56,-1.09756097560976,-7,0.426829268292683,2,-0.00869565217391304,-54,-0.234782608695652,134,-0.653658536585366,
9579434,8496.09375,-3296,2.02084610668302,2640,1.61863887185776,-15728,9.64316370324954,14,3.17073170731707,-52,-0.853658536585366,-8,0.487804878048781,3,-0.0130434782608696,-53,-0.230434782608696,133,-0.648780487804878,
9580074,8515.625,-3296,2.02084610668302,2688,1.6480686695279,-15664,9.60392397302268,-3,3.53658536585366,-58,0.182926829268293,-9,0.548780487804878,0,0,-52,-0.226086956521739,134,-0.653658536585366,
9580714,8535.15625,-3232,1.98160637645616,2736,1.67749846719804,-15728,9.64316370324954,-9,3.53658536585366,-58,0.548780487804878,-12,0.731707317073171,0,0,-51,-0.221739130434783,135,-0.658536585365854,
9581354,8554.6875,-3184,1.95217657878602,2672,1.63825873697118,-15696,9.62354383813611,0,3.35365853658537,-55,0,-14,0.853658536585366,2,-0.00869565217391304,-55,-0.239130434782609,134,-0.653658536585366,
9581994,8574.21875,-3296,2.02084610668302,2640,1.61863887185776,-15648,9.59411404046597,8,3.59756097560976,-59,-0.487804878048781,-12,0.731707317073171,3,-0.0130434782608696,-56,-0.243478260869565,133,-0.648780487804878,
9582634,8593.75,-3296,2.02084610668302,2656,1.62844880441447,-15664,9.60392397302268,8,3.53658536585366,-58,-0.487804878048781,-13,0.792682926829268,5,-0.0217391304347826,-58,-0.252173913043478,134,-0.653658536585366,
9583274,8613.28125,-3248,1.99141630901288,2672,1.63825873697118,-15664,9.60392397302268,-6,3.47560975609756,-57,0.365853658536585,-14,0.853658536585366,1,-0.00434782608695652,-54,-0.234782608695652,133,-0.648780487804878,
9583914,8632.8125,-3168,1.94236664622931,2720,1.66768853464132,-15696,9.62354383813611,-9,3.53658536585366,-58,0.548780487804878,-10,0.609756097560976,4,-0.0173913043478261,-55,-0.239130434782609,134,-0.653658536585366,
9584554,8652.34375,-3232,1.98160637645616,2736,1.67749846719804,-15712,9.63335377069283,-6,3.29268292682927,-54,0.365853658536585,-3,0.182926829268293,2,-0.00869565217391304,-55,-0.239130434782609,134,-0.653658536585366,
9585194,8671.875,-3216,1.97179644389945,2768,1.69711833231147,-15664,9.60392397302268,-4,3.23170731707317,-53,0.24390243902439,-2,0.121951219512195,2,-0.00869565217391304,-55,-0.239130434782609,132,-0.64390243902439,
9585834,8691.40625,-3264,2.00122624156959,2720,1.66768853464132,-15632,9.58430410790926,-10,3.29268292682927,-54,0.609756097560976,-8,0.487804878048781,2,-0.00869565217391304,-51,-0.221739130434783,134,-0.653658536585366,
9586474,8710.9375,-3232,1.98160637645616,2752,1.68730839975475,-15680,9.6137339055794,-15,3.23170731707317,-53,0.914634146341463,-6,0.365853658536585,2,-0.00869565217391304,-54,-0.234782608695652,134,-0.653658536585366,
9587114,8730.46875,-3216,1.97179644389945,2656,1.62844880441447,-15648,9.59411404046597,-5,3.17073170731707,-52,0.304878048780488,-8,0.487804878048781,1,-0.00434782608695652,-56,-0.243478260869565,134,-0.653658536585366,
9587754,8750,-3248,1.99141630901288,2688,1.6480686695279,-15712,9.63335377069283,3,3.10975609756098,-51,-0.182926829268293,-10,0.609756097560976,5,-0.0217391304347826,-57,-0.247826086956522,134,-0.653658536585366,
9588394,8769.53125,-3280,2.0110361741263,2704,1.65787860208461,-15616,9.57449417535254,-5,3.10975609756098,-51,0.304878048780488,-7,0.426829268292683,2,-0.00869565217391304,-53,-0.230434782608696,133,-0.648780487804878,
9589034,8789.0625,-3296,2.02084610668302,2736,1.67749846719804,-15696,9.62354383813611,-12,2.92682926829268,-48,0.731707317073171,-8,0.487804878048781,3,-0.0130434782608696,-56,-0.243478260869565,135,-0.658536585365854,
9589674,8808.59375,-3232,1.98160637645616,2736,1.67749846719804,-15648,9.59411404046597,-14,2.80487804878049,-46,0.853658536585366,-8,0.487804878048781,1,-0.00434782608695652,-55,-0.239130434782609,135,-0.658536585365854,
9590314,8828.125,-3200,1.96198651134273,2688,1.6480686695279,-15632,9.58430410790926,-6,2.80487804878049,-46,0.365853658536585,-6,0.365853658536585,2,-0.00869565217391304,-59,-0.256521739130435,133,-0.648780487804878,
9590954,8847.65625,-3248,1.99141630901288,2688,1.6480686695279,-15632,9.58430410790926,-3,2.68292682926829,-44,0.182926829268293,-9,0.548780487804878,3,-0.0130434782608696,-56,-0.243478260869565,133,-0.648780487804878,
9591594,8867.1875,-3200,1.96198651134273,2720,1.66768853464132,-15616,9.57449417535254,3,2.68292682926829,-44,-0.182926829268293,-10,0.609756097560976,1,-0.00434782608695652,-52,-0.226086956521739,133,-0.648780487804878,
9592234,8886.71875,-3184,1.95217657878602,2720,1.66768853464132,-15664,9.60392397302268,8,2.4390243902439,-40,-0.487804878048781,-7,0.426829268292683,2,-0.00869565217391304,-53,-0.230434782608696,132,-0.64390243902439,
9592874,8906.25,-3216,1.97179644389945,2720,1.66768853464132,-15648,9.59411404046597,-2,2.25609756097561,-37,0.121951219512195,-5,0.304878048780488,4,-0.0173913043478261,-58,-0.252173913043478,134,-0.653658536585366,
9593514,8925.78125,-3328,2.04046597179644,2624,1.60882893930104,-15712,9.63335377069283,2,2.4390243902439,-40,-0.121951219512195,-3,0.182926829268293,2,-0.00869565217391304,-58,-0.252173913043478,134,-0.653658536585366,
9594154,8945.3125,-3248,1.99141630901288,2704,1.65787860208461,-15760,9.66278356836297,-2,2.37804878048781,-39,0.121951219512195,-3,0.182926829268293,3,-0.0130434782608696,-54,-0.234782608695652,133,-0.648780487804878,
9594794,8964.84375,-3200,1.96198651134273,2656,1.62844880441447,-15680,9.6137339055794,-6,2.5,-41,0.365853658536585,-1,0.0609756097560976,2,-0.00869565217391304,-55,-0.239130434782609,136,-0.663414634146342,
9595434,8984.375,-3216,1.97179644389945,2704,1.65787860208461,-15792,9.6824034334764,-3,2.6219512195122,-43,0.182926829268293,-1,0.0609756097560976,3,-0.0130434782608696,-57,-0.247826086956522,136,-0.663414634146342,
9596074,9003.90625,-3248,1.99141630901288,2624,1.60882893930104,-15856,9.72164316370325,-3,2.37804878048781,-39,0.182926829268293,0,0,0,0,-56,-0.243478260869565,135,-0.658536585365854,
9596714,9023.4375,-3136,1.92274678111588,2624,1.60882893930104,-15728,9.64316370324954,-9,2.6219512195122,-43,0.548780487804878,-1,0.0609756097560976,3,-0.0130434782608696,-55,-0.239130434782609,134,-0.653658536585366,
9597354,9042.96875,-3120,1.91293684855917,2560,1.56958920907419,-15760,9.66278356836297,-11,2.5,-41,0.670731707317073,-1,0.0609756097560976,2,-0.00869565217391304,-54,-0.234782608695652,133,-0.648780487804878,
9597994,9062.5,-3168,1.94236664622931,2656,1.62844880441447,-15744,9.65297363580625,-5,2.6219512195122,-43,0.304878048780488,-8,0.487804878048781,3,-0.0130434782608696,-53,-0.230434782608696,134,-0.653658536585366,
9598634,9082.03125,-3136,1.92274678111588,2640,1.61863887185776,-15728,9.64316370324954,-9,2.74390243902439,-45,0.548780487804878,-7,0.426829268292683,1,-0.00434782608695652,-56,-0.243478260869565,135,-0.658536585365854,
9599274,9101.5625,-3120,1.91293684855917,2720,1.66768853464132,-15744,9.65297363580625,-6,2.74390243902439,-45,0.365853658536585,-9,0.548780487804878,2,-0.00869565217391304,-54,-0.234782608695652,134,-0.653658536585366,
9599914,9121.09375,-3184,1.95217657878602,2656,1.62844880441447,-15728,9.64316370324954,-5,2.68292682926829,-44,0.304878048780488,-9,0.548780487804878,4,-0.0173913043478261,-53,-0.230434782608696,133,-0.648780487804878,
9600554,9140.625,-3152,1.93255671367259,2640,1.61863887185776,-15696,9.62354383813611,-8,2.5609756097561,-42,0.487804878048781,-7,0.426829268292683,4,-0.0173913043478261,-56,-0.243478260869565,133,-0.648780487804878,
9601194,9160.15625,-3216,1.97179644389945,2624,1.60882893930104,-15776,9.67259350091968,1,2.5,-41,-0.0609756097560976,-7,0.426829268292683,2,-0.00869565217391304,-55,-0.239130434782609,134,-0.653658536585366,
9601834,9179.6875,-3200,1.96198651134273,2672,1.63825873697118,-15744,9.65297363580625,0,2.74390243902439,-45,0,-10,0.609756097560976,1,-0.00434782608695652,-56,-0.243478260869565,133,-0.648780487804878,
9602474,9199.21875,-3200,1.96198651134273,2624,1.60882893930104,-15712,9.63335377069283,-7,2.86585365853659,-47,0.426829268292683,-10,0.609756097560976,4,-0.0173913043478261,-56,-0.243478260869565,136,-0.663414634146342,
9603114,9218.75,-3216,1.97179644389945,2720,1.66768853464132,-15712,9.63335377069283,-6,2.80487804878049,-46,0.365853658536585,-8,0.487804878048781,1,-0.00434782608695652,-52,-0.226086956521739,134,-0.653658536585366,
9603754,9238.28125,-3168,1.94236664622931,2752,1.68730839975475,-15712,9.63335377069283,-1,2.74390243902439,-45,0.0609756097560976,-8,0.487804878048781,2,-0.00869565217391304,-55,-0.239130434782609,134,-0.653658536585366,
9604394,9257.8125,-3216,1.97179644389945,2624,1.60882893930104,-15760,9.66278356836297,7,2.74390243902439,-45,-0.426829268292683,-9,0.548780487804878,2,-0.00869565217391304,-58,-0.252173913043478,135,-0.658536585365854,
9605034,9277.34375,-3248,1.99141630901288,2560,1.56958920907419,-15760,9.66278356836297,14,2.80487804878049,-46,-0.853658536585366,-8,0.487804878048781,1,-0.00434782608695652,-53,-0.230434782608696,134,-0.653658536585366,
9605674,9296.875,-3184,1.95217657878602,2560,1.56958920907419,-15792,9.6824034334764,1,3.04878048780488,-50,-0.0609756097560976,-8,0.487804878048781,2,-0.00869565217391304,-60,-0.260869565217391,135,-0.658536585365854,
9606314,9316.40625,-3184,1.95217657878602,2592,1.58920907418761,-15696,9.62354383813611,-9,3.10975609756098,-51,0.548780487804878,-11,0.670731707317073,3,-0.0130434782608696,-54,-0.234782608695652,135,-0.658536585365854,
9606954,9335.9375,-3184,1.95217657878602,2592,1.58920907418761,-15792,9.6824034334764,-8,2.92682926829268,-48,0.487804878048781,-11,0.670731707317073,1,-0.00434782608695652,-56,-0.243478260869565,134,-0.653658536585366,
9607594,9355.46875,-3232,1.98160637645616,2544,1.55977927651747,-15744,9.65297363580625,-4,3.10975609756098,-51,0.24390243902439,-14,0.853658536585366,4,-0.0173913043478261,-55,-0.239130434782609,134,-0.653658536585366,
9608234,9375,-3216,1.97179644389945,2560,1.56958920907419,-15680,9.6137339055794,6,3.04878048780488,-50,-0.365853658536585,-14,0.853658536585366,1,-0.00434782608695652,-51,-0.221739130434783,134,-0.653658536585366,
9608874,9394.53125,-3232,1.98160637645616,2576,1.5793991416309,-15680,9.6137339055794,9,2.98780487804878,-49,-0.548780487804878,-13,0.792682926829268,2,-0.00869565217391304,-56,-0.243478260869565,137,-0.668292682926829,
9609514,9414.0625,-3248,1.99141630901288,2560,1.56958920907419,-15712,9.63335377069283,2,2.86585365853659,-47,-0.121951219512195,-16,0.975609756097561,0,0,-57,-0.247826086956522,135,-0.658536585365854,
9610154,9433.59375,-3296,2.02084610668302,2576,1.5793991416309,-15728,9.64316370324954,5,3.04878048780488,-50,-0.304878048780488,-9,0.548780487804878,4,-0.0173913043478261,-58,-0.252173913043478,134,-0.653658536585366,
9610794,9453.125,-3360,2.06008583690987,2608,1.59901900674433,-15664,9.60392397302268,-13,2.74390243902439,-45,0.792682926829268,-6,0.365853658536585,4,-0.0173913043478261,-58,-0.252173913043478,134,-0.653658536585366,
9611434,9472.65625,-3312,2.03065603923973,2592,1.58920907418761,-15680,9.6137339055794,-15,2.5609756097561,-42,0.914634146341463,0,0,2,-0.00869565217391304,-55,-0.239130434782609,136,-0.663414634146342,
9612074,9492.1875,-3248,1.99141630901288,2560,1.56958920907419,-15664,9.60392397302268,-2,2.25609756097561,-37,0.121951219512195,2,-0.121951219512195,1,-0.00434782608695652,-54,-0.234782608695652,134,-0.653658536585366,
9612714,9511.71875,-3232,1.98160637645616,2592,1.58920907418761,-15664,9.60392397302268,-9,2.37804878048781,-39,0.548780487804878,-1,0.0609756097560976,2,-0.00869565217391304,-53,-0.230434782608696,134,-0.653658536585366,
9613354,9531.25,-3200,1.96198651134273,2480,1.52053954629062,-15648,9.59411404046597,-9,2.37804878048781,-39,0.548780487804878,-5,0.304878048780488,1,-0.00434782608695652,-57,-0.247826086956522,135,-0.658536585365854,
9613994,9550.78125,-3152,1.93255671367259,2560,1.56958920907419,-15696,9.62354383813611,0,2.19512195121951,-36,0,-4,0.24390243902439,4,-0.0173913043478261,-56,-0.243478260869565,135,-0.658536585365854,
8716289,494154.998779297,-513,0.314530962599632,-9473,-5.80809319435929,-1025,0.62844880441447,-52,-2.5609756097561,42,3.17073170731707,-17774,1083.78048780488,-28429,123.604347826087,-28478,-123.817391304348,-4087,19.9365853658537,
8847360,498154.968261719,512,-0.313917841814838,-9473,-5.80809319435929,-257,0.157572041692213,-58,-10.3658536585366,170,3.53658536585366,-17262,1052.56097560976,28915,-125.717391304348,-20286,-88.2,-4087,19.9365853658537,
8716290,1006155.02929688,512,-0.313917841814838,-9985,-6.12201103617413,-257,0.157572041692213,-54,-2.5609756097561,42,3.29268292682927,-16494,1005.73170731707,12531,-54.4826086956522,20674,89.8869565217391,-16375,79.8780487804878,
8716290,1006155.02929688,-1,0.000613120784794605,-11009,-6.7498467198038,-1,0.000613120784794605,-55,-10.3658536585366,170,3.35365853658537,-15982,974.512195121951,28915,-125.717391304348,-28478,-123.817391304348,-20471,99.8585365853659,
8716290,1006155.02929688,-257,0.157572041692213,-11521,-7.06376456161864,256,-0.156958920907419,-53,-2.5609756097561,42,3.23170731707317,-15214,927.682926829268,24819,-107.908695652174,-32574,-141.626086956522,10,-0.0487804878048781,
8781824,1008154.96826172,1280,-0.784794604537094,-11265,-6.90680564071122,1024,-0.627835683629675,-53,-10.3658536585366,170,3.23170731707317,-14702,896.463414634146,243,-1.05652173913043,28866,125.504347826087,10,-0.0487804878048781,
8847363,1010155.05981445,512,-0.313917841814838,-12289,-7.5346413243409,768,-0.470876762722256,-59,-2.5609756097561,42,3.59756097560976,-13934,849.634146341464,4339,-18.8652173913043,16578,72.0782608695652,-20471,99.8585365853659,
8781824,1520154.96826172,-1793,1.09932556713673,-12545,-7.69160024524831,512,-0.313917841814838,-54,-10.3658536585366,170,3.29268292682927,-13422,818.414634146342,12531,-54.4826086956522,20674,89.8869565217391,-8183,39.9170731707317,
13238150,1656151.24511719,-12801,7.84855916615573,1024,0.627835683629675,-3216,1.97179644389945,170,740.365853658537,-12142,-10.3658536585366,-2,0.121951219512195,-8183,35.5782608695652,1,0.00434782608695652,24770,-120.829268292683,
13369222,1660151.24511719,-13313,8.16247700797057,1792,1.09871244635193,-3120,1.91293684855917,42,693.536585365854,-11374,-2.5609756097561,0,0,4106,-17.8521739130435,4,0.0173913043478261,4290,-20.9268292682927,
13107079,2164151.27563477,-13825,8.47639484978541,1024,0.627835683629675,-3168,1.94236664622931,170,662.317073170732,-10862,-10.3658536585366,0,0,10,-0.0434782608695652,1,0.00434782608695652,20674,-100.848780487805,
13434759,2174151.27563477,-14081,8.63335377069283,1792,1.09871244635193,-3184,1.95217657878602,42,615.487804878049,-10094,-2.5609756097561,-2,0.121951219512195,-4087,17.7695652173913,1,0.00434782608695652,-24382,118.936585365854,
13500294,2176151.24511719,-14081,8.63335377069283,1024,0.627835683629675,-3136,1.92274678111588,170,584.268292682927,-9582,-10.3658536585366,-7,0.426829268292683,-4087,17.7695652173913,1,0.00434782608695652,-12094,58.9951219512195,
13565830,2178151.24511719,-13569,8.31943592887799,512,0.313917841814838,-3104,1.90312691600245,42,537.439024390244,-8814,-2.5609756097561,-2,0.121951219512195,12298,-53.4695652173913,2,0.00869565217391304,28866,-140.809756097561,
12976008,2672151.30615234,-12545,7.69160024524831,768,0.470876762722256,-3120,1.91293684855917,170,506.219512195122,-8302,-10.3658536585366,4,-0.24390243902439,10,-0.0434782608695652,2,0.00869565217391304,28866,-140.809756097561,
13500294,2688151.24511719,-13057,8.00551808706315,768,0.470876762722256,-3120,1.91293684855917,42,459.390243902439,-7534,-2.5609756097561,7,-0.426829268292683,-8183,35.5782608695652,2,0.00869565217391304,-24382,118.936585365854,
13238150,3192151.24511719,-11777,7.22072348252606,256,0.156958920907419,-3120,1.91293684855917,170,428.170731707317,-7022,-10.3658536585366,-1,0.0609756097560976,10,-0.0434782608695652,1,0.00434782608695652,-7998,39.0146341463415,
13434757,3198151.21459961,-12033,7.37768240343348,-1,-0.000613120784794605,-3168,1.94236664622931,42,381.341463414634,-6254,-2.5609756097561,-2,0.121951219512195,4106,-17.8521739130435,1,0.00434782608695652,-24382,118.936585365854,
13434757,3198151.21459961,-13057,8.00551808706315,-769,-0.471489883507051,-3168,1.94236664622931,170,350.121951219512,-5742,-10.3658536585366,5,-0.304878048780488,10,-0.0434782608695652,2,0.00869565217391304,-28478,138.917073170732,
13303685,3706151.21459961,-11777,7.22072348252606,-513,-0.314530962599632,-3136,1.92274678111588,42,303.292682926829,-4974,-2.5609756097561,4,-0.24390243902439,4106,-17.8521739130435,5,0.0217391304347826,-3902,19.0341463414634,
12910471,4206151.27563477,-13825,8.47639484978541,-769,-0.471489883507051,-3120,1.91293684855917,170,272.073170731707,-4462,-10.3658536585366,7,-0.426829268292683,4106,-17.8521739130435,2,0.00869565217391304,-24382,118.936585365854,
13369221,4220151.21459961,-13313,8.16247700797057,-769,-0.471489883507051,-3168,1.94236664622931,42,225.243902439024,-3694,-2.5609756097561,4,-0.24390243902439,10,-0.0434782608695652,1,0.00434782608695652,4290,-20.9268292682927,
13303685,4730151.21459961,-12289,7.5346413243409,-1025,-0.62844880441447,-3152,1.93255671367259,170,194.024390243902,-3182,-10.3658536585366,-7,0.426829268292683,16394,-71.2782608695652,4,0.0173913043478261,-28478,138.917073170732,
13172613,5238151.21459961,-12545,7.69160024524831,-1025,-0.62844880441447,-3248,1.99141630901288,42,147.19512195122,-2414,-2.5609756097561,-10,0.609756097560976,16394,-71.2782608695652,-1,-0.00434782608695652,-28478,138.917073170732,
13238150,5240151.24511719,-11777,7.22072348252606,-769,-0.471489883507051,-3168,1.94236664622931,170,115.975609756098,-1902,-10.3658536585366,7,-0.426829268292683,20490,-89.0869565217391,2,0.00869565217391304,-24382,118.936585365854,
13500295,5248151.27563477,-12801,7.84855916615573,256,0.156958920907419,-3120,1.91293684855917,42,69.1463414634146,-1134,-2.5609756097561,17,-1.03658536585366,8202,-35.6608695652174,0,0,-16190,78.9756097560976,
13369221,5756151.21459961,-12033,7.37768240343348,-1,-0.000613120784794605,-3136,1.92274678111588,170,37.9268292682927,-622,-10.3658536585366,15,-0.914634146341463,10,-0.0434782608695652,0,0,24770,-120.829268292683,
13303686,6266151.24511719,-12801,7.84855916615573,-1,-0.000613120784794605,-3200,1.96198651134273,42,-8.96341463414634,147,-2.5609756097561,-1,0.0609756097560976,8202,-35.6608695652174,3,0.0130434782608696,4290,-20.9268292682927,
13172615,6774151.27563477,-11009,6.7498467198038,2560,1.56958920907419,-3216,1.97179644389945,170,-40.1829268292683,659,-10.3658536585366,-9,0.548780487804878,-20470,89,2,0.00869565217391304,-20286,98.9560975609756,
13369220,6780151.18408203,-11009,6.7498467198038,2560,1.56958920907419,-3216,1.97179644389945,42,-87.0121951219512,1427,-2.5609756097561,-12,0.731707317073171,24586,-106.895652173913,4,0.0173913043478261,-24382,118.936585365854,
13172614,7286151.24511719,-10241,6.27896995708154,5120,3.13917841814837,-3216,1.97179644389945,170,-118.231707317073,1939,-10.3658536585366,-2,0.121951219512195,28682,-124.704347826087,4,0.0173913043478261,-7998,39.0146341463415,
13041542,7794151.24511719,-9473,5.80809319435929,3584,2.19742489270386,-3168,1.94236664622931,42,-165.060975609756,2707,-2.5609756097561,10,-0.609756097560976,8202,-35.6608695652174,1,0.00434782608695652,-7998,39.0146341463415,
13238148,7800151.18408203,-11009,6.7498467198038,0,0,-3168,1.94236664622931,170,-196.280487804878,3219,-10.3658536585366,-4,0.24390243902439,12298,-53.4695652173913,3,0.0130434782608696,-20286,98.9560975609756,
13238149,7800151.21459961,-11521,7.06376456161864,-513,-0.314530962599632,-3120,1.91293684855917,42,-243.109756097561,3987,-2.5609756097561,0,0,8202,-35.6608695652174,0,0,195,-0.951219512195122,
12976008,8304151.30615234,-11265,6.90680564071122,-1281,-0.785407725321888,-3120,1.91293684855917,170,-274.329268292683,4499,-10.3658536585366,8,-0.487804878048781,12298,-53.4695652173913,0,0,-12094,58.9951219512195,
13172616,8310151.30615234,-10497,6.43592887798896,-2561,-1.57020232985898,-3136,1.92274678111588,42,-321.158536585366,5267,-2.5609756097561,3,-0.182926829268293,20490,-89.0869565217391,2,0.00869565217391304,-7998,39.0146341463415,
13500294,8320151.24511719,-9217,5.65113427345187,-2305,-1.41324340895156,-3072,1.88350705088903,170,-352.378048780488,5779,-10.3658536585366,8,-0.487804878048781,8202,-35.6608695652174,2,0.00869565217391304,-12094,58.9951219512195,
13369220,8828151.18408203,-8449,5.18025751072961,-1793,-1.09932556713673,-3168,1.94236664622931,42,-399.207317073171,6547,-2.5609756097561,9,-0.548780487804878,12298,-53.4695652173913,1,0.00434782608695652,-16190,78.9756097560976,
13434756,8830151.18408203,-8705,5.33721643163703,-2305,-1.41324340895156,-3168,1.94236664622931,170,-430.426829268293,7059,-10.3658536585366,5,-0.304878048780488,8202,-35.6608695652174,1,0.00434782608695652,-7998,39.0146341463415,
13369220,9340151.18408203,-8961,5.49417535254445,-3329,-2.04107909258124,-3232,1.98160637645616,42,-477.256097560976,7827,-2.5609756097561,-1,0.0609756097560976,12298,-53.4695652173913,5,0.0217391304347826,-20286,98.9560975609756,
12910470,9838151.24511719,-9985,6.12201103617413,-2817,-1.7271612507664,-3184,1.95217657878602,170,-508.475609756098,8339,-10.3658536585366,-4,0.24390243902439,-4087,17.7695652173913,3,0.0130434782608696,-20286,98.9560975609756,
12976007,9840151.27563477,-8961,5.49417535254445,-3073,-1.88412017167382,-3168,1.94236664622931,42,-555.304878048781,9107,-2.5609756097561,-8,0.487804878048781,4106,-17.8521739130435,0,0,-24382,118.936585365854,
13369222,9852151.24511719,-9217,5.65113427345187,-4097,-2.51195585530349,-3168,1.94236664622931,170,-586.524390243903,9619,-10.3658536585366,-12,0.731707317073171,10,-0.0434782608695652,1,0.00434782608695652,28866,-140.809756097561,
13369221,10364151.2145996,-7937,4.86633966891478,-4353,-2.66891477621091,-3152,1.93255671367259,42,-633.353658536585,10387,-2.5609756097561,-2,0.121951219512195,10,-0.0434782608695652,4,0.0173913043478261,16578,-80.8682926829268,
13238149,10872151.2145996,-8705,5.33721643163703,-4097,-2.51195585530349,-3136,1.92274678111588,170,-664.573170731707,10899,-10.3658536585366,5,-0.304878048780488,-8183,35.5782608695652,0,0,20674,-100.848780487805,
13369222,10876151.2451172,-8961,5.49417535254445,-4609,-2.82587369711833,-3152,1.93255671367259,42,-711.40243902439,11667,-2.5609756097561,6,-0.365853658536585,-4087,17.7695652173913,2,0.00869565217391304,-24382,118.936585365854,
13434758,10878151.2451172,-8961,5.49417535254445,-4865,-2.98283261802575,-3248,1.99141630901288,170,-742.621951219512,12179,-10.3658536585366,-3,0.182926829268293,-12279,53.3869565217391,2,0.00869565217391304,-28478,138.917073170732,
13369221,11388151.2145996,-8449,5.18025751072961,-4353,-2.66891477621091,-3264,2.00122624156959,42,-789.451219512195,12947,-2.5609756097561,-5,0.304878048780488,-8183,35.5782608695652,4,0.0173913043478261,195,-0.951219512195122,
12910473,11886151.3366699,-6913,4.2385039852851,-3841,-2.35499693439608,-3264,2.00122624156959,170,-820.670731707317,13459,-10.3658536585366,-9,0.548780487804878,-4087,17.7695652173913,1,0.00434782608695652,-7998,39.0146341463415,
13565830,11906151.2451172,-6913,4.2385039852851,-3841,-2.35499693439608,-3232,1.98160637645616,42,-867.5,14227,-2.5609756097561,-4,0.24390243902439,10,-0.0434782608695652,4,0.0173913043478261,24770,-120.829268292683,
13238151,12408151.2756348,-6401,3.92458614347026,-3073,-1.88412017167382,-3264,2.00122624156959,170,-898.719512195122,14739,-10.3658536585366,3,-0.182926829268293,-16375,71.195652173913,4,0.0173913043478261,-32574,158.89756097561,
13172616,12918151.3061523,-5633,3.45370938074801,-2305,-1.41324340895156,-3296,2.02084610668302,42,-945.548780487805,15507,-2.5609756097561,6,-0.365853658536585,-16375,71.195652173913,1,0.00434782608695652,-16190,78.9756097560976,
13434758,12926151.2451172,-5633,3.45370938074801,-3329,-2.04107909258124,-3232,1.98160637645616,170,-976.768292682927,16019,-10.3658536585366,1,-0.0609756097560976,-8183,35.5782608695652,0,0,-20286,98.9560975609756,
13107078,13428151.2451172,-6401,3.92458614347026,-2817,-1.7271612507664,-3264,2.00122624156959,42,-1023.59756097561,16787,-2.5609756097561,5,-0.304878048780488,10,-0.0434782608695652,3,0.0130434782608696,-16190,78.9756097560976,
13303685,13434151.2145996,-6401,3.92458614347026,-2561,-1.57020232985898,-3232,1.98160637645616,170,-1054.81707317073,17299,-10.3658536585366,-1,0.0609756097560976,-20471,89.004347826087,1,0.00434782608695652,-28478,138.917073170732,
13238150,13944151.2451172,-7681,4.70938074800736,-2817,-1.7271612507664,-3264,2.00122624156959,42,-1101.64634146341,18067,-2.5609756097561,2,-0.121951219512195,-24567,106.813043478261,-1,-0.00434782608695652,8386,-40.9073170731707,
13238151,13944151.2756348,-8449,5.18025751072961,-3585,-2.19803801348866,-3216,1.97179644389945,170,-1132.86585365854,18579,-10.3658536585366,-14,0.853658536585366,28681,-124.7,2,0.00869565217391304,12482,-60.8878048780488,
