Shimmer,Shimmer,Shimmer,Shimmer,Shimmer,Shimmer,Shimmer,Shimmer,Shimmer,Shimmer,Shimmer,Shimmer,Shimmer,Shimmer,Shimmer,Shimmer,Shimmer,Shimmer,Shimmer,Shimmer,
Timestamp,Timestamp,Wide Range Accelerometer X,Wide Range Accelerometer X,Wide Range Accelerometer Y,Wide Range Accelerometer Y,Wide Range Accelerometer Z,Wide Range Accelerometer Z,Gyroscope X,Gyroscope X,Gyroscope Y,Gyroscope Y,Gyroscope Z,Gyroscope Z,Magnetometer X,Magnetometer X,Magnetometer Y,Magnetometer Y,Magnetometer Z,Magnetometer Z,
RAW,CAL,RAW,CAL,RAW,CAL,RAW,CAL,RAW,CAL,RAW,CAL,RAW,CAL,RAW,CAL,RAW,CAL,RAW,CAL,
no units,mSecs,no units,m/(sec^2),no units,m/(sec^2),no units,m/(sec^2),no units,deg/sec,no units,deg/sec,no units,deg/sec,no units,local,no units,local,no units,local,
11002154,0,2752,-1.68730839975475,-15424,-9.45677498467198,-4208,2.5800122624157,-3,2.19512195121951,-36,0.182926829268293,-2,0.121951219512195,-72,0.31304347826087,41,0.178260869565217,92,-0.448780487804878,
11002794,19.53125,2688,-1.6480686695279,-15440,-9.46658491722869,-4320,2.64868179031269,-7,2.25609756097561,-37,0.426829268292683,3,-0.182926829268293,-72,0.31304347826087,40,0.173913043478261,93,-0.453658536585366,
11003434,39.0625,2720,-1.66768853464132,-15472,-9.48620478234212,-4288,2.62906192519926,-11,2.19512195121951,-36,0.670731707317073,0,0,-76,0.330434782608696,44,0.191304347826087,93,-0.453658536585366,
11004074,58.59375,2736,-1.67749846719804,-15488,-9.49601471489883,-4272,2.61925199264255,-12,2.19512195121951,-36,0.731707317073171,-5,0.304878048780488,-74,0.321739130434783,44,0.191304347826087,94,-0.458536585365854,
11004714,78.125,2704,-1.65787860208461,-15488,-9.49601471489883,-4256,2.60944206008584,-8,2.4390243902439,-40,0.487804878048781,-6,0.365853658536585,-73,0.317391304347826,41,0.178260869565217,93,-0.453658536585366,
11005354,97.65625,2720,-1.66768853464132,-15472,-9.48620478234212,-4288,2.62906192519926,-4,2.4390243902439,-40,0.24390243902439,-6,0.365853658536585,-74,0.321739130434783,48,0.208695652173913,91,-0.44390243902439,
11005994,117.1875,2656,-1.62844880441447,-15456,-9.47639484978541,-4256,2.60944206008584,-4,2.5,-41,0.24390243902439,-5,0.304878048780488,-74,0.321739130434783,43,0.18695652173913,92,-0.448780487804878,
11006634,136.71875,2640,-1.61863887185776,-15472,-9.48620478234212,-4240,2.59963212752912,-9,2.68292682926829,-44,0.548780487804878,-6,0.365853658536585,-75,0.326086956521739,46,0.2,92,-0.448780487804878,
11007274,156.25,2704,-1.65787860208461,-15440,-9.46658491722869,-4256,2.60944206008584,-13,2.86585365853659,-47,0.792682926829268,-7,0.426829268292683,-72,0.31304347826087,41,0.178260869565217,93,-0.453658536585366,
11007914,175.78125,2704,-1.65787860208461,-15472,-9.48620478234212,-4208,2.5800122624157,-9,2.74390243902439,-45,0.548780487804878,-6,0.365853658536585,-74,0.321739130434783,42,0.182608695652174,93,-0.453658536585366,
11008554,195.3125,2672,-1.63825873697118,-15520,-9.51563458001226,-4160,2.55058246474555,-7,2.86585365853659,-47,0.426829268292683,-5,0.304878048780488,-73,0.317391304347826,44,0.191304347826087,91,-0.44390243902439,
11009194,214.84375,2736,-1.67749846719804,-15520,-9.51563458001226,-4112,2.52115266707541,-8,2.92682926829268,-48,0.487804878048781,-7,0.426829268292683,-73,0.317391304347826,45,0.195652173913043,93,-0.453658536585366,
11009834,234.375,2720,-1.66768853464132,-15456,-9.47639484978541,-4096,2.5113427345187,-8,2.92682926829268,-48,0.487804878048781,-7,0.426829268292683,-76,0.330434782608696,42,0.182608695652174,94,-0.458536585365854,
11010474,253.90625,2704,-1.65787860208461,-15456,-9.47639484978541,-4192,2.57020232985898,-2,2.80487804878049,-46,0.121951219512195,-5,0.304878048780488,-76,0.330434782608696,43,0.18695652173913,92,-0.448780487804878,
11011114,273.4375,2736,-1.67749846719804,-15408,-9.44696505211527,-4176,2.56039239730227,-2,2.86585365853659,-47,0.121951219512195,-4,0.24390243902439,-73,0.317391304347826,43,0.18695652173913,93,-0.453658536585366,
11011754,292.96875,2736,-1.67749846719804,-15424,-9.45677498467198,-4144,2.54077253218884,-2,3.04878048780488,-50,0.121951219512195,-3,0.182926829268293,-73,0.317391304347826,42,0.182608695652174,92,-0.448780487804878,
11012394,312.5,2688,-1.6480686695279,-15424,-9.45677498467198,-4144,2.54077253218884,-3,2.98780487804878,-49,0.182926829268293,-4,0.24390243902439,-75,0.326086956521739,41,0.178260869565217,93,-0.453658536585366,
11013034,332.03125,2688,-1.6480686695279,-15440,-9.46658491722869,-4160,2.55058246474555,-5,2.80487804878049,-46,0.304878048780488,-3,0.182926829268293,-75,0.326086956521739,44,0.191304347826087,93,-0.453658536585366,
11013674,351.5625,2720,-1.66768853464132,-15376,-9.42734518700184,-4096,2.5113427345187,-2,3.04878048780488,-50,0.121951219512195,-7,0.426829268292683,-74,0.321739130434783,41,0.178260869565217,92,-0.448780487804878,
11014314,371.09375,2704,-1.65787860208461,-15344,-9.40772532188841,-3968,2.43286327406499,-3,2.86585365853659,-47,0.182926829268293,-11,0.670731707317073,-74,0.321739130434783,41,0.178260869565217,92,-0.448780487804878,
11014954,390.625,2656,-1.62844880441447,-15440,-9.46658491722869,-4080,2.50153280196199,-2,2.86585365853659,-47,0.121951219512195,-6,0.365853658536585,-75,0.326086956521739,45,0.195652173913043,93,-0.453658536585366,
11015594,410.15625,2736,-1.67749846719804,-15504,-9.50582464745555,-4112,2.52115266707541,-3,2.86585365853659,-47,0.182926829268293,-4,0.24390243902439,-75,0.326086956521739,44,0.191304347826087,94,-0.458536585365854,
11016234,429.6875,2688,-1.6480686695279,-15424,-9.45677498467198,-4080,2.50153280196199,-4,2.68292682926829,-44,0.24390243902439,-1,0.0609756097560976,-73,0.317391304347826,41,0.178260869565217,94,-0.458536585365854,
11016874,449.21875,2736,-1.67749846719804,-15488,-9.49601471489883,-4144,2.54077253218884,8,2.5609756097561,-42,-0.487804878048781,2,-0.121951219512195,-73,0.317391304347826,45,0.195652173913043,93,-0.453658536585366,
11017514,468.75,2752,-1.68730839975475,-15408,-9.44696505211527,-4160,2.55058246474555,7,2.6219512195122,-43,-0.426829268292683,-1,0.0609756097560976,-75,0.326086956521739,43,0.18695652173913,93,-0.453658536585366,
11018154,488.28125,2656,-1.62844880441447,-15408,-9.44696505211527,-4176,2.56039239730227,11,2.80487804878049,-46,-0.670731707317073,-2,0.121951219512195,-74,0.321739130434783,44,0.191304347826087,92,-0.448780487804878,
11018794,507.8125,2672,-1.63825873697118,-15440,-9.46658491722869,-4192,2.57020232985898,2,2.86585365853659,-47,-0.121951219512195,-7,0.426829268292683,-76,0.330434782608696,40,0.173913043478261,93,-0.453658536585366,
11019434,527.34375,2688,-1.6480686695279,-15408,-9.44696505211527,-4160,2.55058246474555,-8,2.92682926829268,-48,0.487804878048781,-7,0.426829268292683,-73,0.317391304347826,41,0.178260869565217,93,-0.453658536585366,
11020074,546.875,2704,-1.65787860208461,-15520,-9.51563458001226,-4160,2.55058246474555,-6,2.92682926829268,-48,0.365853658536585,-10,0.609756097560976,-74,0.321739130434783,45,0.195652173913043,92,-0.448780487804878,
11020714,566.40625,2736,-1.67749846719804,-15520,-9.51563458001226,-4208,2.5800122624157,-3,3.04878048780488,-50,0.182926829268293,-14,0.853658536585366,-75,0.326086956521739,46,0.2,92,-0.448780487804878,
11021354,585.9375,2624,-1.60882893930104,-15424,-9.45677498467198,-4112,2.52115266707541,2,3.04878048780488,-50,-0.121951219512195,-12,0.731707317073171,-76,0.330434782608696,41,0.178260869565217,93,-0.453658536585366,
11021994,605.46875,2640,-1.61863887185776,-15440,-9.46658491722869,-4144,2.54077253218884,3,3.17073170731707,-52,-0.182926829268293,-10,0.609756097560976,-75,0.326086956521739,47,0.204347826086957,91,-0.44390243902439,
11022634,625,2720,-1.66768853464132,-15472,-9.48620478234212,-4144,2.54077253218884,1,3.04878048780488,-50,-0.0609756097560976,-5,0.304878048780488,-74,0.321739130434783,43,0.18695652173913,92,-0.448780487804878,
11023274,644.53125,2704,-1.65787860208461,-15504,-9.50582464745555,-4144,2.54077253218884,3,3.17073170731707,-52,-0.182926829268293,-4,0.24390243902439,-73,0.317391304347826,42,0.182608695652174,92,-0.448780487804878,
11023914,664.0625,2640,-1.61863887185776,-15568,-9.5450643776824,-4112,2.52115266707541,9,2.98780487804878,-49,-0.548780487804878,-2,0.121951219512195,-74,0.321739130434783,42,0.182608695652174,92,-0.448780487804878,
11024554,683.59375,2656,-1.62844880441447,-15504,-9.50582464745555,-4128,2.53096259963213,11,2.98780487804878,-49,-0.670731707317073,0,0,-74,0.321739130434783,44,0.191304347826087,94,-0.458536585365854,
11025194,703.125,2624,-1.60882893930104,-15520,-9.51563458001226,-4080,2.50153280196199,8,3.29268292682927,-54,-0.487804878048781,-3,0.182926829268293,-75,0.326086956521739,43,0.18695652173913,92,-0.448780487804878,
11025834,722.65625,2672,-1.63825873697118,-15408,-9.44696505211527,-4160,2.55058246474555,0,3.23170731707317,-53,0,-5,0.304878048780488,-73,0.317391304347826,40,0.173913043478261,92,-0.448780487804878,
11026474,742.1875,2736,-1.67749846719804,-15408,-9.44696505211527,-4032,2.47210300429185,-2,3.17073170731707,-52,0.121951219512195,-11,0.670731707317073,-75,0.326086956521739,46,0.2,93,-0.453658536585366,
11027114,761.71875,2768,-1.69711833231147,-15424,-9.45677498467198,-4048,2.48191293684856,-1,3.23170731707317,-53,0.0609756097560976,-9,0.548780487804878,-75,0.326086956521739,45,0.195652173913043,93,-0.453658536585366,
11027754,781.25,2704,-1.65787860208461,-15440,-9.46658491722869,-4064,2.49172286940527,2,2.92682926829268,-48,-0.121951219512195,-5,0.304878048780488,-74,0.321739130434783,41,0.178260869565217,93,-0.453658536585366,
11028394,800.78125,2672,-1.63825873697118,-15360,-9.41753525444513,-4144,2.54077253218884,7,3.23170731707317,-53,-0.426829268292683,-2,0.121951219512195,-74,0.321739130434783,48,0.208695652173913,91,-0.44390243902439,
11029034,820.3125,2672,-1.63825873697118,-15456,-9.47639484978541,-4048,2.48191293684856,9,2.80487804878049,-46,-0.548780487804878,-3,0.182926829268293,-75,0.326086956521739,42,0.182608695652174,92,-0.448780487804878,
11029674,839.84375,2720,-1.66768853464132,-15520,-9.51563458001226,-4128,2.53096259963213,4,2.80487804878049,-46,-0.24390243902439,-7,0.426829268292683,-75,0.326086956521739,45,0.195652173913043,93,-0.453658536585366,
11030314,859.375,2720,-1.66768853464132,-15504,-9.50582464745555,-4144,2.54077253218884,3,2.86585365853659,-47,-0.182926829268293,-9,0.548780487804878,-73,0.317391304347826,41,0.178260869565217,94,-0.458536585365854,
11030954,878.90625,2688,-1.6480686695279,-15488,-9.49601471489883,-4064,2.49172286940527,1,2.74390243902439,-45,-0.0609756097560976,-11,0.670731707317073,-73,0.317391304347826,42,0.182608695652174,93,-0.453658536585366,
11031594,898.4375,2672,-1.63825873697118,-15456,-9.47639484978541,-4048,2.48191293684856,5,2.86585365853659,-47,-0.304878048780488,-12,0.731707317073171,-74,0.321739130434783,44,0.191304347826087,92,-0.448780487804878,
11032234,917.96875,2672,-1.63825873697118,-15424,-9.45677498467198,-4128,2.53096259963213,5,2.80487804878049,-46,-0.304878048780488,-7,0.426829268292683,-73,0.317391304347826,44,0.191304347826087,92,-0.448780487804878,
11032874,937.5,2656,-1.62844880441447,-15488,-9.49601471489883,-4144,2.54077253218884,3,2.68292682926829,-44,-0.182926829268293,-3,0.182926829268293,-75,0.326086956521739,42,0.182608695652174,93,-0.453658536585366,
11033514,957.03125,2704,-1.65787860208461,-15504,-9.50582464745555,-4160,2.55058246474555,0,2.86585365853659,-47,0,-2,0.121951219512195,-75,0.326086956521739,41,0.178260869565217,93,-0.453658536585366,
11034154,976.5625,2736,-1.67749846719804,-15504,-9.50582464745555,-4256,2.60944206008584,-7,2.80487804878049,-46,0.426829268292683,-2,0.121951219512195,-76,0.330434782608696,48,0.208695652173913,90,-0.439024390243902,
11034794,996.09375,2736,-1.67749846719804,-15440,-9.46658491722869,-4256,2.60944206008584,-8,3.04878048780488,-50,0.487804878048781,-4,0.24390243902439,-75,0.326086956521739,40,0.173913043478261,93,-0.453658536585366,
11035434,1015.625,2672,-1.63825873697118,-15472,-9.48620478234212,-4208,2.5800122624157,-4,3.10975609756098,-51,0.24390243902439,-1,0.0609756097560976,-75,0.326086956521739,43,0.18695652173913,92,-0.448780487804878,
11036074,1035.15625,2656,-1.62844880441447,-15488,-9.49601471489883,-4160,2.55058246474555,0,2.92682926829268,-48,0,-2,0.121951219512195,-73,0.317391304347826,42,0.182608695652174,91,-0.44390243902439,
11036714,1054.6875,2720,-1.66768853464132,-15456,-9.47639484978541,-4176,2.56039239730227,-4,3.10975609756098,-51,0.24390243902439,2,-0.121951219512195,-73,0.317391304347826,41,0.178260869565217,92,-0.448780487804878,
11037354,1074.21875,2720,-1.66768853464132,-15456,-9.47639484978541,-4208,2.5800122624157,-1,3.17073170731707,-52,0.0609756097560976,2,-0.121951219512195,-76,0.330434782608696,48,0.208695652173913,92,-0.448780487804878,
11037994,1093.75,2752,-1.68730839975475,-15520,-9.51563458001226,-4096,2.5113427345187,1,3.23170731707317,-53,-0.0609756097560976,2,-0.121951219512195,-78,0.339130434782609,46,0.2,92,-0.448780487804878,
11038634,1113.28125,2800,-1.71673819742489,-15440,-9.46658491722869,-4160,2.55058246474555,-2,3.35365853658537,-55,0.121951219512195,1,-0.0609756097560976,-75,0.326086956521739,46,0.2,92,-0.448780487804878,
11039274,1132.8125,2736,-1.67749846719804,-15456,-9.47639484978541,-4176,2.56039239730227,1,3.59756097560976,-59,-0.0609756097560976,-1,0.0609756097560976,-74,0.321739130434783,41,0.178260869565217,94,-0.458536585365854,
11039914,1152.34375,2704,-1.65787860208461,-15440,-9.46658491722869,-4112,2.52115266707541,-2,3.65853658536585,-60,0.121951219512195,-9,0.548780487804878,-74,0.321739130434783,42,0.182608695652174,91,-0.44390243902439,
11040554,1171.875,2688,-1.6480686695279,-15440,-9.46658491722869,-4192,2.57020232985898,-3,3.65853658536585,-60,0.182926829268293,-12,0.731707317073171,-74,0.321739130434783,46,0.2,91,-0.44390243902439,
11041194,1191.40625,2800,-1.71673819742489,-15472,-9.48620478234212,-4208,2.5800122624157,-3,3.78048780487805,-62,0.182926829268293,-8,0.487804878048781,-73,0.317391304347826,41,0.178260869565217,93,-0.453658536585366,
11041834,1210.9375,2784,-1.70692826486818,-15424,-9.45677498467198,-4208,2.5800122624157,-9,3.53658536585366,-58,0.548780487804878,-2,0.121951219512195,-73,0.317391304347826,40,0.173913043478261,93,-0.453658536585366,
11042474,1230.46875,2816,-1.72654812998161,-15360,-9.41753525444513,-4192,2.57020232985898,3,3.35365853658537,-55,-0.182926829268293,-2,0.121951219512195,-73,0.317391304347826,44,0.191304347826087,92,-0.448780487804878,
11043114,1250,2768,-1.69711833231147,-15392,-9.43715511955855,-4144,2.54077253218884,14,3.41463414634146,-56,-0.853658536585366,-5,0.304878048780488,-73,0.317391304347826,44,0.191304347826087,92,-0.448780487804878,
11043754,1269.53125,2720,-1.66768853464132,-15424,-9.45677498467198,-4144,2.54077253218884,15,3.41463414634146,-56,-0.914634146341463,-5,0.304878048780488,-75,0.326086956521739,42,0.182608695652174,93,-0.453658536585366,
11044394,1289.0625,2656,-1.62844880441447,-15472,-9.48620478234212,-4128,2.53096259963213,4,3.65853658536585,-60,-0.24390243902439,-9,0.548780487804878,-76,0.330434782608696,41,0.178260869565217,93,-0.453658536585366,
11045034,1308.59375,2656,-1.62844880441447,-15504,-9.50582464745555,-4112,2.52115266707541,-5,3.59756097560976,-59,0.304878048780488,-9,0.548780487804878,-73,0.317391304347826,43,0.18695652173913,91,-0.44390243902439,
11045674,1328.125,2688,-1.6480686695279,-15472,-9.48620478234212,-4144,2.54077253218884,-10,3.41463414634146,-56,0.609756097560976,-14,0.853658536585366,-75,0.326086956521739,43,0.18695652173913,92,-0.448780487804878,
11046314,1347.65625,2768,-1.69711833231147,-15488,-9.49601471489883,-4112,2.52115266707541,-6,3.35365853658537,-55,0.365853658536585,-17,1.03658536585366,-74,0.321739130434783,42,0.182608695652174,93,-0.453658536585366,
11046954,1367.1875,2688,-1.6480686695279,-15440,-9.46658491722869,-4080,2.50153280196199,-4,3.10975609756098,-51,0.24390243902439,-17,1.03658536585366,-75,0.326086956521739,46,0.2,93,-0.453658536585366,
11047594,1386.71875,2672,-1.63825873697118,-15360,-9.41753525444513,-4160,2.55058246474555,-4,3.04878048780488,-50,0.24390243902439,-12,0.731707317073171,-74,0.321739130434783,43,0.18695652173913,92,-0.448780487804878,
11048234,1406.25,2704,-1.65787860208461,-15344,-9.40772532188841,-4144,2.54077253218884,-1,2.98780487804878,-49,0.0609756097560976,-11,0.670731707317073,-76,0.330434782608696,43,0.18695652173913,92,-0.448780487804878,
11048874,1425.78125,2704,-1.65787860208461,-15376,-9.42734518700184,-4160,2.55058246474555,2,2.74390243902439,-45,-0.121951219512195,-2,0.121951219512195,-76,0.330434782608696,45,0.195652173913043,92,-0.448780487804878,
11049514,1445.3125,2720,-1.66768853464132,-15408,-9.44696505211527,-4176,2.56039239730227,9,2.68292682926829,-44,-0.548780487804878,-3,0.182926829268293,-76,0.330434782608696,45,0.195652173913043,92,-0.448780487804878,
11050154,1464.84375,2704,-1.65787860208461,-15504,-9.50582464745555,-4112,2.52115266707541,14,2.5,-41,-0.853658536585366,-1,0.0609756097560976,-74,0.321739130434783,42,0.182608695652174,92,-0.448780487804878,
11050794,1484.375,2640,-1.61863887185776,-15552,-9.53525444512569,-4128,2.53096259963213,4,2.4390243902439,-40,-0.24390243902439,-1,0.0609756097560976,-74,0.321739130434783,41,0.178260869565217,93,-0.453658536585366,
11051434,1503.90625,2704,-1.65787860208461,-15488,-9.49601471489883,-4176,2.56039239730227,-1,2.80487804878049,-46,0.0609756097560976,-5,0.304878048780488,-78,0.339130434782609,44,0.191304347826087,91,-0.44390243902439,
11052074,1523.4375,2736,-1.67749846719804,-15424,-9.45677498467198,-4144,2.54077253218884,-5,2.74390243902439,-45,0.304878048780488,-11,0.670731707317073,-77,0.334782608695652,45,0.195652173913043,91,-0.44390243902439,
11052714,1542.96875,2672,-1.63825873697118,-15360,-9.41753525444513,-4160,2.55058246474555,-8,2.6219512195122,-43,0.487804878048781,-10,0.609756097560976,-74,0.321739130434783,41,0.178260869565217,93,-0.453658536585366,
11053354,1562.5,2688,-1.6480686695279,-15376,-9.42734518700184,-4176,2.56039239730227,-6,2.68292682926829,-44,0.365853658536585,-7,0.426829268292683,-75,0.326086956521739,41,0.178260869565217,93,-0.453658536585366,
11053994,1582.03125,2704,-1.65787860208461,-15392,-9.43715511955855,-4176,2.56039239730227,-3,2.68292682926829,-44,0.182926829268293,1,-0.0609756097560976,-75,0.326086956521739,45,0.195652173913043,92,-0.448780487804878,
11054634,1601.5625,2736,-1.67749846719804,-15424,-9.45677498467198,-4160,2.55058246474555,-1,2.6219512195122,-43,0.0609756097560976,2,-0.121951219512195,-73,0.317391304347826,45,0.195652173913043,91,-0.44390243902439,
11055274,1621.09375,2752,-1.68730839975475,-15424,-9.45677498467198,-4192,2.57020232985898,-1,2.68292682926829,-44,0.0609756097560976,-1,0.0609756097560976,-75,0.326086956521739,42,0.182608695652174,93,-0.453658536585366,
11055914,1640.625,2768,-1.69711833231147,-15472,-9.48620478234212,-4128,2.53096259963213,-3,2.68292682926829,-44,0.182926829268293,-5,0.304878048780488,-76,0.330434782608696,44,0.191304347826087,94,-0.458536585365854,
11056554,1660.15625,2752,-1.68730839975475,-15504,-9.50582464745555,-4128,2.53096259963213,-5,2.6219512195122,-43,0.304878048780488,-9,0.548780487804878,-74,0.321739130434783,43,0.18695652173913,92,-0.448780487804878,
11057194,1679.6875,2736,-1.67749846719804,-15456,-9.47639484978541,-4192,2.57020232985898,-2,2.74390243902439,-45,0.121951219512195,-10,0.609756097560976,-73,0.317391304347826,42,0.182608695652174,92,-0.448780487804878,
11057834,1699.21875,2672,-1.63825873697118,-15424,-9.45677498467198,-4112,2.52115266707541,-1,2.86585365853659,-47,0.0609756097560976,-10,0.609756097560976,-76,0.330434782608696,43,0.18695652173913,91,-0.44390243902439,
11058474,1718.75,2768,-1.69711833231147,-15424,-9.45677498467198,-4160,2.55058246474555,0,2.98780487804878,-49,0,-8,0.487804878048781,-75,0.326086956521739,44,0.191304347826087,90,-0.439024390243902,
11059114,1738.28125,2672,-1.63825873697118,-15408,-9.44696505211527,-4160,2.55058246474555,2,2.86585365853659,-47,-0.121951219512195,-8,0.487804878048781,-74,0.321739130434783,42,0.182608695652174,92,-0.448780487804878,
11059754,1757.8125,2688,-1.6480686695279,-15456,-9.47639484978541,-4176,2.56039239730227,-1,2.92682926829268,-48,0.0609756097560976,-8,0.487804878048781,-73,0.317391304347826,42,0.182608695652174,91,-0.44390243902439,
11060394,1777.34375,2784,-1.70692826486818,-15488,-9.49601471489883,-4176,2.56039239730227,-1,3.10975609756098,-51,0.0609756097560976,-13,0.792682926829268,-75,0.326086956521739,47,0.204347826086957,91,-0.44390243902439,
11061034,1796.875,2704,-1.65787860208461,-15472,-9.48620478234212,-4176,2.56039239730227,-1,3.10975609756098,-51,0.0609756097560976,-12,0.731707317073171,-76,0.330434782608696,46,0.2,92,-0.448780487804878,
11061674,1816.40625,2752,-1.68730839975475,-15456,-9.47639484978541,-4144,2.54077253218884,-2,2.98780487804878,-49,0.121951219512195,-18,1.09756097560976,-74,0.321739130434783,41,0.178260869565217,93,-0.453658536585366,
11062314,1835.9375,2656,-1.62844880441447,-15472,-9.48620478234212,-4144,2.54077253218884,-3,3.04878048780488,-50,0.182926829268293,-15,0.914634146341463,-74,0.321739130434783,42,0.182608695652174,92,-0.448780487804878,
11062954,1855.46875,2592,-1.58920907418761,-15456,-9.47639484978541,-4128,2.53096259963213,-3,3.23170731707317,-53,0.182926829268293,-17,1.03658536585366,-75,0.326086956521739,45,0.195652173913043,92,-0.448780487804878,
11063594,1875,2672,-1.63825873697118,-15440,-9.46658491722869,-4128,2.53096259963213,-2,3.35365853658537,-55,0.121951219512195,-13,0.792682926829268,-75,0.326086956521739,45,0.195652173913043,91,-0.44390243902439,
11064234,1894.53125,2688,-1.6480686695279,-15504,-9.50582464745555,-4160,2.55058246474555,-2,3.17073170731707,-52,0.121951219512195,-10,0.609756097560976,-74,0.321739130434783,43,0.18695652173913,91,-0.44390243902439,
11064874,1914.0625,2672,-1.63825873697118,-15536,-9.52544451256898,-4096,2.5113427345187,-2,2.98780487804878,-49,0.121951219512195,-8,0.487804878048781,-76,0.330434782608696,42,0.182608695652174,92,-0.448780487804878,
11065514,1933.59375,2672,-1.63825873697118,-15424,-9.45677498467198,-4160,2.55058246474555,1,2.74390243902439,-45,-0.0609756097560976,-9,0.548780487804878,-74,0.321739130434783,44,0.191304347826087,91,-0.44390243902439,
11066154,1953.125,2688,-1.6480686695279,-15424,-9.45677498467198,-4128,2.53096259963213,2,2.74390243902439,-45,-0.121951219512195,-11,0.670731707317073,-75,0.326086956521739,46,0.2,91,-0.44390243902439,
11066794,1972.65625,2688,-1.6480686695279,-15408,-9.44696505211527,-4080,2.50153280196199,2,2.4390243902439,-40,-0.121951219512195,-13,0.792682926829268,-75,0.326086956521739,42,0.182608695652174,93,-0.453658536585366,
11067434,1992.1875,2672,-1.63825873697118,-15472,-9.48620478234212,-4048,2.48191293684856,-2,2.6219512195122,-43,0.121951219512195,-11,0.670731707317073,-76,0.330434782608696,42,0.182608695652174,92,-0.448780487804878,
11068074,2011.71875,2576,-1.5793991416309,-15440,-9.46658491722869,-4048,2.48191293684856,-9,2.74390243902439,-45,0.548780487804878,-7,0.426829268292683,-73,0.317391304347826,44,0.191304347826087,93,-0.453658536585366,
11068714,2031.25,2624,-1.60882893930104,-15488,-9.49601471489883,-4144,2.54077253218884,-11,2.74390243902439,-45,0.670731707317073,1,-0.0609756097560976,-75,0.326086956521739,41,0.178260869565217,93,-0.453658536585366,
11069354,2050.78125,2688,-1.6480686695279,-15424,-9.45677498467198,-4128,2.53096259963213,-4,2.5,-41,0.24390243902439,7,-0.426829268292683,-76,0.330434782608696,42,0.182608695652174,93,-0.453658536585366,
11069994,2070.3125,2704,-1.65787860208461,-15392,-9.43715511955855,-4128,2.53096259963213,3,2.31707317073171,-38,-0.182926829268293,10,-0.609756097560976,-73,0.317391304347826,42,0.182608695652174,91,-0.44390243902439,
11070634,2089.84375,2704,-1.65787860208461,-15440,-9.46658491722869,-4080,2.50153280196199,9,2.5609756097561,-42,-0.548780487804878,7,-0.426829268292683,-75,0.326086956521739,46,0.2,91,-0.44390243902439,
11071274,2109.375,2688,-1.6480686695279,-15520,-9.51563458001226,-4064,2.49172286940527,1,2.86585365853659,-47,-0.0609756097560976,3,-0.182926829268293,-75,0.326086956521739,43,0.18695652173913,92,-0.448780487804878,
11071914,2128.90625,2624,-1.60882893930104,-15568,-9.5450643776824,-4160,2.55058246474555,-8,2.92682926829268,-48,0.487804878048781,-2,0.121951219512195,-75,0.326086956521739,46,0.2,92,-0.448780487804878,
11072554,2148.4375,2656,-1.62844880441447,-15552,-9.53525444512569,-4160,2.55058246474555,-16,2.74390243902439,-45,0.975609756097561,-3,0.182926829268293,-74,0.321739130434783,41,0.178260869565217,91,-0.44390243902439,
11073194,2167.96875,2752,-1.68730839975475,-15504,-9.50582464745555,-4128,2.53096259963213,-7,2.92682926829268,-48,0.426829268292683,-5,0.304878048780488,-75,0.326086956521739,42,0.182608695652174,93,-0.453658536585366,
11073834,2187.5,2784,-1.70692826486818,-15456,-9.47639484978541,-4112,2.52115266707541,0,3.10975609756098,-51,0,-7,0.426829268292683,-75,0.326086956521739,46,0.2,91,-0.44390243902439,
11074474,2207.03125,2736,-1.67749846719804,-15456,-9.47639484978541,-4112,2.52115266707541,-5,3.17073170731707,-52,0.304878048780488,-3,0.182926829268293,-75,0.326086956521739,44,0.191304347826087,92,-0.448780487804878,
11075114,2226.5625,2752,-1.68730839975475,-15376,-9.42734518700184,-4080,2.50153280196199,-3,3.17073170731707,-52,0.182926829268293,-2,0.121951219512195,-75,0.326086956521739,41,0.178260869565217,94,-0.458536585365854,
11075754,2246.09375,2720,-1.66768853464132,-15440,-9.46658491722869,-4240,2.59963212752912,0,3.17073170731707,-52,0,3,-0.182926829268293,-75,0.326086956521739,46,0.2,93,-0.453658536585366,
11076394,2265.625,2752,-1.68730839975475,-15472,-9.48620478234212,-4192,2.57020232985898,6,2.86585365853659,-47,-0.365853658536585,2,-0.121951219512195,-75,0.326086956521739,45,0.195652173913043,91,-0.44390243902439,
11077034,2285.15625,2816,-1.72654812998161,-15520,-9.51563458001226,-4160,2.55058246474555,11,3.04878048780488,-50,-0.670731707317073,0,0,-74,0.321739130434783,45,0.195652173913043,92,-0.448780487804878,
11077674,2304.6875,2784,-1.70692826486818,-15472,-9.48620478234212,-4128,2.53096259963213,10,3.17073170731707,-52,-0.609756097560976,-4,0.24390243902439,-75,0.326086956521739,47,0.204347826086957,90,-0.439024390243902,
11078314,2324.21875,2672,-1.63825873697118,-15472,-9.48620478234212,-4112,2.52115266707541,7,2.92682926829268,-48,-0.426829268292683,-10,0.609756097560976,-77,0.334782608695652,42,0.182608695652174,93,-0.453658536585366,
11078954,2343.75,2736,-1.67749846719804,-15440,-9.46658491722869,-4080,2.50153280196199,2,2.98780487804878,-49,-0.121951219512195,-17,1.03658536585366,-74,0.321739130434783,44,0.191304347826087,91,-0.44390243902439,
11079594,2363.28125,2720,-1.66768853464132,-15440,-9.46658491722869,-4144,2.54077253218884,5,3.10975609756098,-51,-0.304878048780488,-16,0.975609756097561,-73,0.317391304347826,44,0.191304347826087,92,-0.448780487804878,
11080234,2382.8125,2688,-1.6480686695279,-15472,-9.48620478234212,-4112,2.52115266707541,10,3.10975609756098,-51,-0.609756097560976,-17,1.03658536585366,-77,0.334782608695652,41,0.178260869565217,93,-0.453658536585366,
11080874,2402.34375,2672,-1.63825873697118,-15456,-9.47639484978541,-4080,2.50153280196199,11,2.98780487804878,-49,-0.670731707317073,-11,0.670731707317073,-75,0.326086956521739,42,0.182608695652174,92,-0.448780487804878,
11081514,2421.875,2672,-1.63825873697118,-15440,-9.46658491722869,-4048,2.48191293684856,12,3.23170731707317,-53,-0.731707317073171,-12,0.731707317073171,-73,0.317391304347826,41,0.178260869565217,91,-0.44390243902439,
11082154,2441.40625,2720,-1.66768853464132,-15456,-9.47639484978541,-4112,2.52115266707541,7,3.10975609756098,-51,-0.426829268292683,-15,0.914634146341463,-74,0.321739130434783,40,0.173913043478261,92,-0.448780487804878,
11082794,2460.9375,2656,-1.62844880441447,-15520,-9.51563458001226,-4096,2.5113427345187,7,3.10975609756098,-51,-0.426829268292683,-18,1.09756097560976,-76,0.330434782608696,46,0.2,91,-0.44390243902439,
11083434,2480.46875,2688,-1.6480686695279,-15520,-9.51563458001226,-4176,2.56039239730227,9,3.04878048780488,-50,-0.548780487804878,-17,1.03658536585366,-75,0.326086956521739,46,0.2,92,-0.448780487804878,
11084074,2500,2672,-1.63825873697118,-15456,-9.47639484978541,-4112,2.52115266707541,20,3.17073170731707,-52,-1.21951219512195,-11,0.670731707317073,-75,0.326086956521739,47,0.204347826086957,92,-0.448780487804878,
11084714,2519.53125,2672,-1.63825873697118,-15536,-9.52544451256898,-4144,2.54077253218884,20,3.10975609756098,-51,-1.21951219512195,-5,0.304878048780488,-73,0.317391304347826,41,0.178260869565217,93,-0.453658536585366,
11085354,2539.0625,2576,-1.5793991416309,-15440,-9.46658491722869,-4096,2.5113427345187,13,3.29268292682927,-54,-0.792682926829268,-6,0.365853658536585,-74,0.321739130434783,44,0.191304347826087,93,-0.453658536585366,
11085994,2558.59375,2560,-1.56958920907419,-15424,-9.45677498467198,-4112,2.52115266707541,9,3.29268292682927,-54,-0.548780487804878,-2,0.121951219512195,-74,0.321739130434783,43,0.18695652173913,91,-0.44390243902439,
11086634,2578.125,2592,-1.58920907418761,-15472,-9.48620478234212,-4000,2.45248313917842,5,3.23170731707317,-53,-0.304878048780488,2,-0.121951219512195,-72,0.31304347826087,41,0.178260869565217,93,-0.453658536585366,
11087274,2597.65625,2672,-1.63825873697118,-15600,-9.56468424279583,-4032,2.47210300429185,6,3.29268292682927,-54,-0.365853658536585,1,-0.0609756097560976,-74,0.321739130434783,43,0.18695652173913,93,-0.453658536585366,
11087914,2617.1875,2656,-1.62844880441447,-15424,-9.45677498467198,-4064,2.49172286940527,1,3.23170731707317,-53,-0.0609756097560976,0,0,-73,0.317391304347826,44,0.191304347826087,90,-0.439024390243902,
11088554,2636.71875,2608,-1.59901900674433,-15440,-9.46658491722869,-4000,2.45248313917842,2,3.10975609756098,-51,-0.121951219512195,4,-0.24390243902439,-72,0.31304347826087,46,0.2,92,-0.448780487804878,
11089194,2656.25,2688,-1.6480686695279,-15472,-9.48620478234212,-3968,2.43286327406499,1,3.17073170731707,-52,-0.0609756097560976,1,-0.0609756097560976,-72,0.31304347826087,42,0.182608695652174,93,-0.453658536585366,
11089834,2675.78125,2672,-1.63825873697118,-15504,-9.50582464745555,-4048,2.48191293684856,5,2.98780487804878,-49,-0.304878048780488,3,-0.182926829268293,-74,0.321739130434783,42,0.182608695652174,94,-0.458536585365854,
11090474,2695.3125,2704,-1.65787860208461,-15472,-9.48620478234212,-4000,2.45248313917842,3,2.86585365853659,-47,-0.182926829268293,2,-0.121951219512195,-74,0.321739130434783,45,0.195652173913043,92,-0.448780487804878,
11091114,2714.84375,2752,-1.68730839975475,-15472,-9.48620478234212,-3952,2.42305334150828,4,2.80487804878049,-46,-0.24390243902439,2,-0.121951219512195,-74,0.321739130434783,42,0.182608695652174,92,-0.448780487804878,
11091754,2734.375,2720,-1.66768853464132,-15472,-9.48620478234212,-4064,2.49172286940527,0,3.10975609756098,-51,0,1,-0.0609756097560976,-74,0.321739130434783,41,0.178260869565217,93,-0.453658536585366,
11092394,2753.90625,2704,-1.65787860208461,-15520,-9.51563458001226,-4144,2.54077253218884,-4,2.98780487804878,-49,0.24390243902439,-3,0.182926829268293,-73,0.317391304347826,41,0.178260869565217,94,-0.458536585365854,
11093034,2773.4375,2736,-1.67749846719804,-15488,-9.49601471489883,-4176,2.56039239730227,-3,3.04878048780488,-50,0.182926829268293,-4,0.24390243902439,-72,0.31304347826087,40,0.173913043478261,92,-0.448780487804878,
11093674,2792.96875,2720,-1.66768853464132,-15472,-9.48620478234212,-4192,2.57020232985898,-1,3.23170731707317,-53,0.0609756097560976,-12,0.731707317073171,-72,0.31304347826087,41,0.178260869565217,92,-0.448780487804878,
11094314,2812.5,2624,-1.60882893930104,-15456,-9.47639484978541,-4192,2.57020232985898,-6,3.35365853658537,-55,0.365853658536585,-14,0.853658536585366,-72,0.31304347826087,46,0.2,93,-0.453658536585366,
11094954,2832.03125,2672,-1.63825873697118,-15472,-9.48620478234212,-4160,2.55058246474555,-7,3.29268292682927,-54,0.426829268292683,-11,0.670731707317073,-73,0.317391304347826,44,0.191304347826087,93,-0.453658536585366,
11095594,2851.5625,2768,-1.69711833231147,-15520,-9.51563458001226,-4112,2.52115266707541,-4,3.41463414634146,-56,0.24390243902439,-9,0.548780487804878,-73,0.317391304347826,39,0.169565217391304,93,-0.453658536585366,
11096234,2871.09375,2752,-1.68730839975475,-15472,-9.48620478234212,-4080,2.50153280196199,-6,3.29268292682927,-54,0.365853658536585,1,-0.0609756097560976,-72,0.31304347826087,40,0.173913043478261,94,-0.458536585365854,
11096874,2890.625,2752,-1.68730839975475,-15440,-9.46658491722869,-4144,2.54077253218884,2,3.35365853658537,-55,-0.121951219512195,0,0,-73,0.317391304347826,43,0.18695652173913,93,-0.453658536585366,
11097514,2910.15625,2784,-1.70692826486818,-15424,-9.45677498467198,-4208,2.5800122624157,9,3.41463414634146,-56,-0.548780487804878,-8,0.487804878048781,-72,0.31304347826087,44,0.191304347826087,92,-0.448780487804878,
11098154,2929.6875,2720,-1.66768853464132,-15504,-9.50582464745555,-4208,2.5800122624157,7,3.78048780487805,-62,-0.426829268292683,-12,0.731707317073171,-71,0.308695652173913,40,0.173913043478261,94,-0.458536585365854,
11098794,2949.21875,2656,-1.62844880441447,-15488,-9.49601471489883,-4288,2.62906192519926,-1,3.84146341463415,-63,0.0609756097560976,-15,0.914634146341463,-71,0.308695652173913,40,0.173913043478261,93,-0.453658536585366,
11099434,2968.75,2608,-1.59901900674433,-15472,-9.48620478234212,-4192,2.57020232985898,-9,3.84146341463415,-63,0.548780487804878,-14,0.853658536585366,-71,0.308695652173913,44,0.191304347826087,92,-0.448780487804878,
11100074,2988.28125,2608,-1.59901900674433,-15504,-9.50582464745555,-4208,2.5800122624157,-6,3.90243902439024,-64,0.365853658536585,-13,0.792682926829268,-72,0.31304347826087,43,0.18695652173913,92,-0.448780487804878,
11100714,3007.8125,2672,-1.63825873697118,-15456,-9.47639484978541,-4128,2.53096259963213,-4,3.78048780487805,-62,0.24390243902439,-13,0.792682926829268,-73,0.317391304347826,42,0.182608695652174,94,-0.458536585365854,
11101354,3027.34375,2720,-1.66768853464132,-15408,-9.44696505211527,-4048,2.48191293684856,4,3.90243902439024,-64,-0.24390243902439,-10,0.609756097560976,-72,0.31304347826087,46,0.2,94,-0.458536585365854,
11101994,3046.875,2672,-1.63825873697118,-15360,-9.41753525444513,-4160,2.55058246474555,4,4.02439024390244,-66,-0.24390243902439,-10,0.609756097560976,-74,0.321739130434783,47,0.204347826086957,92,-0.448780487804878,
11102634,3066.40625,2624,-1.60882893930104,-15408,-9.44696505211527,-4128,2.53096259963213,2,3.84146341463415,-63,-0.121951219512195,-10,0.609756097560976,-71,0.308695652173913,41,0.178260869565217,92,-0.448780487804878,
11103274,3085.9375,2704,-1.65787860208461,-15440,-9.46658491722869,-4176,2.56039239730227,2,3.59756097560976,-59,-0.121951219512195,-8,0.487804878048781,-72,0.31304347826087,40,0.173913043478261,94,-0.458536585365854,
11103914,3105.46875,2736,-1.67749846719804,-15440,-9.46658491722869,-4128,2.53096259963213,6,3.65853658536585,-60,-0.365853658536585,-3,0.182926829268293,-72,0.31304347826087,44,0.191304347826087,92,-0.448780487804878,
11104554,3125,2720,-1.66768853464132,-15440,-9.46658491722869,-4224,2.58982219497241,10,3.71951219512195,-61,-0.609756097560976,-2,0.121951219512195,-71,0.308695652173913,40,0.173913043478261,93,-0.453658536585366,
11105194,3144.53125,2736,-1.67749846719804,-15424,-9.45677498467198,-4080,2.50153280196199,11,3.53658536585366,-58,-0.670731707317073,-2,0.121951219512195,-72,0.31304347826087,44,0.191304347826087,93,-0.453658536585366,
11105834,3164.0625,2688,-1.6480686695279,-15440,-9.46658491722869,-4160,2.55058246474555,13,3.53658536585366,-58,-0.792682926829268,-3,0.182926829268293,-72,0.31304347826087,44,0.191304347826087,94,-0.458536585365854,
11106474,3183.59375,2624,-1.60882893930104,-15408,-9.44696505211527,-4144,2.54077253218884,12,3.35365853658537,-55,-0.731707317073171,-7,0.426829268292683,-70,0.304347826086957,40,0.173913043478261,94,-0.458536585365854,
11107114,3203.125,2688,-1.6480686695279,-15344,-9.40772532188841,-4160,2.55058246474555,0,3.53658536585366,-58,0,-11,0.670731707317073,-71,0.308695652173913,39,0.169565217391304,95,-0.463414634146341,
11107754,3222.65625,2720,-1.66768853464132,-15328,-9.3979153893317,-4224,2.58982219497241,8,3.53658536585366,-58,-0.487804878048781,-9,0.548780487804878,-72,0.31304347826087,43,0.18695652173913,94,-0.458536585365854,
11108394,3242.1875,2656,-1.62844880441447,-15296,-9.37829552421827,-4144,2.54077253218884,12,3.29268292682927,-54,-0.731707317073171,-6,0.365853658536585,-72,0.31304347826087,44,0.191304347826087,94,-0.458536585365854,
11109034,3261.71875,2704,-1.65787860208461,-15376,-9.42734518700184,-4208,2.5800122624157,10,3.53658536585366,-58,-0.609756097560976,-6,0.365853658536585,-71,0.308695652173913,40,0.173913043478261,95,-0.463414634146341,
11109674,3281.25,2720,-1.66768853464132,-15472,-9.48620478234212,-4160,2.55058246474555,4,3.41463414634146,-56,-0.24390243902439,-3,0.182926829268293,-70,0.304347826086957,40,0.173913043478261,95,-0.463414634146341,
11110314,3300.78125,2704,-1.65787860208461,-15408,-9.44696505211527,-4144,2.54077253218884,2,3.29268292682927,-54,-0.121951219512195,-10,0.609756097560976,-71,0.308695652173913,43,0.18695652173913,93,-0.453658536585366,
11110954,3320.3125,2720,-1.66768853464132,-15392,-9.43715511955855,-4176,2.56039239730227,4,3.29268292682927,-54,-0.24390243902439,-9,0.548780487804878,-72,0.31304347826087,43,0.18695652173913,93,-0.453658536585366,
11111594,3339.84375,2720,-1.66768853464132,-15392,-9.43715511955855,-4096,2.5113427345187,5,3.04878048780488,-50,-0.304878048780488,-13,0.792682926829268,-73,0.317391304347826,43,0.18695652173913,94,-0.458536585365854,
11112234,3359.375,2688,-1.6480686695279,-15440,-9.46658491722869,-4160,2.55058246474555,6,3.23170731707317,-53,-0.365853658536585,-13,0.792682926829268,-73,0.317391304347826,40,0.173913043478261,94,-0.458536585365854,
11112874,3378.90625,2720,-1.66768853464132,-15456,-9.47639484978541,-4192,2.57020232985898,2,2.98780487804878,-49,-0.121951219512195,-14,0.853658536585366,-70,0.304347826086957,41,0.178260869565217,92,-0.448780487804878,
11113514,3398.4375,2688,-1.6480686695279,-15440,-9.46658491722869,-4128,2.53096259963213,2,2.92682926829268,-48,-0.121951219512195,-11,0.670731707317073,-70,0.304347826086957,40,0.173913043478261,93,-0.453658536585366,
11114154,3417.96875,2672,-1.63825873697118,-15424,-9.45677498467198,-4144,2.54077253218884,4,2.80487804878049,-46,-0.24390243902439,-15,0.914634146341463,-72,0.31304347826087,41,0.178260869565217,94,-0.458536585365854,
11114794,3437.5,2688,-1.6480686695279,-15424,-9.45677498467198,-4144,2.54077253218884,-1,2.6219512195122,-43,0.0609756097560976,-14,0.853658536585366,-71,0.308695652173913,43,0.18695652173913,94,-0.458536585365854,
11115434,3457.03125,2736,-1.67749846719804,-15392,-9.43715511955855,-4160,2.55058246474555,2,2.5609756097561,-42,-0.121951219512195,-16,0.975609756097561,-69,0.3,39,0.169565217391304,93,-0.453658536585366,
11116074,3476.5625,2720,-1.66768853464132,-15440,-9.46658491722869,-4192,2.57020232985898,-4,2.68292682926829,-44,0.24390243902439,-15,0.914634146341463,-71,0.308695652173913,39,0.169565217391304,93,-0.453658536585366,
11116714,3496.09375,2688,-1.6480686695279,-15504,-9.50582464745555,-4144,2.54077253218884,-6,2.5,-41,0.365853658536585,-13,0.792682926829268,-72,0.31304347826087,43,0.18695652173913,94,-0.458536585365854,
11117354,3515.625,2688,-1.6480686695279,-15424,-9.45677498467198,-4080,2.50153280196199,-7,2.37804878048781,-39,0.426829268292683,-11,0.670731707317073,-72,0.31304347826087,43,0.18695652173913,94,-0.458536585365854,
11117994,3535.15625,2688,-1.6480686695279,-15424,-9.45677498467198,-4144,2.54077253218884,-5,2.5,-41,0.304878048780488,-9,0.548780487804878,-72,0.31304347826087,40,0.173913043478261,94,-0.458536585365854,
11118634,3554.6875,2720,-1.66768853464132,-15472,-9.48620478234212,-4240,2.59963212752912,-5,2.37804878048781,-39,0.304878048780488,-6,0.365853658536585,-71,0.308695652173913,43,0.18695652173913,93,-0.453658536585366,
11119274,3574.21875,2720,-1.66768853464132,-15536,-9.52544451256898,-4176,2.56039239730227,-7,2.4390243902439,-40,0.426829268292683,-7,0.426829268292683,-72,0.31304347826087,42,0.182608695652174,93,-0.453658536585366,
11119914,3593.75,2768,-1.69711833231147,-15456,-9.47639484978541,-4144,2.54077253218884,-11,2.4390243902439,-40,0.670731707317073,-6,0.365853658536585,-72,0.31304347826087,45,0.195652173913043,93,-0.453658536585366,
11120554,3613.28125,2688,-1.6480686695279,-15440,-9.46658491722869,-4144,2.54077253218884,-8,2.19512195121951,-36,0.487804878048781,-8,0.487804878048781,-72,0.31304347826087,45,0.195652173913043,93,-0.453658536585366,
11121194,3632.8125,2608,-1.59901900674433,-15360,-9.41753525444513,-4192,2.57020232985898,-8,2.31707317073171,-38,0.487804878048781,-11,0.670731707317073,-72,0.31304347826087,44,0.191304347826087,94,-0.458536585365854,
11121834,3652.34375,2608,-1.59901900674433,-15424,-9.45677498467198,-4096,2.5113427345187,-11,2.31707317073171,-38,0.670731707317073,-9,0.548780487804878,-72,0.31304347826087,43,0.18695652173913,92,-0.448780487804878,
11122474,3671.875,2656,-1.62844880441447,-15472,-9.48620478234212,-4080,2.50153280196199,-13,2.68292682926829,-44,0.792682926829268,-5,0.304878048780488,-71,0.308695652173913,43,0.18695652173913,92,-0.448780487804878,
11123114,3691.40625,2608,-1.59901900674433,-15488,-9.49601471489883,-4192,2.57020232985898,-13,2.07317073170732,-34,0.792682926829268,6,-0.365853658536585,-75,0.326086956521739,42,0.182608695652174,93,-0.453658536585366,
11123754,3710.9375,2656,-1.62844880441447,-15408,-9.44696505211527,-4192,2.57020232985898,-4,2.19512195121951,-36,0.24390243902439,6,-0.365853658536585,-73,0.317391304347826,41,0.178260869565217,93,-0.453658536585366,
11124394,3730.46875,2672,-1.63825873697118,-15488,-9.49601471489883,-4240,2.59963212752912,4,2.25609756097561,-37,-0.24390243902439,2,-0.121951219512195,-73,0.317391304347826,42,0.182608695652174,92,-0.448780487804878,
11125034,3750,2720,-1.66768853464132,-15504,-9.50582464745555,-4192,2.57020232985898,-3,2.37804878048781,-39,0.182926829268293,-1,0.0609756097560976,-73,0.317391304347826,40,0.173913043478261,92,-0.448780487804878,
11125674,3769.53125,2640,-1.61863887185776,-15504,-9.50582464745555,-4176,2.56039239730227,-12,2.6219512195122,-43,0.731707317073171,-5,0.304878048780488,-73,0.317391304347826,41,0.178260869565217,93,-0.453658536585366,
11126314,3789.0625,2640,-1.61863887185776,-15488,-9.49601471489883,-4144,2.54077253218884,-23,2.6219512195122,-43,1.40243902439024,-3,0.182926829268293,-76,0.330434782608696,45,0.195652173913043,92,-0.448780487804878,
11126954,3808.59375,2656,-1.62844880441447,-15520,-9.51563458001226,-4128,2.53096259963213,-24,2.80487804878049,-46,1.46341463414634,-4,0.24390243902439,-72,0.31304347826087,40,0.173913043478261,93,-0.453658536585366,
11127594,3828.125,2704,-1.65787860208461,-15520,-9.51563458001226,-4128,2.53096259963213,-19,2.80487804878049,-46,1.15853658536585,-3,0.182926829268293,-75,0.326086956521739,46,0.2,92,-0.448780487804878,
11128234,3847.65625,2688,-1.6480686695279,-15472,-9.48620478234212,-4048,2.48191293684856,-15,2.80487804878049,-46,0.914634146341463,-1,0.0609756097560976,-75,0.326086956521739,43,0.18695652173913,93,-0.453658536585366,
11128874,3867.1875,2640,-1.61863887185776,-15472,-9.48620478234212,-4064,2.49172286940527,-18,2.74390243902439,-45,1.09756097560976,2,-0.121951219512195,-74,0.321739130434783,44,0.191304347826087,93,-0.453658536585366,
11129514,3886.71875,2576,-1.5793991416309,-15392,-9.43715511955855,-4112,2.52115266707541,-15,2.74390243902439,-45,0.914634146341463,3,-0.182926829268293,-72,0.31304347826087,41,0.178260869565217,94,-0.458536585365854,
11130154,3906.25,2624,-1.60882893930104,-15424,-9.45677498467198,-4112,2.52115266707541,-12,2.92682926829268,-48,0.731707317073171,5,-0.304878048780488,-74,0.321739130434783,42,0.182608695652174,93,-0.453658536585366,
11130794,3925.78125,2688,-1.6480686695279,-15456,-9.47639484978541,-4144,2.54077253218884,-9,2.80487804878049,-46,0.548780487804878,13,-0.792682926829268,-73,0.317391304347826,44,0.191304347826087,92,-0.448780487804878,
11131434,3945.3125,2688,-1.6480686695279,-15504,-9.50582464745555,-4160,2.55058246474555,-6,2.80487804878049,-46,0.365853658536585,11,-0.670731707317073,-75,0.326086956521739,44,0.191304347826087,92,-0.448780487804878,
11132074,3964.84375,2704,-1.65787860208461,-15504,-9.50582464745555,-4112,2.52115266707541,-8,2.80487804878049,-46,0.487804878048781,8,-0.487804878048781,-74,0.321739130434783,43,0.18695652173913,93,-0.453658536585366,
11132714,3984.375,2704,-1.65787860208461,-15456,-9.47639484978541,-4208,2.5800122624157,-10,2.98780487804878,-49,0.609756097560976,6,-0.365853658536585,-74,0.321739130434783,43,0.18695652173913,93,-0.453658536585366,
11133354,4003.90625,2736,-1.67749846719804,-15440,-9.46658491722869,-4208,2.5800122624157,-10,3.04878048780488,-50,0.609756097560976,3,-0.182926829268293,-74,0.321739130434783,44,0.191304347826087,92,-0.448780487804878,
11133994,4023.4375,2704,-1.65787860208461,-15472,-9.48620478234212,-4160,2.55058246474555,-8,3.35365853658537,-55,0.487804878048781,-2,0.121951219512195,-74,0.321739130434783,47,0.204347826086957,92,-0.448780487804878,
11134634,4042.96875,2736,-1.67749846719804,-15424,-9.45677498467198,-4160,2.55058246474555,-6,3.23170731707317,-53,0.365853658536585,-2,0.121951219512195,-77,0.334782608695652,47,0.204347826086957,93,-0.453658536585366,
11135274,4062.5,2768,-1.69711833231147,-15440,-9.46658491722869,-4208,2.5800122624157,-5,3.29268292682927,-54,0.304878048780488,3,-0.182926829268293,-75,0.326086956521739,47,0.204347826086957,93,-0.453658536585366,
11135914,4082.03125,2752,-1.68730839975475,-15440,-9.46658491722869,-4160,2.55058246474555,-6,3.23170731707317,-53,0.365853658536585,4,-0.24390243902439,-74,0.321739130434783,42,0.182608695652174,92,-0.448780487804878,
11136554,4101.5625,2752,-1.68730839975475,-15424,-9.45677498467198,-4176,2.56039239730227,-6,3.23170731707317,-53,0.365853658536585,0,0,-74,0.321739130434783,40,0.173913043478261,92,-0.448780487804878,
11137194,4121.09375,2784,-1.70692826486818,-15440,-9.46658491722869,-4240,2.59963212752912,-3,3.23170731707317,-53,0.182926829268293,-6,0.365853658536585,-75,0.326086956521739,45,0.195652173913043,94,-0.458536585365854,
11137834,4140.625,2752,-1.68730839975475,-15424,-9.45677498467198,-4160,2.55058246474555,-4,3.17073170731707,-52,0.24390243902439,-9,0.548780487804878,-75,0.326086956521739,45,0.195652173913043,94,-0.458536585365854,
11138474,4160.15625,2720,-1.66768853464132,-15440,-9.46658491722869,-4144,2.54077253218884,1,3.35365853658537,-55,-0.0609756097560976,-8,0.487804878048781,-74,0.321739130434783,42,0.182608695652174,94,-0.458536585365854,
11139114,4179.6875,2656,-1.62844880441447,-15456,-9.47639484978541,-4064,2.49172286940527,-1,3.29268292682927,-54,0.0609756097560976,-10,0.609756097560976,-75,0.326086956521739,43,0.18695652173913,92,-0.448780487804878,
11139754,4199.21875,2688,-1.6480686695279,-15440,-9.46658491722869,-4112,2.52115266707541,-5,3.35365853658537,-55,0.304878048780488,-8,0.487804878048781,-74,0.321739130434783,44,0.191304347826087,92,-0.448780487804878,
11140394,4218.75,2688,-1.6480686695279,-15440,-9.46658491722869,-4224,2.58982219497241,-4,3.53658536585366,-58,0.24390243902439,-10,0.609756097560976,-74,0.321739130434783,41,0.178260869565217,92,-0.448780487804878,
11141034,4238.28125,2704,-1.65787860208461,-15456,-9.47639484978541,-4192,2.57020232985898,-2,3.41463414634146,-56,0.121951219512195,-14,0.853658536585366,-74,0.321739130434783,46,0.2,93,-0.453658536585366,
11141674,4257.8125,2672,-1.63825873697118,-15376,-9.42734518700184,-4176,2.56039239730227,3,3.35365853658537,-55,-0.182926829268293,-11,0.670731707317073,-75,0.326086956521739,43,0.18695652173913,92,-0.448780487804878,
11142314,4277.34375,2688,-1.6480686695279,-15424,-9.45677498467198,-4112,2.52115266707541,3,3.47560975609756,-57,-0.182926829268293,-14,0.853658536585366,-73,0.317391304347826,44,0.191304347826087,92,-0.448780487804878,
11142954,4296.875,2640,-1.61863887185776,-15456,-9.47639484978541,-4128,2.53096259963213,5,3.53658536585366,-58,-0.304878048780488,-13,0.792682926829268,-75,0.326086956521739,42,0.182608695652174,94,-0.458536585365854,
11143594,4316.40625,2608,-1.59901900674433,-15408,-9.44696505211527,-4176,2.56039239730227,4,3.41463414634146,-56,-0.24390243902439,-13,0.792682926829268,-76,0.330434782608696,42,0.182608695652174,92,-0.448780487804878,
11144234,4335.9375,2608,-1.59901900674433,-15408,-9.44696505211527,-4176,2.56039239730227,6,3.29268292682927,-54,-0.365853658536585,-11,0.670731707317073,-74,0.321739130434783,43,0.18695652173913,92,-0.448780487804878,
11144874,4355.46875,2688,-1.6480686695279,-15440,-9.46658491722869,-4144,2.54077253218884,5,3.35365853658537,-55,-0.304878048780488,-11,0.670731707317073,-73,0.317391304347826,42,0.182608695652174,92,-0.448780487804878,
11145514,4375,2656,-1.62844880441447,-15440,-9.46658491722869,-4112,2.52115266707541,6,3.29268292682927,-54,-0.365853658536585,-6,0.365853658536585,-76,0.330434782608696,48,0.208695652173913,91,-0.44390243902439,
11146154,4394.53125,2672,-1.63825873697118,-15472,-9.48620478234212,-4048,2.48191293684856,3,3.23170731707317,-53,-0.182926829268293,-6,0.365853658536585,-74,0.321739130434783,41,0.178260869565217,93,-0.453658536585366,
11146794,4414.0625,2656,-1.62844880441447,-15408,-9.44696505211527,-4096,2.5113427345187,2,2.98780487804878,-49,-0.121951219512195,-9,0.548780487804878,-73,0.317391304347826,41,0.178260869565217,92,-0.448780487804878,
11147434,4433.59375,2736,-1.67749846719804,-15472,-9.48620478234212,-4192,2.57020232985898,3,2.80487804878049,-46,-0.182926829268293,-8,0.487804878048781,-72,0.31304347826087,42,0.182608695652174,92,-0.448780487804878,
11148074,4453.125,2672,-1.63825873697118,-15408,-9.44696505211527,-4176,2.56039239730227,6,2.68292682926829,-44,-0.365853658536585,-9,0.548780487804878,-74,0.321739130434783,45,0.195652173913043,93,-0.453658536585366,
11148714,4472.65625,2560,-1.56958920907419,-15504,-9.50582464745555,-4096,2.5113427345187,11,2.6219512195122,-43,-0.670731707317073,-5,0.304878048780488,-75,0.326086956521739,45,0.195652173913043,93,-0.453658536585366,
11149354,4492.1875,2592,-1.58920907418761,-15440,-9.46658491722869,-4176,2.56039239730227,15,2.5,-41,-0.914634146341463,-2,0.121951219512195,-74,0.321739130434783,41,0.178260869565217,93,-0.453658536585366,
11149994,4511.71875,2608,-1.59901900674433,-15456,-9.47639484978541,-4144,2.54077253218884,8,2.13414634146341,-35,-0.487804878048781,6,-0.365853658536585,-76,0.330434782608696,46,0.2,93,-0.453658536585366,
11150634,4531.25,2704,-1.65787860208461,-15408,-9.44696505211527,-4192,2.57020232985898,13,2.19512195121951,-36,-0.792682926829268,11,-0.670731707317073,-75,0.326086956521739,44,0.191304347826087,93,-0.453658536585366,
11151274,4550.78125,2800,-1.71673819742489,-15280,-9.36848559166156,-4336,2.6584917228694,28,2.01219512195122,-33,-1.70731707317073,10,-0.609756097560976,-75,0.326086956521739,43,0.18695652173913,92,-0.448780487804878,
11151914,4570.3125,2832,-1.73635806253832,-15264,-9.35867565910484,-4448,2.7271612507664,59,1.89024390243902,-31,-3.59756097560976,6,-0.365853658536585,-74,0.321739130434783,40,0.173913043478261,94,-0.458536585365854,
11152554,4589.84375,2784,-1.70692826486818,-15344,-9.40772532188841,-5072,3.10974862047823,122,2.92682926829268,-48,-7.4390243902439,6,-0.365853658536585,-74,0.321739130434783,41,0.178260869565217,93,-0.453658536585366,
11153194,4609.375,2560,-1.56958920907419,-15472,-9.48620478234212,-5584,3.42366646229307,128,4.81707317073171,-79,-7.80487804878049,7,-0.426829268292683,-73,0.317391304347826,44,0.191304347826087,93,-0.453658536585366,
11153834,4628.90625,2320,-1.42244022072348,-15760,-9.66278356836297,-6544,4.01226241569589,100,9.39024390243902,-154,-6.09756097560976,10,-0.609756097560976,-72,0.31304347826087,44,0.191304347826087,93,-0.453658536585366,
11154474,4648.4375,1856,-1.13795217657879,-16240,-9.95708154506438,-7712,4.72838749233599,41,16.6463414634146,-273,-2.5,11,-0.670731707317073,-73,0.317391304347826,42,0.182608695652174,94,-0.458536585365854,
11155114,4667.96875,1584,-0.971183323114654,-16480,-10.1042305334151,-8784,5.38565297363581,-124,26.0365853658537,-427,7.5609756097561,-31,1.89024390243902,-71,0.308695652173913,38,0.165217391304348,96,-0.468292682926829,
11155754,4687.5,1728,-1.05947271612508,-16592,-10.1729000613121,-9472,5.80748007357449,-284,35.4878048780488,-582,17.3170731707317,-68,4.14634146341463,-68,0.295652173913043,40,0.173913043478261,95,-0.463414634146341,
11156394,4707.03125,2096,-1.28510116492949,-16608,-10.1827099938688,-10144,6.21949724095647,-404,45,-738,24.6341463414634,-135,8.23170731707317,-66,0.28695652173913,36,0.156521739130435,100,-0.48780487804878,
11157034,4726.5625,2800,-1.71673819742489,-16544,-10.1434702636419,-10960,6.71980380134887,-460,53.9634146341463,-885,28.0487804878049,-170,10.3658536585366,-66,0.28695652173913,37,0.160869565217391,102,-0.497560975609756,
11157674,4746.09375,3616,-2.21704475781729,-16448,-10.0846106683017,-11536,7.07296137339056,-391,61.890243902439,-1015,23.8414634146341,-179,10.9146341463415,-62,0.269565217391304,35,0.152173913043478,106,-0.517073170731707,
11158314,4765.625,4448,-2.7271612507664,-16416,-10.0649908031882,-12016,7.36725935009197,-146,69.7560975609756,-1144,8.90243902439025,-149,9.08536585365854,-58,0.252173913043478,32,0.139130434782609,109,-0.531707317073171,
11158954,4785.15625,4832,-2.96259963212753,-16368,-10.0355610055181,-12080,7.40649908031882,161,78.4146341463415,-1286,-9.81707317073171,-107,6.52439024390244,-55,0.239130434782609,30,0.130434782608696,114,-0.55609756097561,
11159594,4804.6875,4944,-3.03126916002452,-16448,-10.0846106683017,-12128,7.43592887798896,400,86.219512195122,-1414,-24.390243902439,-73,4.45121951219512,-55,0.239130434782609,33,0.143478260869565,117,-0.570731707317073,
11160234,4824.21875,4800,-2.9429797670141,-16496,-10.1140404659718,-12416,7.61250766400981,483,93.2926829268293,-1530,-29.4512195121951,-57,3.47560975609756,-52,0.226086956521739,34,0.147826086956522,120,-0.585365853658537,
11160874,4843.75,5040,-3.09012875536481,-16640,-10.2023298589822,-12480,7.65174739423666,430,99.8780487804878,-1638,-26.219512195122,-69,4.20731707317073,-51,0.221739130434783,25,0.108695652173913,125,-0.609756097560976,
11161514,4863.28125,5760,-3.53157572041692,-16848,-10.3298589822195,-12320,7.55364806866953,382,106.158536585366,-1741,-23.2926829268293,-97,5.91463414634146,-47,0.204347826086957,26,0.11304347826087,128,-0.624390243902439,
11162154,4882.8125,6160,-3.77682403433476,-16784,-10.2906192519926,-11984,7.34763948497854,401,111.890243902439,-1835,-24.4512195121951,-164,10,-45,0.195652173913043,25,0.108695652173913,130,-0.634146341463415,
11162794,4902.34375,6480,-3.97302268546904,-16464,-10.0944206008584,-11584,7.1023911710607,451,116.524390243902,-1911,-27.5,-246,15,-44,0.191304347826087,23,0.1,135,-0.658536585365854,
11163434,4921.875,6320,-3.8749233599019,-16368,-10.0355610055181,-11360,6.96505211526671,507,120.548780487805,-1977,-30.9146341463415,-319,19.4512195121951,-43,0.18695652173913,23,0.1,137,-0.668292682926829,
11164074,4941.40625,6000,-3.67872470876763,-16064,-9.84917228694053,-10896,6.68056407112201,479,123.59756097561,-2027,-29.2073170731707,-402,24.5121951219512,-44,0.191304347826087,17,0.0739130434782609,139,-0.678048780487805,
11164714,4960.9375,5888,-3.61005518087063,-15408,-9.44696505211527,-10496,6.43531575720417,394,124.817073170732,-2047,-24.0243902439024,-486,29.6341463414634,-44,0.191304347826087,17,0.0739130434782609,142,-0.692682926829268,
11165354,4980.46875,5904,-3.61986511342735,-14848,-9.10361741263029,-10592,6.49417535254445,359,124.451219512195,-2041,-21.890243902439,-553,33.719512195122,-44,0.191304347826087,16,0.0695652173913043,145,-0.707317073170732,
11165994,5000,5728,-3.51195585530349,-14112,-8.65236051502146,-10800,6.62170447578173,404,124.024390243902,-2034,-24.6341463414634,-615,37.5,-42,0.182608695652174,7,0.0304347826086957,149,-0.726829268292683,
11166634,5019.53125,5456,-3.34518700183936,-13536,-8.29920294297977,-10992,6.73942366646229,473,123.59756097561,-2027,-28.8414634146341,-659,40.1829268292683,-40,0.173913043478261,6,0.0260869565217391,151,-0.736585365853659,
11167274,5039.0625,4896,-3.00183936235438,-12976,-7.95585530349479,-11056,6.77866339668915,509,123.353658536585,-2023,-31.0365853658537,-678,41.3414634146341,-42,0.182608695652174,7,0.0304347826086957,151,-0.736585365853659,
11167914,5058.59375,4544,-2.78602084610668,-12320,-7.55364806866953,-11152,6.83752299202943,506,121.463414634146,-1992,-30.8536585365854,-679,41.4024390243902,-38,0.165217391304348,-2,-0.00869565217391304,154,-0.751219512195122,
11168554,5078.125,4272,-2.61925199264255,-11568,-7.09258123850398,-11552,7.08277130594727,534,119.939024390244,-1967,-32.5609756097561,-671,40.9146341463415,-39,0.169565217391304,-1,-0.00434782608695652,155,-0.75609756097561,
11169194,5097.65625,4160,-2.55058246474555,-10944,-6.70999386879215,-11904,7.29858982219497,569,115.914634146341,-1901,-34.6951219512195,-623,37.9878048780488,-38,0.165217391304348,-5,-0.0217391304347826,157,-0.765853658536585,
11169834,5117.1875,3952,-2.42305334150828,-10336,-6.33721643163703,-12368,7.58307786633967,689,112.134146341463,-1839,-42.0121951219512,-572,34.8780487804878,-36,0.156521739130435,-11,-0.0478260869565217,159,-0.775609756097561,
11170474,5136.71875,3632,-2.226854690374,-9840,-6.03310852237891,-12672,7.76946658491723,798,108.59756097561,-1781,-48.6585365853659,-525,32.0121951219512,-35,0.152173913043478,-9,-0.0391304347826087,158,-0.770731707317073,
11171114,5156.25,3072,-1.88350705088903,-9344,-5.72900061312078,-13040,7.99509503372164,870,104.69512195122,-1717,-53.0487804878049,-500,30.4878048780488,-35,0.152173913043478,-10,-0.0434782608695652,156,-0.760975609756098,
11171754,5175.78125,2608,-1.59901900674433,-8864,-5.43470263641937,-13168,8.07357449417535,876,102.80487804878,-1686,-53.4146341463415,-461,28.109756097561,-31,0.134782608695652,-16,-0.0695652173913043,157,-0.765853658536585,
11172394,5195.3125,2160,-1.32434089515635,-8272,-5.07173513182097,-13136,8.05395462906193,867,100.914634146341,-1655,-52.8658536585366,-424,25.8536585365854,-31,0.134782608695652,-22,-0.0956521739130435,158,-0.770731707317073,
11173034,5214.84375,1840,-1.12814224402207,-8240,-5.05211526670754,-13312,8.16186388718578,858,98.8414634146341,-1621,-52.3170731707317,-413,25.1829268292683,-29,0.126086956521739,-23,-0.1,157,-0.765853658536585,
11173674,5234.375,1344,-0.824034334763949,-7712,-4.72838749233599,-13312,8.16186388718578,864,95.9756097560976,-1574,-52.6829268292683,-411,25.0609756097561,-26,0.11304347826087,-22,-0.0956521739130435,156,-0.760975609756098,
11174314,5253.90625,992,-0.608215818516248,-7104,-4.35561005518087,-13296,8.15205395462906,879,94.390243902439,-1548,-53.5975609756098,-425,25.9146341463415,-26,0.11304347826087,-27,-0.117391304347826,155,-0.75609756097561,
11174954,5273.4375,592,-0.362967504598406,-6272,-3.84549356223176,-13008,7.97547516860822,884,92.4390243902439,-1516,-53.9024390243902,-418,25.4878048780488,-25,0.108695652173913,-26,-0.11304347826087,155,-0.75609756097561,
11175594,5292.96875,304,-0.18638871857756,-5648,-3.46290619251993,-12752,7.8185162477008,859,89.5731707317073,-1469,-52.3780487804878,-407,24.8170731707317,-20,0.0869565217391304,-31,-0.134782608695652,155,-0.75609756097561,
11176234,5312.5,-80,0.0490496627835684,-4992,-3.06069895769467,-12832,7.86756591048437,846,87.5,-1435,-51.5853658536585,-411,25.0609756097561,-19,0.0826086956521739,-31,-0.134782608695652,154,-0.751219512195122,
11176874,5332.03125,-592,0.362967504598406,-4272,-2.61925199264255,-12736,7.80870631514408,812,85.6707317073171,-1405,-49.5121951219512,-399,24.3292682926829,-18,0.0782608695652174,-32,-0.139130434782609,152,-0.741463414634146,
11177514,5351.5625,-992,0.608215818516248,-3488,-2.13856529736358,-12624,7.74003678724709,695,82.5,-1353,-42.3780487804878,-373,22.7439024390244,-17,0.0739130434782609,-34,-0.147826086956522,153,-0.746341463414634,
11178154,5371.09375,-1104,0.676885346413243,-2800,-1.71673819742489,-12560,7.70079705702023,594,77.8048780487805,-1276,-36.219512195122,-359,21.890243902439,-14,0.0608695652173913,-41,-0.178260869565217,152,-0.741463414634146,
11178794,5390.625,-1424,0.873083997547517,-2128,-1.30472103004292,-12432,7.62231759656652,546,73.9024390243902,-1212,-33.2926829268293,-311,18.9634146341463,-12,0.0521739130434783,-44,-0.191304347826087,153,-0.746341463414634,
11179434,5410.15625,-1760,1.0790925812385,-1696,-1.03985285101165,-12384,7.59288779889638,494,68.9024390243902,-1130,-30.1219512195122,-263,16.0365853658537,-12,0.0521739130434783,-41,-0.178260869565217,151,-0.736585365853659,
11180074,5429.6875,-1872,1.1477621091355,-1184,-0.725935009196812,-12288,7.5340282035561,398,64.4512195121951,-1057,-24.2682926829268,-211,12.8658536585366,-11,0.0478260869565217,-44,-0.191304347826087,150,-0.731707317073171,
11180714,5449.21875,-2272,1.39301042305334,-752,-0.461066830165543,-12128,7.43592887798896,310,57.9878048780488,-951,-18.9024390243902,-130,7.92682926829268,-9,0.0391304347826087,-47,-0.204347826086957,150,-0.731707317073171,
11181354,5468.75,-2064,1.26548129981606,-992,-0.608215818516248,-11744,7.20049049662784,235,52.4390243902439,-860,-14.3292682926829,-150,9.14634146341463,-7,0.0304347826086957,-49,-0.21304347826087,150,-0.731707317073171,
11181994,5488.28125,-1984,1.2164316370325,-112,-0.0686695278969957,-11568,7.09258123850398,169,45.6707317073171,-749,-10.3048780487805,-108,6.58536585365854,-8,0.0347826086956522,-46,-0.2,147,-0.717073170731707,
11182634,5507.8125,-1824,1.11833231146536,480,0.29429797670141,-11328,6.94543225015328,186,38.8414634146341,-637,-11.3414634146341,-68,4.14634146341463,-9,0.0391304347826087,-46,-0.2,147,-0.717073170731707,
11183274,5527.34375,-1664,1.02023298589822,656,0.402207234825261,-11616,7.12201103617413,275,31.890243902439,-523,-16.7682926829268,-1,0.0609756097560976,-9,0.0391304347826087,-45,-0.195652173913043,145,-0.707317073170732,
11183914,5546.875,-1920,1.17719190680564,784,0.48068669527897,-11744,7.20049049662784,318,26.1585365853659,-429,-19.390243902439,52,-3.17073170731707,-8,0.0347826086956522,-49,-0.21304347826087,144,-0.702439024390244,
11184554,5566.40625,-1936,1.18700183936235,1120,0.686695278969957,-11888,7.28877988963826,268,19.7560975609756,-324,-16.3414634146341,71,-4.32926829268293,-10,0.0434782608695652,-46,-0.2,146,-0.712195121951219,
11185194,5585.9375,-1808,1.10852237890864,1360,0.833844267320662,-12352,7.57326793378295,259,13.780487804878,-226,-15.7926829268293,80,-4.87804878048781,-6,0.0260869565217391,-53,-0.230434782608696,145,-0.707317073170732,
11185834,5605.46875,-1744,1.06928264868179,1408,0.863274064990803,-12848,7.87737584304108,296,10.2439024390244,-168,-18.0487804878049,92,-5.60975609756098,-7,0.0304347826086957,-55,-0.239130434782609,145,-0.707317073170732,
11186474,5625,-1744,1.06928264868179,1520,0.931943592887799,-13280,8.14224402207235,347,7.5,-123,-21.1585365853659,99,-6.03658536585366,-5,0.0217391304347826,-50,-0.217391304347826,145,-0.707317073170732,
11187114,5644.53125,-1904,1.16738197424893,1520,0.931943592887799,-13872,8.50521152667075,383,4.63414634146342,-76,-23.3536585365854,100,-6.09756097560976,-4,0.0173913043478261,-50,-0.217391304347826,143,-0.697560975609756,
11187754,5664.0625,-2256,1.38320049049663,1440,0.88289393010423,-14176,8.69160024524831,340,3.04878048780488,-50,-20.7317073170732,90,-5.48780487804878,-6,0.0260869565217391,-50,-0.217391304347826,141,-0.68780487804878,
11188394,5683.59375,-2448,1.50091968117719,1392,0.853464132434089,-14544,8.91722869405273,207,1.82926829268293,-30,-12.6219512195122,67,-4.08536585365854,-3,0.0130434782608696,-50,-0.217391304347826,144,-0.702439024390244,
11189034,5703.125,-2512,1.54015941140405,1408,0.863274064990803,-14720,9.02513795217658,70,1.15853658536585,-19,-4.26829268292683,47,-2.86585365853659,-4,0.0173913043478261,-52,-0.226086956521739,144,-0.702439024390244,
11189674,5722.65625,-2224,1.3635806253832,1504,0.922133660331085,-14880,9.12323727774372,-42,0,0,2.5609756097561,26,-1.58536585365854,-3,0.0130434782608696,-52,-0.226086956521739,142,-0.692682926829268,
11190314,5742.1875,-1856,1.13795217657879,1440,0.88289393010423,-15248,9.34886572654813,-59,-1.21951219512195,20,3.59756097560976,22,-1.34146341463415,-5,0.0217391304347826,-47,-0.204347826086957,141,-0.68780487804878,
11190954,5761.71875,-1744,1.06928264868179,1312,0.804414469650521,-15552,9.53525444512569,-1,-2.37804878048781,39,0.0609756097560976,31,-1.89024390243902,-5,0.0217391304347826,-49,-0.21304347826087,142,-0.692682926829268,
11191594,5781.25,-1760,1.0790925812385,1200,0.735744941753525,-15888,9.74126302881668,55,-2.92682926829268,48,-3.35365853658537,37,-2.25609756097561,-4,0.0173913043478261,-49,-0.21304347826087,142,-0.692682926829268,
11192234,5800.78125,-1808,1.10852237890864,1008,0.618025751072961,-16064,9.84917228694053,98,-2.74390243902439,45,-5.97560975609756,40,-2.4390243902439,-2,0.00869565217391304,-48,-0.208695652173913,141,-0.68780487804878,
11192874,5820.3125,-2032,1.24586143470264,912,0.559166155732679,-16208,9.93746167995095,116,-1.34146341463415,22,-7.07317073170732,33,-2.01219512195122,-4,0.0173913043478261,-48,-0.208695652173913,141,-0.68780487804878,
11193514,5839.84375,-2160,1.32434089515635,960,0.58859595340282,-16368,10.0355610055181,71,0.0609756097560976,-1,-4.32926829268293,4,-0.24390243902439,-4,0.0173913043478261,-50,-0.217391304347826,142,-0.692682926829268,
11194154,5859.375,-2208,1.35377069282649,912,0.559166155732679,-16480,10.1042305334151,39,1.89024390243902,-31,-2.37804878048781,-17,1.03658536585366,-5,0.0217391304347826,-50,-0.217391304347826,142,-0.692682926829268,
11194794,5878.90625,-2256,1.38320049049663,1040,0.637645616186389,-16480,10.1042305334151,20,3.29268292682927,-54,-1.21951219512195,-32,1.95121951219512,-4,0.0173913043478261,-54,-0.234782608695652,144,-0.702439024390244,
11195434,5898.4375,-2080,1.27529123237278,1120,0.686695278969957,-16560,10.1532801961987,29,3.78048780487805,-62,-1.76829268292683,-50,3.04878048780488,-4,0.0173913043478261,-52,-0.226086956521739,141,-0.68780487804878,
11196074,5917.96875,-2000,1.22624156958921,1232,0.755364806866953,-16432,10.0748007357449,97,4.32926829268293,-71,-5.91463414634146,-54,3.29268292682927,-4,0.0173913043478261,-48,-0.208695652173913,142,-0.692682926829268,
11196714,5937.5,-2160,1.32434089515635,1296,0.794604537093807,-16272,9.9767014101778,164,4.81707317073171,-79,-10,-53,3.23170731707317,-5,0.0217391304347826,-48,-0.208695652173913,142,-0.692682926829268,
11197354,5957.03125,-2384,1.46167995095034,1504,0.922133660331085,-16192,9.92765174739424,192,5,-82,-11.7073170731707,-59,3.59756097560976,-2,0.00869565217391304,-49,-0.21304347826087,141,-0.68780487804878,
11197994,5976.5625,-2400,1.47148988350705,1664,1.02023298589822,-15984,9.80012262415696,170,4.75609756097561,-78,-10.3658536585366,-65,3.96341463414634,-3,0.0130434782608696,-49,-0.21304347826087,141,-0.68780487804878,
11198634,5996.09375,-2464,1.51072961373391,1824,1.11833231146536,-15968,9.79031269160024,183,3.84146341463415,-63,-11.1585365853659,-59,3.59756097560976,-3,0.0130434782608696,-49,-0.21304347826087,140,-0.682926829268293,
11199274,6015.625,-2384,1.46167995095034,1872,1.1477621091355,-15936,9.77069282648682,194,2.86585365853659,-47,-11.8292682926829,-50,3.04878048780488,-2,0.00869565217391304,-49,-0.21304347826087,139,-0.678048780487805,
11199914,6035.15625,-2320,1.42244022072348,1792,1.09871244635193,-15872,9.73145309625996,198,1.76829268292683,-29,-12.0731707317073,-37,2.25609756097561,-2,0.00869565217391304,-51,-0.221739130434783,142,-0.692682926829268,
11200554,6054.6875,-2464,1.51072961373391,1632,1.00061312078479,-15968,9.79031269160024,216,1.34146341463415,-22,-13.1707317073171,-19,1.15853658536585,-1,0.00434782608695652,-49,-0.21304347826087,140,-0.682926829268293,
11201194,6074.21875,-2480,1.52053954629062,1312,0.804414469650521,-15968,9.79031269160024,202,1.70731707317073,-28,-12.3170731707317,-16,0.975609756097561,-1,0.00434782608695652,-46,-0.2,139,-0.678048780487805,
11201834,6093.75,-2544,1.55977927651747,1152,0.706315144083384,-15856,9.72164316370325,151,2.98780487804878,-49,-9.20731707317073,-29,1.76829268292683,0,0,-53,-0.230434782608696,140,-0.682926829268293,
11202474,6113.28125,-2608,1.59901900674433,1056,0.647455548743102,-15808,9.69221336603311,105,4.39024390243902,-72,-6.40243902439024,-48,2.92682926829268,-2,0.00869565217391304,-48,-0.208695652173913,138,-0.673170731707317,
11203114,6132.8125,-2592,1.58920907418761,976,0.598405885959534,-15792,9.6824034334764,67,5.42682926829268,-89,-4.08536585365854,-69,4.20731707317073,0,0,-51,-0.221739130434783,137,-0.668292682926829,
11203754,6152.34375,-2672,1.63825873697118,976,0.598405885959534,-15760,9.66278356836297,56,6.34146341463415,-104,-3.41463414634146,-83,5.0609756097561,0,0,-52,-0.226086956521739,139,-0.678048780487805,
11204394,6171.875,-2784,1.70692826486818,1104,0.676885346413243,-15664,9.60392397302268,45,7.25609756097561,-119,-2.74390243902439,-102,6.21951219512195,0,0,-48,-0.208695652173913,138,-0.673170731707317,
11205034,6191.40625,-2928,1.7952176578786,1264,0.77498467198038,-15536,9.52544451256898,26,7.68292682926829,-126,-1.58536585365854,-123,7.5,0,0,-48,-0.208695652173913,138,-0.673170731707317,
11205674,6210.9375,-2832,1.73635806253832,1408,0.863274064990803,-15504,9.50582464745555,31,6.89024390243902,-113,-1.89024390243902,-139,8.47560975609756,2,-0.00869565217391304,-51,-0.221739130434783,140,-0.682926829268293,
11206314,6230.46875,-2976,1.82464745554874,1488,0.912323727774372,-15568,9.5450643776824,85,6.64634146341464,-109,-5.18292682926829,-137,8.35365853658537,1,-0.00434782608695652,-53,-0.230434782608696,139,-0.678048780487805,
11206954,6250,-3184,1.95217657878602,1728,1.05947271612508,-15488,9.49601471489883,108,6.21951219512195,-102,-6.58536585365854,-126,7.68292682926829,2,-0.00869565217391304,-54,-0.234782608695652,139,-0.678048780487805,
11207594,6269.53125,-3264,2.00122624156959,1680,1.03004291845494,-15520,9.51563458001226,128,4.81707317073171,-79,-7.80487804878049,-110,6.70731707317073,1,-0.00434782608695652,-52,-0.226086956521739,137,-0.668292682926829,
11208234,6289.0625,-3408,2.08951563458001,1680,1.03004291845494,-15568,9.5450643776824,139,3.29268292682927,-54,-8.47560975609756,-77,4.69512195121951,3,-0.0130434782608696,-53,-0.230434782608696,138,-0.673170731707317,
11208874,6308.59375,-3504,2.14837522992029,1776,1.08890251379522,-15488,9.49601471489883,120,2.25609756097561,-37,-7.31707317073171,-41,2.5,2,-0.00869565217391304,-47,-0.204347826086957,139,-0.678048780487805,
11209514,6328.125,-3504,2.14837522992029,1664,1.02023298589822,-15456,9.47639484978541,66,0.853658536585366,-14,-4.02439024390244,-11,0.670731707317073,2,-0.00869565217391304,-48,-0.208695652173913,137,-0.668292682926829,
11210154,6347.65625,-3440,2.10913549969344,1536,0.941753525444513,-15632,9.58430410790926,17,-0.0609756097560976,1,-1.03658536585366,13,-0.792682926829268,1,-0.00434782608695652,-47,-0.204347826086957,137,-0.668292682926829,
11210794,6367.1875,-3248,1.99141630901288,1440,0.88289393010423,-15664,9.60392397302268,-6,-0.0609756097560976,1,0.365853658536585,31,-1.89024390243902,2,-0.00869565217391304,-49,-0.21304347826087,139,-0.678048780487805,
11211434,6386.71875,-3200,1.96198651134273,1328,0.814224402207235,-15696,9.62354383813611,-6,-0.0609756097560976,1,0.365853658536585,49,-2.98780487804878,1,-0.00434782608695652,-48,-0.208695652173913,138,-0.673170731707317,
11212074,6406.25,-3200,1.96198651134273,1296,0.794604537093807,-15792,9.6824034334764,-5,0.182926829268293,-3,0.304878048780488,48,-2.92682926829268,1,-0.00434782608695652,-49,-0.21304347826087,138,-0.673170731707317,
11212714,6425.78125,-2992,1.83445738810546,1280,0.784794604537094,-15840,9.71183323114654,-43,0.0609756097560976,-1,2.6219512195122,36,-2.19512195121951,2,-0.00869565217391304,-47,-0.204347826086957,138,-0.673170731707317,
11213354,6445.3125,-2928,1.7952176578786,1328,0.814224402207235,-15872,9.73145309625996,-22,0.304878048780488,-5,1.34146341463415,24,-1.46341463414634,2,-0.00869565217391304,-51,-0.221739130434783,138,-0.673170731707317,
11213994,6464.84375,-2880,1.76578786020846,1360,0.833844267320662,-15888,9.74126302881668,4,0.609756097560976,-10,-0.24390243902439,14,-0.853658536585366,2,-0.00869565217391304,-51,-0.221739130434783,137,-0.668292682926829,
11214634,6484.375,-2912,1.78540772532189,1264,0.77498467198038,-15872,9.73145309625996,35,0.365853658536585,-6,-2.13414634146341,2,-0.121951219512195,1,-0.00434782608695652,-50,-0.217391304347826,138,-0.673170731707317,
11215274,6503.90625,-2976,1.82464745554874,1280,0.784794604537094,-15920,9.7608828939301,54,0.731707317073171,-12,-3.29268292682927,1,-0.0609756097560976,3,-0.0130434782608696,-53,-0.230434782608696,139,-0.678048780487805,
11215914,6523.4375,-3104,1.90312691600245,1264,0.77498467198038,-15936,9.77069282648682,43,1.03658536585366,-17,-2.6219512195122,4,-0.24390243902439,0,0,-47,-0.204347826086957,137,-0.668292682926829,
11216554,6542.96875,-3264,2.00122624156959,1296,0.794604537093807,-15952,9.78050275904353,19,0.914634146341463,-15,-1.15853658536585,5,-0.304878048780488,4,-0.0173913043478261,-50,-0.217391304347826,138,-0.673170731707317,
11217194,6562.5,-3200,1.96198651134273,1264,0.77498467198038,-15904,9.75107296137339,16,1.03658536585366,-17,-0.975609756097561,7,-0.426829268292683,2,-0.00869565217391304,-52,-0.226086956521739,139,-0.678048780487805,
11217834,6582.03125,-3232,1.98160637645616,1280,0.784794604537094,-15936,9.77069282648682,17,1.46341463414634,-24,-1.03658536585366,7,-0.426829268292683,1,-0.00434782608695652,-48,-0.208695652173913,136,-0.663414634146342,
11218474,6601.5625,-3136,1.92274678111588,1296,0.794604537093807,-15968,9.79031269160024,13,1.64634146341463,-27,-0.792682926829268,9,-0.548780487804878,-1,0.00434782608695652,-51,-0.221739130434783,138,-0.673170731707317,
11219114,6621.09375,-3216,1.97179644389945,1280,0.784794604537094,-15840,9.71183323114654,1,2.13414634146341,-35,-0.0609756097560976,7,-0.426829268292683,2,-0.00869565217391304,-48,-0.208695652173913,136,-0.663414634146342,
11219754,6640.625,-3200,1.96198651134273,1344,0.824034334763949,-15792,9.6824034334764,3,2.13414634146341,-35,-0.182926829268293,6,-0.365853658536585,1,-0.00434782608695652,-50,-0.217391304347826,138,-0.673170731707317,
11220394,6660.15625,-3184,1.95217657878602,1280,0.784794604537094,-15824,9.70202329858982,6,2.31707317073171,-38,-0.365853658536585,6,-0.365853658536585,2,-0.00869565217391304,-50,-0.217391304347826,139,-0.678048780487805,
11221034,6679.6875,-3152,1.93255671367259,1296,0.794604537093807,-15760,9.66278356836297,0,2.37804878048781,-39,0,2,-0.121951219512195,4,-0.0173913043478261,-53,-0.230434782608696,137,-0.668292682926829,
11221674,6699.21875,-3168,1.94236664622931,1280,0.784794604537094,-15808,9.69221336603311,4,2.31707317073171,-38,-0.24390243902439,-1,0.0609756097560976,1,-0.00434782608695652,-48,-0.208695652173913,136,-0.663414634146342,
11222314,6718.75,-3232,1.98160637645616,1232,0.755364806866953,-15824,9.70202329858982,14,2.6219512195122,-43,-0.853658536585366,0,0,1,-0.00434782608695652,-48,-0.208695652173913,136,-0.663414634146342,
11222954,6738.28125,-3168,1.94236664622931,1216,0.745554874310239,-15792,9.6824034334764,9,2.74390243902439,-45,-0.548780487804878,2,-0.121951219512195,1,-0.00434782608695652,-48,-0.208695652173913,137,-0.668292682926829,
11223594,6757.8125,-3248,1.99141630901288,1184,0.725935009196812,-15776,9.67259350091968,-10,2.74390243902439,-45,0.609756097560976,-1,0.0609756097560976,0,0,-45,-0.195652173913043,137,-0.668292682926829,
11224234,6777.34375,-3264,2.00122624156959,1200,0.735744941753525,-15776,9.67259350091968,-19,2.80487804878049,-46,1.15853658536585,-7,0.426829268292683,1,-0.00434782608695652,-45,-0.195652173913043,136,-0.663414634146342,
11224874,6796.875,-3136,1.92274678111588,1264,0.77498467198038,-15696,9.62354383813611,-10,2.68292682926829,-44,0.609756097560976,-4,0.24390243902439,0,0,-50,-0.217391304347826,137,-0.668292682926829,
11225514,6816.40625,-3072,1.88350705088903,1216,0.745554874310239,-15664,9.60392397302268,-9,2.86585365853659,-47,0.548780487804878,-7,0.426829268292683,3,-0.0130434782608696,-50,-0.217391304347826,138,-0.673170731707317,
11226154,6835.9375,-3072,1.88350705088903,1168,0.716125076640098,-15744,9.65297363580625,-3,2.5609756097561,-42,0.182926829268293,-8,0.487804878048781,3,-0.0130434782608696,-51,-0.221739130434783,137,-0.668292682926829,
11226794,6855.46875,-3184,1.95217657878602,1216,0.745554874310239,-15696,9.62354383813611,-7,3.04878048780488,-50,0.426829268292683,-13,0.792682926829268,2,-0.00869565217391304,-51,-0.221739130434783,137,-0.668292682926829,
11227434,6875,-3152,1.93255671367259,1152,0.706315144083384,-15760,9.66278356836297,-22,2.98780487804878,-49,1.34146341463415,-14,0.853658536585366,1,-0.00434782608695652,-47,-0.204347826086957,137,-0.668292682926829,
11228074,6894.53125,-3168,1.94236664622931,1248,0.765174739423666,-15712,9.63335377069283,-25,3.23170731707317,-53,1.52439024390244,-19,1.15853658536585,3,-0.0130434782608696,-50,-0.217391304347826,137,-0.668292682926829,
11228714,6914.0625,-3168,1.94236664622931,1296,0.794604537093807,-15776,9.67259350091968,-35,2.98780487804878,-49,2.13414634146341,-16,0.975609756097561,1,-0.00434782608695652,-51,-0.221739130434783,138,-0.673170731707317,
11229354,6933.59375,-3184,1.95217657878602,1200,0.735744941753525,-15824,9.70202329858982,-23,3.17073170731707,-52,1.40243902439024,-14,0.853658536585366,2,-0.00869565217391304,-47,-0.204347826086957,137,-0.668292682926829,
11229994,6953.125,-3232,1.98160637645616,1152,0.706315144083384,-15824,9.70202329858982,-19,3.04878048780488,-50,1.15853658536585,-8,0.487804878048781,3,-0.0130434782608696,-50,-0.217391304347826,138,-0.673170731707317,
11230634,6972.65625,-3296,2.02084610668302,1136,0.696505211526671,-15776,9.67259350091968,-24,3.29268292682927,-54,1.46341463414634,-6,0.365853658536585,3,-0.0130434782608696,-46,-0.2,137,-0.668292682926829,
11231274,6992.1875,-3296,2.02084610668302,1200,0.735744941753525,-15824,9.70202329858982,-30,3.17073170731707,-52,1.82926829268293,-9,0.548780487804878,1,-0.00434782608695652,-53,-0.230434782608696,138,-0.673170731707317,
11231914,7011.71875,-3296,2.02084610668302,1264,0.77498467198038,-15872,9.73145309625996,-37,3.23170731707317,-53,2.25609756097561,-11,0.670731707317073,2,-0.00869565217391304,-50,-0.217391304347826,137,-0.668292682926829,
11232554,7031.25,-3216,1.97179644389945,1312,0.804414469650521,-15792,9.6824034334764,-33,3.23170731707317,-53,2.01219512195122,-8,0.487804878048781,0,0,-48,-0.208695652173913,137,-0.668292682926829,
11233194,7050.78125,-3136,1.92274678111588,1296,0.794604537093807,-15888,9.74126302881668,-17,3.23170731707317,-53,1.03658536585366,1,-0.0609756097560976,1,-0.00434782608695652,-48,-0.208695652173913,137,-0.668292682926829,
11233834,7070.3125,-3104,1.90312691600245,1232,0.755364806866953,-15920,9.7608828939301,0,3.10975609756098,-51,0,5,-0.304878048780488,-1,0.00434782608695652,-48,-0.208695652173913,138,-0.673170731707317,
11234474,7089.84375,-3136,1.92274678111588,1184,0.725935009196812,-15904,9.75107296137339,0,2.92682926829268,-48,0,6,-0.365853658536585,1,-0.00434782608695652,-46,-0.2,137,-0.668292682926829,
11235114,7109.375,-3184,1.95217657878602,1168,0.716125076640098,-15952,9.78050275904353,-6,3.29268292682927,-54,0.365853658536585,6,-0.365853658536585,0,0,-45,-0.195652173913043,137,-0.668292682926829,
11235754,7128.90625,-3168,1.94236664622931,1200,0.735744941753525,-15904,9.75107296137339,-25,3.71951219512195,-61,1.52439024390244,2,-0.121951219512195,2,-0.00869565217391304,-50,-0.217391304347826,137,-0.668292682926829,
11236394,7148.4375,-3056,1.87369711833231,1184,0.725935009196812,-15936,9.77069282648682,-34,3.78048780487805,-62,2.07317073170732,-2,0.121951219512195,1,-0.00434782608695652,-50,-0.217391304347826,138,-0.673170731707317,
11237034,7167.96875,-3040,1.8638871857756,1232,0.755364806866953,-15952,9.78050275904353,-17,3.96341463414634,-65,1.03658536585366,-4,0.24390243902439,2,-0.00869565217391304,-50,-0.217391304347826,137,-0.668292682926829,
11237674,7187.5,-3008,1.84426732066217,1216,0.745554874310239,-15904,9.75107296137339,0,4.02439024390244,-66,0,-8,0.487804878048781,2,-0.00869565217391304,-51,-0.221739130434783,138,-0.673170731707317,
11238314,7207.03125,-3040,1.8638871857756,1200,0.735744941753525,-15920,9.7608828939301,7,3.96341463414634,-65,-0.426829268292683,-11,0.670731707317073,0,0,-47,-0.204347826086957,136,-0.663414634146342,
11238954,7226.5625,-3136,1.92274678111588,1264,0.77498467198038,-15808,9.69221336603311,0,3.84146341463415,-63,0,-14,0.853658536585366,0,0,-49,-0.21304347826087,137,-0.668292682926829,
11239594,7246.09375,-3056,1.87369711833231,1344,0.824034334763949,-15824,9.70202329858982,-5,4.08536585365854,-67,0.304878048780488,-14,0.853658536585366,0,0,-47,-0.204347826086957,138,-0.673170731707317,
11240234,7265.625,-3072,1.88350705088903,1344,0.824034334763949,-15744,9.65297363580625,0,3.96341463414634,-65,0,-7,0.426829268292683,0,0,-49,-0.21304347826087,137,-0.668292682926829,
11240874,7285.15625,-3072,1.88350705088903,1296,0.794604537093807,-15744,9.65297363580625,-1,3.96341463414634,-65,0.0609756097560976,-5,0.304878048780488,1,-0.00434782608695652,-53,-0.230434782608696,140,-0.682926829268293,
11241514,7304.6875,-2992,1.83445738810546,1392,0.853464132434089,-15760,9.66278356836297,-2,3.53658536585366,-58,0.121951219512195,-4,0.24390243902439,-1,0.00434782608695652,-46,-0.2,137,-0.668292682926829,
11242154,7324.21875,-2992,1.83445738810546,1392,0.853464132434089,-15584,9.55487431023912,-3,3.35365853658537,-55,0.182926829268293,-5,0.304878048780488,1,-0.00434782608695652,-51,-0.221739130434783,138,-0.673170731707317,
11242794,7343.75,-2928,1.7952176578786,1360,0.833844267320662,-15632,9.58430410790926,-7,3.47560975609756,-57,0.426829268292683,-9,0.548780487804878,1,-0.00434782608695652,-50,-0.217391304347826,136,-0.663414634146342,
11243434,7363.28125,-2928,1.7952176578786,1280,0.784794604537094,-15664,9.60392397302268,-8,3.23170731707317,-53,0.487804878048781,-15,0.914634146341463,-1,0.00434782608695652,-49,-0.21304347826087,138,-0.673170731707317,
11244074,7382.8125,-2928,1.7952176578786,1312,0.804414469650521,-15760,9.66278356836297,11,3.41463414634146,-56,-0.670731707317073,-16,0.975609756097561,-1,0.00434782608695652,-47,-0.204347826086957,138,-0.673170731707317,
11244714,7402.34375,-2928,1.7952176578786,1328,0.814224402207235,-15776,9.67259350091968,15,3.17073170731707,-52,-0.914634146341463,-22,1.34146341463415,1,-0.00434782608695652,-48,-0.208695652173913,138,-0.673170731707317,
11245354,7421.875,-2960,1.81483752299203,1248,0.765174739423666,-15744,9.65297363580625,8,3.17073170731707,-52,-0.487804878048781,-20,1.21951219512195,1,-0.00434782608695652,-49,-0.21304347826087,139,-0.678048780487805,
11245994,7441.40625,-2976,1.82464745554874,1280,0.784794604537094,-15824,9.70202329858982,-8,3.17073170731707,-52,0.487804878048781,-28,1.70731707317073,1,-0.00434782608695652,-48,-0.208695652173913,138,-0.673170731707317,
11246634,7460.9375,-2960,1.81483752299203,1264,0.77498467198038,-15808,9.69221336603311,-15,3.17073170731707,-52,0.914634146341463,-33,2.01219512195122,0,0,-48,-0.208695652173913,139,-0.678048780487805,
11247274,7480.46875,-2928,1.7952176578786,1216,0.745554874310239,-15808,9.69221336603311,-2,3.41463414634146,-56,0.121951219512195,-35,2.13414634146341,1,-0.00434782608695652,-49,-0.21304347826087,139,-0.678048780487805,
11247914,7500,-2944,1.80502759043532,1168,0.716125076640098,-15808,9.69221336603311,14,3.41463414634146,-56,-0.853658536585366,-34,2.07317073170732,-1,0.00434782608695652,-51,-0.221739130434783,137,-0.668292682926829,
11248554,7519.53125,-3040,1.8638871857756,1184,0.725935009196812,-15856,9.72164316370325,16,3.53658536585366,-58,-0.975609756097561,-37,2.25609756097561,1,-0.00434782608695652,-46,-0.2,136,-0.663414634146342,
11249194,7539.0625,-3136,1.92274678111588,1200,0.735744941753525,-15760,9.66278356836297,7,3.41463414634146,-56,-0.426829268292683,-38,2.31707317073171,0,0,-48,-0.208695652173913,139,-0.678048780487805,
11249834,7558.59375,-3216,1.97179644389945,1152,0.706315144083384,-15760,9.66278356836297,-4,3.53658536585366,-58,0.24390243902439,-40,2.4390243902439,3,-0.0130434782608696,-49,-0.21304347826087,138,-0.673170731707317,
11250474,7578.125,-3184,1.95217657878602,1184,0.725935009196812,-15824,9.70202329858982,-12,3.53658536585366,-58,0.731707317073171,-38,2.31707317073171,3,-0.0130434782608696,-49,-0.21304347826087,138,-0.673170731707317,
11251114,7597.65625,-3168,1.94236664622931,1232,0.755364806866953,-15792,9.6824034334764,6,3.59756097560976,-59,-0.365853658536585,-37,2.25609756097561,2,-0.00869565217391304,-51,-0.221739130434783,137,-0.668292682926829,
11251754,7617.1875,-3168,1.94236664622931,1344,0.824034334763949,-15696,9.62354383813611,16,3.17073170731707,-52,-0.975609756097561,-26,1.58536585365854,1,-0.00434782608695652,-52,-0.226086956521739,138,-0.673170731707317,
11252394,7636.71875,-3216,1.97179644389945,1344,0.824034334763949,-15808,9.69221336603311,9,3.17073170731707,-52,-0.548780487804878,-16,0.975609756097561,0,0,-49,-0.21304347826087,137,-0.668292682926829,
11253034,7656.25,-3232,1.98160637645616,1280,0.784794604537094,-15712,9.63335377069283,11,2.92682926829268,-48,-0.670731707317073,-12,0.731707317073171,-1,0.00434782608695652,-46,-0.2,138,-0.673170731707317,
11253674,7675.78125,-3136,1.92274678111588,1296,0.794604537093807,-15776,9.67259350091968,-5,3.04878048780488,-50,0.304878048780488,-10,0.609756097560976,2,-0.00869565217391304,-49,-0.21304347826087,137,-0.668292682926829,
11254314,7695.3125,-3120,1.91293684855917,1296,0.794604537093807,-15856,9.72164316370325,-5,3.10975609756098,-51,0.304878048780488,-8,0.487804878048781,0,0,-51,-0.221739130434783,138,-0.673170731707317,
11254954,7714.84375,-3120,1.91293684855917,1312,0.804414469650521,-15888,9.74126302881668,4,3.23170731707317,-53,-0.24390243902439,-5,0.304878048780488,3,-0.0130434782608696,-51,-0.221739130434783,137,-0.668292682926829,
11255594,7734.375,-3168,1.94236664622931,1248,0.765174739423666,-15888,9.74126302881668,6,3.10975609756098,-51,-0.365853658536585,2,-0.121951219512195,2,-0.00869565217391304,-47,-0.204347826086957,139,-0.678048780487805,
11256234,7753.90625,-3120,1.91293684855917,1280,0.784794604537094,-15904,9.75107296137339,-1,3.04878048780488,-50,0.0609756097560976,2,-0.121951219512195,0,0,-49,-0.21304347826087,137,-0.668292682926829,
11256874,7773.4375,-3136,1.92274678111588,1328,0.814224402207235,-15824,9.70202329858982,-1,2.98780487804878,-49,0.0609756097560976,4,-0.24390243902439,2,-0.00869565217391304,-49,-0.21304347826087,139,-0.678048780487805,
11257514,7792.96875,-3088,1.89331698344574,1312,0.804414469650521,-15792,9.6824034334764,-5,3.23170731707317,-53,0.304878048780488,3,-0.182926829268293,0,0,-47,-0.204347826086957,137,-0.668292682926829,
11258154,7812.5,-3072,1.88350705088903,1280,0.784794604537094,-15760,9.66278356836297,-6,3.53658536585366,-58,0.365853658536585,-1,0.0609756097560976,2,-0.00869565217391304,-48,-0.208695652173913,137,-0.668292682926829,
11258794,7832.03125,-3072,1.88350705088903,1296,0.794604537093807,-15776,9.67259350091968,-10,3.47560975609756,-57,0.609756097560976,-3,0.182926829268293,2,-0.00869565217391304,-50,-0.217391304347826,138,-0.673170731707317,
11259434,7851.5625,-3104,1.90312691600245,1312,0.804414469650521,-15760,9.66278356836297,-2,3.41463414634146,-56,0.121951219512195,-3,0.182926829268293,-1,0.00434782608695652,-46,-0.2,138,-0.673170731707317,
11260074,7871.09375,-3024,1.85407725321888,1328,0.814224402207235,-15696,9.62354383813611,12,2.98780487804878,-49,-0.731707317073171,-2,0.121951219512195,1,-0.00434782608695652,-48,-0.208695652173913,137,-0.668292682926829,
11260714,7890.625,-3040,1.8638871857756,1248,0.765174739423666,-15808,9.69221336603311,19,2.92682926829268,-48,-1.15853658536585,0,0,2,-0.00869565217391304,-53,-0.230434782608696,139,-0.678048780487805,
11261354,7910.15625,-3056,1.87369711833231,1184,0.725935009196812,-15744,9.65297363580625,8,3.04878048780488,-50,-0.487804878048781,-2,0.121951219512195,-1,0.00434782608695652,-48,-0.208695652173913,138,-0.673170731707317,
11261994,7929.6875,-3040,1.8638871857756,1264,0.77498467198038,-15728,9.64316370324954,3,2.86585365853659,-47,-0.182926829268293,-3,0.182926829268293,0,0,-49,-0.21304347826087,137,-0.668292682926829,
11262634,7949.21875,-3072,1.88350705088903,1248,0.765174739423666,-15760,9.66278356836297,0,2.80487804878049,-46,0,-5,0.304878048780488,2,-0.00869565217391304,-51,-0.221739130434783,138,-0.673170731707317,
11263274,7968.75,-3056,1.87369711833231,1264,0.77498467198038,-15760,9.66278356836297,3,2.74390243902439,-45,-0.182926829268293,-4,0.24390243902439,3,-0.0130434782608696,-53,-0.230434782608696,138,-0.673170731707317,
11263914,7988.28125,-3088,1.89331698344574,1296,0.794604537093807,-15776,9.67259350091968,21,2.4390243902439,-40,-1.28048780487805,-5,0.304878048780488,1,-0.00434782608695652,-52,-0.226086956521739,138,-0.673170731707317,
11264554,8007.8125,-3136,1.92274678111588,1360,0.833844267320662,-15776,9.67259350091968,26,2.19512195121951,-36,-1.58536585365854,-5,0.304878048780488,2,-0.00869565217391304,-50,-0.217391304347826,138,-0.673170731707317,
11265194,8027.34375,-3120,1.91293684855917,1312,0.804414469650521,-15808,9.69221336603311,22,2.13414634146341,-35,-1.34146341463415,-7,0.426829268292683,2,-0.00869565217391304,-50,-0.217391304347826,139,-0.678048780487805,
11265834,8046.875,-3168,1.94236664622931,1280,0.784794604537094,-15824,9.70202329858982,15,2.4390243902439,-40,-0.914634146341463,-3,0.182926829268293,1,-0.00434782608695652,-50,-0.217391304347826,137,-0.668292682926829,
11266474,8066.40625,-3120,1.91293684855917,1296,0.794604537093807,-15840,9.71183323114654,11,2.92682926829268,-48,-0.670731707317073,2,-0.121951219512195,0,0,-48,-0.208695652173913,138,-0.673170731707317,
11267114,8085.9375,-3168,1.94236664622931,1296,0.794604537093807,-15920,9.7608828939301,15,3.04878048780488,-50,-0.914634146341463,2,-0.121951219512195,2,-0.00869565217391304,-50,-0.217391304347826,138,-0.673170731707317,
11267754,8105.46875,-3168,1.94236664622931,1296,0.794604537093807,-15872,9.73145309625996,-1,3.10975609756098,-51,0.0609756097560976,2,-0.121951219512195,1,-0.00434782608695652,-51,-0.221739130434783,138,-0.673170731707317,
11268394,8125,-3040,1.8638871857756,1296,0.794604537093807,-15824,9.70202329858982,-5,2.98780487804878,-49,0.304878048780488,-1,0.0609756097560976,1,-0.00434782608695652,-51,-0.221739130434783,139,-0.678048780487805,
11269034,8144.53125,-2976,1.82464745554874,1264,0.77498467198038,-15856,9.72164316370325,4,3.10975609756098,-51,-0.24390243902439,0,0,1,-0.00434782608695652,-48,-0.208695652173913,139,-0.678048780487805,
11269674,8164.0625,-2944,1.80502759043532,1264,0.77498467198038,-15776,9.67259350091968,6,3.17073170731707,-52,-0.365853658536585,-7,0.426829268292683,1,-0.00434782608695652,-48,-0.208695652173913,137,-0.668292682926829,
11270314,8183.59375,-3024,1.85407725321888,1280,0.784794604537094,-15792,9.6824034334764,6,3.47560975609756,-57,-0.365853658536585,-12,0.731707317073171,0,0,-50,-0.217391304347826,137,-0.668292682926829,
11270954,8203.125,-3008,1.84426732066217,1264,0.77498467198038,-15856,9.72164316370325,2,3.47560975609756,-57,-0.121951219512195,-14,0.853658536585366,3,-0.0130434782608696,-47,-0.204347826086957,139,-0.678048780487805,
11271594,8222.65625,-3088,1.89331698344574,1232,0.755364806866953,-15712,9.63335377069283,5,3.29268292682927,-54,-0.304878048780488,-11,0.670731707317073,2,-0.00869565217391304,-48,-0.208695652173913,136,-0.663414634146342,
11272234,8242.1875,-3088,1.89331698344574,1312,0.804414469650521,-15712,9.63335377069283,3,3.23170731707317,-53,-0.182926829268293,-19,1.15853658536585,3,-0.0130434782608696,-53,-0.230434782608696,138,-0.673170731707317,
11272874,8261.71875,-3072,1.88350705088903,1264,0.77498467198038,-15744,9.65297363580625,10,3.29268292682927,-54,-0.609756097560976,-22,1.34146341463415,-1,0.00434782608695652,-46,-0.2,138,-0.673170731707317,
11273514,8281.25,-3168,1.94236664622931,1280,0.784794604537094,-15760,9.66278356836297,7,3.04878048780488,-50,-0.426829268292683,-25,1.52439024390244,2,-0.00869565217391304,-49,-0.21304347826087,139,-0.678048780487805,
11274154,8300.78125,-3120,1.91293684855917,1280,0.784794604537094,-15728,9.64316370324954,4,3.35365853658537,-55,-0.24390243902439,-27,1.64634146341463,2,-0.00869565217391304,-47,-0.204347826086957,136,-0.663414634146342,
11274794,8320.3125,-3152,1.93255671367259,1296,0.794604537093807,-15728,9.64316370324954,0,2.86585365853659,-47,0,-29,1.76829268292683,2,-0.00869565217391304,-50,-0.217391304347826,137,-0.668292682926829,
11275434,8339.84375,-3168,1.94236664622931,1296,0.794604537093807,-15744,9.65297363580625,11,2.5609756097561,-42,-0.670731707317073,-28,1.70731707317073,0,0,-46,-0.2,137,-0.668292682926829,
11276074,8359.375,-3200,1.96198651134273,1296,0.794604537093807,-15696,9.62354383813611,22,2.5,-41,-1.34146341463415,-26,1.58536585365854,2,-0.00869565217391304,-48,-0.208695652173913,137,-0.668292682926829,
11364394,11054.6875,-1840,1.12814224402207,-432,-0.264868179031269,-16864,10.3396689147762,-525,-1.34146341463415,22,32.0121951219512,-14,0.853658536585366,3,-0.0130434782608696,-45,-0.195652173913043,137,-0.668292682926829,
11365034,11074.21875,-3632,2.226854690374,-96,-0.058859595340282,-17568,10.7713059472716,90,-0.609756097560976,10,-5.48780487804878,92,-5.60975609756098,3,-0.0130434782608696,-45,-0.195652173913043,139,-0.678048780487805,
11365674,11093.75,-3872,2.37400367872471,128,0.0784794604537094,-17792,10.9086450030656,16,2.5,-41,-0.975609756097561,59,-3.59756097560976,3,-0.0130434782608696,-49,-0.21304347826087,138,-0.673170731707317,
11366314,11113.28125,-3808,2.33476394849785,192,0.117719190680564,-17568,10.7713059472716,-85,5.54878048780488,-91,5.18292682926829,35,-2.13414634146341,-1,0.00434782608695652,-41,-0.178260869565217,137,-0.668292682926829,
11366954,11132.8125,-3568,2.18761496014715,208,0.127529123237278,-17152,10.5162477007971,-194,6.64634146341464,-109,11.8292682926829,15,-0.914634146341463,-1,0.00434782608695652,-44,-0.191304347826087,137,-0.668292682926829,
11367594,11152.34375,-2720,1.66768853464132,192,0.117719190680564,-16672,10.2219497240956,-259,7.92682926829268,-130,15.7926829268293,-4,0.24390243902439,-2,0.00869565217391304,-42,-0.182608695652174,137,-0.668292682926829,
11368234,11171.875,-2560,1.56958920907419,384,0.235438381361128,-16288,9.98651134273452,-112,9.45121951219512,-155,6.82926829268293,-12,0.731707317073171,-2,0.00869565217391304,-39,-0.169565217391304,136,-0.663414634146342,
11368874,11191.40625,-2816,1.72654812998161,512,0.313917841814838,-15952,9.78050275904353,40,9.9390243902439,-163,-2.4390243902439,-16,0.975609756097561,0,0,-40,-0.173913043478261,136,-0.663414634146342,
11369514,11210.9375,-3136,1.92274678111588,624,0.382587369711833,-15824,9.70202329858982,72,9.87804878048781,-162,-4.39024390243902,-14,0.853658536585366,-2,0.00869565217391304,-42,-0.182608695652174,137,-0.668292682926829,
11370154,11230.46875,-3104,1.90312691600245,512,0.313917841814838,-15584,9.55487431023912,27,9.02439024390244,-148,-1.64634146341463,-16,0.975609756097561,2,-0.00869565217391304,-46,-0.2,137,-0.668292682926829,
11370794,11250,-2976,1.82464745554874,672,0.412017167381974,-15296,9.37829552421827,-11,8.41463414634146,-138,0.670731707317073,-13,0.792682926829268,-1,0.00434782608695652,-42,-0.182608695652174,137,-0.668292682926829,
11371434,11269.53125,-2880,1.76578786020846,752,0.461066830165543,-15152,9.29000613120785,-8,7.68292682926829,-126,0.487804878048781,-8,0.487804878048781,0,0,-48,-0.208695652173913,140,-0.682926829268293,
11372074,11289.0625,-2880,1.76578786020846,848,0.519926425505825,-15120,9.27038626609442,0,6.76829268292683,-111,0,1,-0.0609756097560976,1,-0.00434782608695652,-47,-0.204347826086957,139,-0.678048780487805,
11372714,11308.59375,-2928,1.7952176578786,848,0.519926425505825,-15280,9.36848559166156,3,5.79268292682927,-95,-0.182926829268293,6,-0.365853658536585,-3,0.0130434782608696,-44,-0.191304347826087,137,-0.668292682926829,
11373354,11328.125,-2816,1.72654812998161,832,0.510116492949111,-15264,9.35867565910484,-1,4.69512195121951,-77,0.0609756097560976,8,-0.487804878048781,-2,0.00869565217391304,-45,-0.195652173913043,137,-0.668292682926829,
11373994,11347.65625,-2848,1.74616799509503,784,0.48068669527897,-15312,9.38810545677498,9,3.78048780487805,-62,-0.548780487804878,11,-0.670731707317073,-1,0.00434782608695652,-43,-0.18695652173913,137,-0.668292682926829,
11374634,11367.1875,-2896,1.77559779276517,816,0.500306560392397,-15360,9.41753525444513,19,3.10975609756098,-51,-1.15853658536585,8,-0.487804878048781,-2,0.00869565217391304,-44,-0.191304347826087,137,-0.668292682926829,
11375274,11386.71875,-2880,1.76578786020846,816,0.500306560392397,-15552,9.53525444512569,16,2.5609756097561,-42,-0.975609756097561,2,-0.121951219512195,0,0,-41,-0.178260869565217,137,-0.668292682926829,
11375914,11406.25,-2912,1.78540772532189,768,0.470876762722256,-15696,9.62354383813611,17,2.19512195121951,-36,-1.03658536585366,-2,0.121951219512195,0,0,-41,-0.178260869565217,137,-0.668292682926829,
11376554,11425.78125,-2944,1.80502759043532,800,0.490496627835684,-15856,9.72164316370325,30,2.07317073170732,-34,-1.82926829268293,-3,0.182926829268293,3,-0.0130434782608696,-46,-0.2,138,-0.673170731707317,
11377194,11445.3125,-13600,8.33844267320662,14608,8.95646842427958,-7808,4.78724708767627,-5126,-251.219512195122,4120,312.560975609756,2139,-130.426829268293,3,-0.0130434782608696,-49,-0.21304347826087,139,-0.678048780487805,
11377834,11464.84375,-4512,2.76640098099326,3888,2.38381361128142,-11376,6.97486204782342,1072,-21.3414634146341,350,-65.3658536585366,93,-5.67073170731707,3,-0.0130434782608696,-42,-0.182608695652174,137,-0.668292682926829,
11378474,11484.375,-8560,5.24831391784181,864,0.529736358062538,-15344,9.40772532188841,1366,14.5731707317073,-239,-83.2926829268293,56,-3.41463414634146,3,-0.0130434782608696,-42,-0.182608695652174,134,-0.653658536585366,
11379114,11503.90625,-6624,4.06131207847946,928,0.568976088289393,-15296,9.37829552421827,-417,-0.548780487804878,9,25.4268292682927,-137,8.35365853658537,1,-0.00434782608695652,-39,-0.169565217391304,132,-0.64390243902439,
11379754,11523.4375,-3824,2.34457388105457,400,0.245248313917842,-16048,9.83936235438381,-747,5.48780487804878,-90,45.5487804878049,-124,7.5609756097561,0,0,-38,-0.165217391304348,134,-0.653658536585366,
11380394,11542.96875,-2304,1.41263028816677,176,0.10790925812385,-16464,10.0944206008584,-507,8.04878048780488,-132,30.9146341463415,-90,5.48780487804878,1,-0.00434782608695652,-39,-0.169565217391304,135,-0.658536585365854,
11381034,11562.5,-3120,1.91293684855917,144,0.088289393010423,-16928,10.3789086450031,-78,1.58536585365854,-26,4.75609756097561,-9,0.548780487804878,0,0,-40,-0.173913043478261,136,-0.663414634146342,
11381674,11582.03125,-4112,2.52115266707541,400,0.245248313917842,-17168,10.5260576333538,66,4.57317073170732,-75,-4.02439024390244,32,-1.95121951219512,1,-0.00434782608695652,-38,-0.165217391304348,134,-0.653658536585366,
11382314,11601.5625,-4208,2.5800122624157,368,0.225628448804414,-17152,10.5162477007971,-51,6.21951219512195,-102,3.10975609756098,24,-1.46341463414634,0,0,-40,-0.173913043478261,135,-0.658536585365854,
11382954,11621.09375,-4016,2.46229307173513,336,0.206008583690987,-16784,10.2906192519926,-169,6.64634146341464,-109,10.3048780487805,9,-0.548780487804878,-1,0.00434782608695652,-41,-0.178260869565217,137,-0.668292682926829,
11383594,11640.625,-3264,2.00122624156959,304,0.18638871857756,-16336,10.0159411404047,-214,6.95121951219512,-114,13.0487804878049,9,-0.548780487804878,-2,0.00869565217391304,-39,-0.169565217391304,136,-0.663414634146342,
11384234,11660.15625,-2848,1.74616799509503,368,0.225628448804414,-15984,9.80012262415696,-94,7.4390243902439,-122,5.73170731707317,11,-0.670731707317073,-1,0.00434782608695652,-45,-0.195652173913043,138,-0.673170731707317,
11384874,11679.6875,-3104,1.90312691600245,512,0.313917841814838,-15696,9.62354383813611,47,7.5,-123,-2.86585365853659,8,-0.487804878048781,1,-0.00434782608695652,-48,-0.208695652173913,140,-0.682926829268293,
11385514,11699.21875,-3312,2.03065603923973,560,0.343347639484979,-15536,9.52544451256898,74,7.25609756097561,-119,-4.51219512195122,9,-0.548780487804878,3,-0.0130434782608696,-47,-0.204347826086957,138,-0.673170731707317,
11386154,11718.75,-3360,2.06008583690987,544,0.333537706928265,-15424,9.45677498467198,44,5.97560975609756,-98,-2.68292682926829,11,-0.670731707317073,1,-0.00434782608695652,-43,-0.18695652173913,135,-0.658536585365854,
11386794,11738.28125,-3264,2.00122624156959,576,0.353157572041692,-15216,9.3292458614347,12,5.18292682926829,-85,-0.731707317073171,15,-0.914634146341463,0,0,-44,-0.191304347826087,135,-0.658536585365854,
11387434,11757.8125,-3184,1.95217657878602,672,0.412017167381974,-15184,9.30962599632127,13,4.57317073170732,-75,-0.792682926829268,26,-1.58536585365854,-2,0.00869565217391304,-43,-0.18695652173913,135,-0.658536585365854,
11388074,11777.34375,-3184,1.95217657878602,640,0.392397302268547,-15296,9.37829552421827,24,4.08536585365854,-67,-1.46341463414634,31,-1.89024390243902,-1,0.00434782608695652,-45,-0.195652173913043,137,-0.668292682926829,
11388714,11796.875,-3216,1.97179644389945,720,0.441446965052115,-15376,9.42734518700184,21,3.35365853658537,-55,-1.28048780487805,37,-2.25609756097561,3,-0.0130434782608696,-46,-0.2,136,-0.663414634146342,
11389354,11816.40625,-3184,1.95217657878602,704,0.431637032495402,-15376,9.42734518700184,1,2.6219512195122,-43,-0.0609756097560976,35,-2.13414634146341,1,-0.00434782608695652,-41,-0.178260869565217,138,-0.673170731707317,
11389994,11835.9375,-3072,1.88350705088903,704,0.431637032495402,-15568,9.5450643776824,-9,2.19512195121951,-36,0.548780487804878,33,-2.01219512195122,-1,0.00434782608695652,-43,-0.18695652173913,136,-0.663414634146342,
11390634,11855.46875,-3072,1.88350705088903,608,0.37277743715512,-15632,9.58430410790926,10,1.89024390243902,-31,-0.609756097560976,33,-2.01219512195122,-1,0.00434782608695652,-40,-0.173913043478261,137,-0.668292682926829,
11391274,11875,-3104,1.90312691600245,560,0.343347639484979,-15792,9.6824034334764,21,1.89024390243902,-31,-1.28048780487805,33,-2.01219512195122,2,-0.00869565217391304,-50,-0.217391304347826,139,-0.678048780487805,
11391914,11894.53125,7680,-4.70876762722256,3280,2.0110361741263,-24208,14.8424279583078,5252,93.9024390243902,-1540,-320.243902439024,-1589,96.890243902439,2,-0.00869565217391304,-47,-0.204347826086957,138,-0.673170731707317,
11392554,11914.0625,2704,-1.65787860208461,5488,3.36480686695279,-10672,6.54322501532802,2304,-8.71951219512195,143,-140.487804878049,410,-25,2,-0.00869565217391304,-40,-0.173913043478261,134,-0.653658536585366,
11393194,11933.59375,-11392,6.98467198038013,1360,0.833844267320662,-14976,9.182096873084,201,2.92682926829268,-48,-12.2560975609756,-54,3.29268292682927,7,-0.0304347826086957,-47,-0.204347826086957,131,-0.639024390243902,
11393834,11953.125,-10144,6.21949724095647,-432,-0.264868179031269,-16080,9.85898221949724,-1254,8.84146341463415,-145,76.4634146341463,-194,11.8292682926829,5,-0.0217391304347826,-43,-0.18695652173913,132,-0.64390243902439,
11394474,11972.65625,-4944,3.03126916002452,368,0.225628448804414,-16240,9.95708154506438,-1244,7.5609756097561,-124,75.8536585365854,-159,9.69512195121951,4,-0.0173913043478261,-43,-0.18695652173913,134,-0.653658536585366,
11395114,11992.1875,-2304,1.41263028816677,432,0.264868179031269,-16688,10.2317596566524,-696,1.82926829268293,-30,42.4390243902439,-90,5.48780487804878,2,-0.00869565217391304,-39,-0.169565217391304,135,-0.658536585365854,
11395754,12011.71875,-1424,0.873083997547517,-432,-0.264868179031269,-16960,10.3985285101165,78,3.04878048780488,-50,-4.75609756097561,70,-4.26829268292683,0,0,-43,-0.18695652173913,135,-0.658536585365854,
11396394,12031.25,-3888,2.38381361128142,16,0.00980993255671367,-17600,10.790925812385,98,6.28048780487805,-103,-5.97560975609756,59,-3.59756097560976,1,-0.00434782608695652,-44,-0.191304347826087,136,-0.663414634146342,
11397034,12050.78125,-4416,2.70754138565297,240,0.147148988350705,-17648,10.8203556100552,-73,7.01219512195122,-115,4.45121951219512,29,-1.76829268292683,3,-0.0130434782608696,-43,-0.18695652173913,136,-0.663414634146342,
11397674,12070.3125,-4416,2.70754138565297,128,0.0784794604537094,-17328,10.6241569589209,-252,7.13414634146342,-117,15.3658536585366,9,-0.548780487804878,0,0,-43,-0.18695652173913,136,-0.663414634146342,
11398314,12089.84375,-3888,2.38381361128142,80,0.0490496627835684,-16832,10.3200490496628,-319,7.86585365853659,-129,19.4512195121951,3,-0.182926829268293,0,0,-43,-0.18695652173913,137,-0.668292682926829,
11398954,12109.375,-2944,1.80502759043532,112,0.0686695278969957,-16288,9.98651134273452,-134,8.78048780487805,-144,8.17073170731707,11,-0.670731707317073,-1,0.00434782608695652,-46,-0.2,139,-0.678048780487805,
11399594,12128.90625,-2704,1.65787860208461,208,0.127529123237278,-15888,9.74126302881668,50,9.26829268292683,-152,-3.04878048780488,7,-0.426829268292683,2,-0.00869565217391304,-44,-0.191304347826087,136,-0.663414634146342,
11400234,12148.4375,-3200,1.96198651134273,336,0.206008583690987,-15600,9.56468424279583,77,8.65853658536586,-142,-4.69512195121951,17,-1.03658536585366,0,0,-44,-0.191304347826087,137,-0.668292682926829,
11400874,12167.96875,-3504,2.14837522992029,320,0.196198651134273,-15408,9.44696505211527,-9,7.5,-123,0.548780487804878,20,-1.21951219512195,0,0,-49,-0.21304347826087,137,-0.668292682926829,
11401514,12187.5,-3456,2.11894543225015,416,0.255058246474555,-15312,9.38810545677498,-77,6.46341463414634,-106,4.69512195121951,18,-1.09756097560976,0,0,-44,-0.191304347826087,138,-0.673170731707317,
11402154,12207.03125,-3152,1.93255671367259,496,0.304107909258124,-15200,9.31943592887799,-62,5.36585365853659,-88,3.78048780487805,25,-1.52439024390244,0,0,-41,-0.178260869565217,136,-0.663414634146342,
11402794,12226.5625,-2928,1.7952176578786,624,0.382587369711833,-15088,9.25076640098099,-12,4.75609756097561,-78,0.731707317073171,39,-2.37804878048781,-4,0.0173913043478261,-40,-0.173913043478261,135,-0.658536585365854,
11403434,12246.09375,-2928,1.7952176578786,640,0.392397302268547,-15264,9.35867565910484,14,4.02439024390244,-66,-0.853658536585366,48,-2.92682926829268,-2,0.00869565217391304,-41,-0.178260869565217,137,-0.668292682926829,
11404074,12265.625,-3104,1.90312691600245,592,0.362967504598406,-15360,9.41753525444513,-8,3.29268292682927,-54,0.487804878048781,45,-2.74390243902439,-1,0.00434782608695652,-44,-0.191304347826087,137,-0.668292682926829,
11404714,12285.15625,-3040,1.8638871857756,592,0.362967504598406,-15472,9.48620478234212,-22,2.5609756097561,-42,1.34146341463415,37,-2.25609756097561,2,-0.00869565217391304,-50,-0.217391304347826,140,-0.682926829268293,
11405354,12304.6875,-2944,1.80502759043532,560,0.343347639484979,-15616,9.57449417535254,-5,2.07317073170732,-34,0.304878048780488,35,-2.13414634146341,0,0,-43,-0.18695652173913,135,-0.658536585365854,
11405994,12324.21875,-2864,1.75597792765175,512,0.313917841814838,-15712,9.63335377069283,11,2.13414634146341,-35,-0.670731707317073,39,-2.37804878048781,-2,0.00869565217391304,-42,-0.182608695652174,137,-0.668292682926829,
11406634,12343.75,-17424,10.6830165542612,-15600,-9.56468424279583,6544,-4.01226241569589,-2617,-88.109756097561,1445,159.573170731707,1261,-76.890243902439,-4,0.0173913043478261,-39,-0.169565217391304,139,-0.678048780487805,
11407274,12363.28125,-2512,1.54015941140405,2976,1.82464745554874,-2976,1.82464745554874,50,-94.390243902439,1548,-3.04878048780488,224,-13.6585365853659,-2,0.00869565217391304,-39,-0.169565217391304,135,-0.658536585365854,
11407914,12382.8125,-8384,5.14040465971796,272,0.166768853464132,-12736,7.80870631514408,1562,8.96341463414634,-147,-95.2439024390244,168,-10.2439024390244,2,-0.00869565217391304,-41,-0.178260869565217,133,-0.648780487804878,
11408554,12402.34375,-9104,5.58185162477008,96,0.058859595340282,-15648,9.59411404046597,-519,6.34146341463415,-104,31.6463414634146,-152,9.26829268292683,0,0,-39,-0.169565217391304,133,-0.648780487804878,
11409194,12421.875,-3936,2.41324340895156,-80,-0.0490496627835684,-16000,9.80993255671367,-762,9.69512195121951,-159,46.4634146341463,-123,7.5,-1,0.00434782608695652,-42,-0.182608695652174,134,-0.653658536585366,
11409834,12441.40625,-2416,1.48129981606376,800,0.490496627835684,-16640,10.2023298589822,-361,4.14634146341463,-68,22.0121951219512,-83,5.0609756097561,0,0,-42,-0.182608695652174,135,-0.658536585365854,
11410474,12460.9375,-2768,1.69711833231147,-560,-0.343347639484979,-16912,10.3690987124464,-256,-0.609756097560976,10,15.609756097561,3,-0.182926829268293,-1,0.00434782608695652,-41,-0.178260869565217,135,-0.658536585365854,
11411114,12480.46875,-3152,1.93255671367259,16,0.00980993255671367,-17248,10.5751072961373,2,2.92682926829268,-48,-0.121951219512195,37,-2.25609756097561,3,-0.0130434782608696,-48,-0.208695652173913,138,-0.673170731707317,
11411754,12500,-3856,2.364193746168,80,0.0490496627835684,-17472,10.7124463519313,-7,5.0609756097561,-83,0.426829268292683,26,-1.58536585365854,2,-0.00869565217391304,-43,-0.18695652173913,138,-0.673170731707317,
11412394,12519.53125,-4128,2.53096259963213,112,0.0686695278969957,-17280,10.5947271612508,-165,5.97560975609756,-98,10.0609756097561,3,-0.182926829268293,0,0,-40,-0.173913043478261,138,-0.673170731707317,
11413034,12539.0625,-3600,2.20723482526058,16,0.00980993255671367,-16912,10.3690987124464,-248,6.76829268292683,-111,15.1219512195122,8,-0.487804878048781,-3,0.0130434782608696,-40,-0.173913043478261,136,-0.663414634146342,
11413674,12558.59375,-2880,1.76578786020846,48,0.029429797670141,-16400,10.0551808706315,-161,7.74390243902439,-127,9.81707317073171,14,-0.853658536585366,-1,0.00434782608695652,-41,-0.178260869565217,137,-0.668292682926829,
11414314,12578.125,-2880,1.76578786020846,144,0.088289393010423,-16080,9.85898221949724,-28,8.41463414634146,-138,1.70731707317073,14,-0.853658536585366,-2,0.00869565217391304,-42,-0.182608695652174,137,-0.668292682926829,
11414954,12597.65625,-3040,1.8638871857756,240,0.147148988350705,-15872,9.73145309625996,6,8.41463414634146,-138,-0.365853658536585,18,-1.09756097560976,-2,0.00869565217391304,-42,-0.182608695652174,137,-0.668292682926829,
11415594,12617.1875,-3056,1.87369711833231,304,0.18638871857756,-15616,9.57449417535254,-26,7.86585365853659,-129,1.58536585365854,22,-1.34146341463415,2,-0.00869565217391304,-47,-0.204347826086957,138,-0.673170731707317,
11416234,12636.71875,-2992,1.83445738810546,320,0.196198651134273,-15488,9.49601471489883,-70,6.95121951219512,-114,4.26829268292683,21,-1.28048780487805,2,-0.00869565217391304,-44,-0.191304347826087,138,-0.673170731707317,
11416874,12656.25,-2832,1.73635806253832,416,0.255058246474555,-15296,9.37829552421827,-81,6.21951219512195,-102,4.9390243902439,19,-1.15853658536585,-2,0.00869565217391304,-44,-0.191304347826087,138,-0.673170731707317,
11417514,12675.78125,-2608,1.59901900674433,528,0.323727774371551,-15248,9.34886572654813,-42,5.48780487804878,-90,2.5609756097561,24,-1.46341463414634,2,-0.00869565217391304,-46,-0.2,139,-0.678048780487805,
11418154,12695.3125,-2608,1.59901900674433,544,0.333537706928265,-15328,9.3979153893317,-16,4.75609756097561,-78,0.975609756097561,25,-1.52439024390244,-3,0.0130434782608696,-47,-0.204347826086957,140,-0.682926829268293,
11418794,12714.84375,-2576,1.5793991416309,560,0.343347639484979,-15472,9.48620478234212,-10,3.84146341463415,-63,0.609756097560976,19,-1.15853658536585,-3,0.0130434782608696,-42,-0.182608695652174,137,-0.668292682926829,
11419434,12734.375,-2656,1.62844880441447,496,0.304107909258124,-15600,9.56468424279583,-11,3.41463414634146,-56,0.670731707317073,18,-1.09756097560976,-1,0.00434782608695652,-40,-0.173913043478261,140,-0.682926829268293,
11420074,12753.90625,-2544,1.55977927651747,512,0.313917841814838,-15632,9.58430410790926,-1,2.92682926829268,-48,0.0609756097560976,15,-0.914634146341463,-3,0.0130434782608696,-40,-0.173913043478261,138,-0.673170731707317,
11420714,12773.4375,-2640,1.61863887185776,528,0.323727774371551,-15696,9.62354383813611,4,2.80487804878049,-46,-0.24390243902439,11,-0.670731707317073,0,0,-49,-0.21304347826087,141,-0.68780487804878,
11421354,12792.96875,-12784,7.83813611281422,-12320,-7.55364806866953,2016,-1.23605150214592,-3,3.10975609756098,-51,0.182926829268293,5,-0.304878048780488,1,-0.00434782608695652,-48,-0.208695652173913,139,-0.678048780487805,
11421994,12812.5,-1984,1.2164316370325,4912,3.0116492949111,-6864,4.20846106683017,1192,-83.5975609756098,1371,-72.6829268292683,-444,27.0731707317073,-1,0.00434782608695652,-44,-0.191304347826087,139,-0.678048780487805,
11422634,12832.03125,-7968,4.88534641324341,816,0.500306560392397,-14096,8.64255058246474,1652,-6.28048780487805,103,-100.731707317073,281,-17.1341463414634,2,-0.00869565217391304,-43,-0.18695652173913,136,-0.663414634146342,
11423274,12851.5625,-8576,5.25812385039853,16,0.00980993255671367,-16336,10.0159411404047,-215,9.08536585365854,-149,13.109756097561,-194,11.8292682926829,3,-0.0130434782608696,-42,-0.182608695652174,138,-0.673170731707317,
11423914,12871.09375,-3904,2.39362354383814,208,0.127529123237278,-16432,10.0748007357449,-823,9.45121951219512,-155,50.1829268292683,-181,11.0365853658537,0,0,-42,-0.182608695652174,140,-0.682926829268293,
11424554,12890.625,-1792,1.09871244635193,1216,0.745554874310239,-16672,10.2219497240956,-374,7.92682926829268,-130,22.8048780487805,-150,9.14634146341463,2,-0.00869565217391304,-48,-0.208695652173913,140,-0.682926829268293,
11425194,12910.15625,-2496,1.53034947884733,-560,-0.343347639484979,-17120,10.4966278356836,-173,-0.609756097560976,10,10.5487804878049,-13,0.792682926829268,0,0,-44,-0.191304347826087,140,-0.682926829268293,
11425834,12929.6875,-3296,2.02084610668302,64,0.0392397302268547,-17488,10.722256284488,19,3.47560975609756,-57,-1.15853658536585,19,-1.15853658536585,0,0,-43,-0.18695652173913,141,-0.68780487804878,
11426474,12949.21875,-3728,2.28571428571429,-16,-0.00980993255671367,-17504,10.7320662170448,37,6.03658536585366,-99,-2.25609756097561,15,-0.914634146341463,1,-0.00434782608695652,-45,-0.195652173913043,139,-0.678048780487805,
11427114,12968.75,-4016,2.46229307173513,96,0.058859595340282,-17200,10.5456774984672,-111,7.37804878048781,-121,6.76829268292683,-7,0.426829268292683,0,0,-48,-0.208695652173913,140,-0.682926829268293,
11427754,12988.28125,-3504,2.14837522992029,48,0.029429797670141,-16848,10.3298589822195,-262,7.74390243902439,-127,15.9756097560976,-11,0.670731707317073,1,-0.00434782608695652,-47,-0.204347826086957,139,-0.678048780487805,
11428394,13007.8125,-2688,1.6480686695279,48,0.029429797670141,-16432,10.0748007357449,-199,8.65853658536586,-142,12.1341463414634,-7,0.426829268292683,-2,0.00869565217391304,-43,-0.18695652173913,139,-0.678048780487805,
11429034,13027.34375,-2560,1.56958920907419,160,0.0980993255671367,-15984,9.80012262415696,-18,9.14634146341463,-150,1.09756097560976,-1,0.0609756097560976,-2,0.00869565217391304,-43,-0.18695652173913,139,-0.678048780487805,
11429674,13046.875,-2880,1.76578786020846,272,0.166768853464132,-15712,9.63335377069283,63,9.08536585365854,-149,-3.84146341463415,5,-0.304878048780488,-2,0.00869565217391304,-43,-0.18695652173913,138,-0.673170731707317,
11430314,13066.40625,-3072,1.88350705088903,256,0.156958920907419,-15600,9.56468424279583,38,8.23170731707317,-135,-2.31707317073171,12,-0.731707317073171,-1,0.00434782608695652,-43,-0.18695652173913,139,-0.678048780487805,
11430954,13085.9375,-3072,1.88350705088903,304,0.18638871857756,-15536,9.52544451256898,-36,7.25609756097561,-119,2.19512195121951,14,-0.853658536585366,1,-0.00434782608695652,-46,-0.2,139,-0.678048780487805,
11431594,13105.46875,-2800,1.71673819742489,384,0.235438381361128,-15296,9.37829552421827,-60,6.70731707317073,-110,3.65853658536585,18,-1.09756097560976,-2,0.00869565217391304,-41,-0.178260869565217,140,-0.682926829268293,
11432234,13125,-2560,1.56958920907419,512,0.313917841814838,-15264,9.35867565910484,-26,5.91463414634146,-97,1.58536585365854,28,-1.70731707317073,-2,0.00869565217391304,-45,-0.195652173913043,139,-0.678048780487805,
11432874,13144.53125,-2608,1.59901900674433,512,0.313917841814838,-15360,9.41753525444513,11,5.36585365853659,-88,-0.670731707317073,41,-2.5,-2,0.00869565217391304,-48,-0.208695652173913,139,-0.678048780487805,
11433514,13164.0625,-2720,1.66768853464132,528,0.323727774371551,-15456,9.47639484978541,9,4.51219512195122,-74,-0.548780487804878,44,-2.68292682926829,-1,0.00434782608695652,-51,-0.221739130434783,140,-0.682926829268293,
11434154,13183.59375,-2608,1.59901900674433,528,0.323727774371551,-15568,9.5450643776824,-12,3.78048780487805,-62,0.731707317073171,38,-2.31707317073171,-1,0.00434782608695652,-48,-0.208695652173913,140,-0.682926829268293,
11434794,13203.125,-2496,1.53034947884733,480,0.29429797670141,-15632,9.58430410790926,-20,3.41463414634146,-56,1.21951219512195,31,-1.89024390243902,-1,0.00434782608695652,-46,-0.2,141,-0.68780487804878,
11435434,13222.65625,-2512,1.54015941140405,496,0.304107909258124,-15664,9.60392397302268,-1,3.29268292682927,-54,0.0609756097560976,27,-1.64634146341463,-1,0.00434782608695652,-46,-0.2,141,-0.68780487804878,
11436074,13242.1875,-2592,1.58920907418761,496,0.304107909258124,-15712,9.63335377069283,5,3.41463414634146,-56,-0.304878048780488,25,-1.52439024390244,0,0,-50,-0.217391304347826,140,-0.682926829268293,
11436714,13261.71875,-5184,3.17841814837523,8288,5.08154506437768,16304,-9.99632127529123,-1023,-45.3658536585366,744,62.3780487804878,744,-45.3658536585366,0,0,-50,-0.217391304347826,142,-0.692682926829268,
11437354,13281.25,-2384,1.46167995095034,4368,2.67811158798283,-6608,4.05150214592275,2184,-55.7317073170732,914,-133.170731707317,-54,3.29268292682927,2,-0.00869565217391304,-45,-0.195652173913043,139,-0.678048780487805,
11437994,13300.78125,-9920,6.08215818516248,-1264,-0.77498467198038,-13792,8.45616186388719,2614,13.4146341463415,-220,-159.390243902439,420,-25.609756097561,6,-0.0260869565217391,-45,-0.195652173913043,132,-0.64390243902439,
11438634,13320.3125,-12928,7.92642550582465,-528,-0.323727774371551,-15328,9.3979153893317,-352,9.51219512195122,-156,21.4634146341463,-186,11.3414634146341,8,-0.0347826086956522,-48,-0.208695652173913,134,-0.653658536585366,
11439274,13339.84375,-9088,5.57204169221337,736,0.451256897608829,-16288,9.98651134273452,-1876,9.75609756097561,-160,114.390243902439,-187,11.4024390243902,5,-0.0217391304347826,-48,-0.208695652173913,137,-0.668292682926829,
11439914,13359.375,-1328,0.814224402207235,1280,0.784794604537094,-16512,10.1238503985285,-2006,4.51219512195122,-74,122.317073170732,-301,18.3536585365854,3,-0.0130434782608696,-45,-0.195652173913043,137,-0.668292682926829,
