Shimmer,Shimmer,Shimmer,Shimmer,Shimmer,Shimmer,Shimmer,Shimmer,Shimmer,Shimmer,Shimmer,Shimmer,Shimmer,Shimmer,Shimmer,Shimmer,Shimmer,Shimmer,Shimmer,Shimmer,
Timestamp,Timestamp,Wide Range Accelerometer X,Wide Range Accelerometer X,Wide Range Accelerometer Y,Wide Range Accelerometer Y,Wide Range Accelerometer Z,Wide Range Accelerometer Z,Gyroscope X,Gyroscope X,Gyroscope Y,Gyroscope Y,Gyroscope Z,Gyroscope Z,Magnetometer X,Magnetometer X,Magnetometer Y,Magnetometer Y,Magnetometer Z,Magnetometer Z,
RAW,CAL,RAW,CAL,RAW,CAL,RAW,CAL,RAW,CAL,RAW,CAL,RAW,CAL,RAW,CAL,RAW,CAL,RAW,CAL,
no units,mSecs,no units,m/(sec^2),no units,m/(sec^2),no units,m/(sec^2),no units,deg/sec,no units,deg/sec,no units,deg/sec,no units,local,no units,local,no units,local,
422788,0,1680,-1.03004291845494,-15792,-9.6824034334764,-3744,2.295524218271,9,3.47560975609756,-57,-0.548780487804878,1,-0.0609756097560976,-72,0.31304347826087,41,0.178260869565217,103,-0.502439024390244,
423428,19.53125,1664,-1.02023298589822,-15728,-9.64316370324954,-3744,2.295524218271,14,3.35365853658537,-55,-0.853658536585366,-3,0.182926829268293,-72,0.31304347826087,41,0.178260869565217,104,-0.507317073170732,
424068,39.0625,1648,-1.01042305334151,-15760,-9.66278356836297,-3712,2.27590435315757,10,2.92682926829268,-48,-0.609756097560976,-6,0.365853658536585,-72,0.31304347826087,44,0.191304347826087,102,-0.497560975609756,
424708,58.59375,1632,-1.00061312078479,-15696,-9.62354383813611,-3664,2.24647455548743,2,2.98780487804878,-49,-0.121951219512195,-6,0.365853658536585,-73,0.317391304347826,45,0.195652173913043,102,-0.497560975609756,
425348,78.125,1632,-1.00061312078479,-15680,-9.6137339055794,-3648,2.23666462293072,1,2.92682926829268,-48,-0.0609756097560976,-8,0.487804878048781,-74,0.321739130434783,42,0.182608695652174,104,-0.507317073170732,
425988,97.65625,1696,-1.03985285101165,-15632,-9.58430410790926,-3616,2.21704475781729,2,2.86585365853659,-47,-0.121951219512195,-3,0.182926829268293,-74,0.321739130434783,43,0.18695652173913,103,-0.502439024390244,
426628,117.1875,1648,-1.01042305334151,-15712,-9.63335377069283,-3648,2.23666462293072,1,2.5,-41,-0.0609756097560976,-2,0.121951219512195,-72,0.31304347826087,43,0.18695652173913,102,-0.497560975609756,
427268,136.71875,1664,-1.02023298589822,-15760,-9.66278356836297,-3504,2.14837522992029,-4,2.4390243902439,-40,0.24390243902439,-6,0.365853658536585,-72,0.31304347826087,41,0.178260869565217,103,-0.502439024390244,
427908,156.25,1728,-1.05947271612508,-15728,-9.64316370324954,-3584,2.19742489270386,-8,2.31707317073171,-38,0.487804878048781,-6,0.365853658536585,-73,0.317391304347826,41,0.178260869565217,103,-0.502439024390244,
428548,175.78125,1696,-1.03985285101165,-15744,-9.65297363580625,-3552,2.17780502759044,-9,2.25609756097561,-37,0.548780487804878,-13,0.792682926829268,-72,0.31304347826087,47,0.204347826086957,103,-0.502439024390244,
429188,195.3125,1664,-1.02023298589822,-15728,-9.64316370324954,-3584,2.19742489270386,-6,1.95121951219512,-32,0.365853658536585,-13,0.792682926829268,-72,0.31304347826087,41,0.178260869565217,103,-0.502439024390244,
429828,214.84375,1616,-0.990803188228081,-15664,-9.60392397302268,-3680,2.25628448804414,-8,2.13414634146341,-35,0.487804878048781,-14,0.853658536585366,-74,0.321739130434783,47,0.204347826086957,103,-0.502439024390244,
430468,234.375,1648,-1.01042305334151,-15728,-9.64316370324954,-3696,2.26609442060086,-3,2.25609756097561,-37,0.182926829268293,-13,0.792682926829268,-74,0.321739130434783,48,0.208695652173913,102,-0.497560975609756,
431108,253.90625,1632,-1.00061312078479,-15664,-9.60392397302268,-3696,2.26609442060086,-5,2.19512195121951,-36,0.304878048780488,-10,0.609756097560976,-74,0.321739130434783,41,0.178260869565217,103,-0.502439024390244,
431748,273.4375,1648,-1.01042305334151,-15728,-9.64316370324954,-3792,2.32495401594114,-11,2.5609756097561,-42,0.670731707317073,-10,0.609756097560976,-72,0.31304347826087,42,0.182608695652174,103,-0.502439024390244,
432388,292.96875,1616,-0.990803188228081,-15760,-9.66278356836297,-3744,2.295524218271,-8,2.5,-41,0.487804878048781,-6,0.365853658536585,-74,0.321739130434783,45,0.195652173913043,101,-0.492682926829268,
433028,312.5,1664,-1.02023298589822,-15776,-9.67259350091968,-3696,2.26609442060086,-9,2.98780487804878,-49,0.548780487804878,-8,0.487804878048781,-73,0.317391304347826,46,0.2,102,-0.497560975609756,
433668,332.03125,1648,-1.01042305334151,-15792,-9.6824034334764,-3696,2.26609442060086,-12,3.10975609756098,-51,0.731707317073171,-10,0.609756097560976,-72,0.31304347826087,42,0.182608695652174,103,-0.502439024390244,
434308,351.5625,1600,-0.980993255671367,-15696,-9.62354383813611,-3616,2.21704475781729,-10,3.23170731707317,-53,0.609756097560976,-13,0.792682926829268,-75,0.326086956521739,42,0.182608695652174,101,-0.492682926829268,
434948,371.09375,1616,-0.990803188228081,-15744,-9.65297363580625,-3664,2.24647455548743,-20,3.29268292682927,-54,1.21951219512195,-10,0.609756097560976,-72,0.31304347826087,45,0.195652173913043,102,-0.497560975609756,
435588,390.625,1584,-0.971183323114654,-15696,-9.62354383813611,-3600,2.20723482526058,-21,3.35365853658537,-55,1.28048780487805,-7,0.426829268292683,-73,0.317391304347826,44,0.191304347826087,102,-0.497560975609756,
436228,410.15625,1728,-1.05947271612508,-15728,-9.64316370324954,-3616,2.21704475781729,-24,3.29268292682927,-54,1.46341463414634,-7,0.426829268292683,-74,0.321739130434783,43,0.18695652173913,103,-0.502439024390244,
436868,429.6875,1712,-1.04966278356836,-15696,-9.62354383813611,-3616,2.21704475781729,-19,3.23170731707317,-53,1.15853658536585,-2,0.121951219512195,-73,0.317391304347826,42,0.182608695652174,103,-0.502439024390244,
437508,449.21875,1632,-1.00061312078479,-15696,-9.62354383813611,-3600,2.20723482526058,-15,3.29268292682927,-54,0.914634146341463,-3,0.182926829268293,-73,0.317391304347826,42,0.182608695652174,102,-0.497560975609756,
438148,468.75,1584,-0.971183323114654,-15728,-9.64316370324954,-3616,2.21704475781729,-14,3.23170731707317,-53,0.853658536585366,-2,0.121951219512195,-73,0.317391304347826,41,0.178260869565217,102,-0.497560975609756,
438788,488.28125,1664,-1.02023298589822,-15792,-9.6824034334764,-3504,2.14837522992029,-27,2.98780487804878,-49,1.64634146341463,0,0,-73,0.317391304347826,45,0.195652173913043,103,-0.502439024390244,
439428,507.8125,1632,-1.00061312078479,-15760,-9.66278356836297,-3520,2.15818516247701,-28,2.98780487804878,-49,1.70731707317073,-1,0.0609756097560976,-74,0.321739130434783,46,0.2,102,-0.497560975609756,
440068,527.34375,1712,-1.04966278356836,-15776,-9.67259350091968,-3632,2.226854690374,-20,2.80487804878049,-46,1.21951219512195,0,0,-75,0.326086956521739,46,0.2,103,-0.502439024390244,
440708,546.875,1696,-1.03985285101165,-15680,-9.6137339055794,-3648,2.23666462293072,-21,2.68292682926829,-44,1.28048780487805,-3,0.182926829268293,-72,0.31304347826087,42,0.182608695652174,103,-0.502439024390244,
441348,566.40625,1712,-1.04966278356836,-15712,-9.63335377069283,-3408,2.08951563458001,-22,2.6219512195122,-43,1.34146341463415,-7,0.426829268292683,-75,0.326086956521739,44,0.191304347826087,103,-0.502439024390244,
441988,585.9375,1680,-1.03004291845494,-15776,-9.67259350091968,-3584,2.19742489270386,-29,2.5609756097561,-42,1.76829268292683,-3,0.182926829268293,-74,0.321739130434783,43,0.18695652173913,102,-0.497560975609756,
442628,605.46875,1696,-1.03985285101165,-15856,-9.72164316370325,-3648,2.23666462293072,-27,2.31707317073171,-38,1.64634146341463,2,-0.121951219512195,-73,0.317391304347826,41,0.178260869565217,103,-0.502439024390244,
443268,625,1744,-1.06928264868179,-15776,-9.67259350091968,-3680,2.25628448804414,-18,2.31707317073171,-38,1.09756097560976,4,-0.24390243902439,-73,0.317391304347826,42,0.182608695652174,103,-0.502439024390244,
443908,644.53125,1744,-1.06928264868179,-15728,-9.64316370324954,-3664,2.24647455548743,-14,2.4390243902439,-40,0.853658536585366,-1,0.0609756097560976,-73,0.317391304347826,45,0.195652173913043,102,-0.497560975609756,
444548,664.0625,1744,-1.06928264868179,-15664,-9.60392397302268,-3632,2.226854690374,-12,2.31707317073171,-38,0.731707317073171,-5,0.304878048780488,-72,0.31304347826087,45,0.195652173913043,101,-0.492682926829268,
445188,683.59375,1664,-1.02023298589822,-15728,-9.64316370324954,-3680,2.25628448804414,-13,2.6219512195122,-43,0.792682926829268,-11,0.670731707317073,-75,0.326086956521739,45,0.195652173913043,103,-0.502439024390244,
445828,703.125,1696,-1.03985285101165,-15728,-9.64316370324954,-3696,2.26609442060086,-24,2.80487804878049,-46,1.46341463414634,-9,0.548780487804878,-74,0.321739130434783,43,0.18695652173913,103,-0.502439024390244,
446468,722.65625,1760,-1.0790925812385,-15760,-9.66278356836297,-3696,2.26609442060086,-23,3.10975609756098,-51,1.40243902439024,-5,0.304878048780488,-72,0.31304347826087,43,0.18695652173913,101,-0.492682926829268,
447108,742.1875,1744,-1.06928264868179,-15808,-9.69221336603311,-3664,2.24647455548743,-25,3.17073170731707,-52,1.52439024390244,-8,0.487804878048781,-73,0.317391304347826,43,0.18695652173913,101,-0.492682926829268,
447748,761.71875,1776,-1.08890251379522,-15760,-9.66278356836297,-3648,2.23666462293072,-20,2.86585365853659,-47,1.21951219512195,-13,0.792682926829268,-77,0.334782608695652,42,0.182608695652174,103,-0.502439024390244,
448388,781.25,1728,-1.05947271612508,-15792,-9.6824034334764,-3696,2.26609442060086,-16,3.04878048780488,-50,0.975609756097561,-18,1.09756097560976,-73,0.317391304347826,46,0.2,103,-0.502439024390244,
449028,800.78125,1680,-1.03004291845494,-15712,-9.63335377069283,-3664,2.24647455548743,-17,3.29268292682927,-54,1.03658536585366,-18,1.09756097560976,-73,0.317391304347826,41,0.178260869565217,103,-0.502439024390244,
449668,820.3125,1648,-1.01042305334151,-15664,-9.60392397302268,-3616,2.21704475781729,-13,2.92682926829268,-48,0.792682926829268,-16,0.975609756097561,-76,0.330434782608696,42,0.182608695652174,103,-0.502439024390244,
450308,839.84375,1712,-1.04966278356836,-15680,-9.6137339055794,-3680,2.25628448804414,-5,2.68292682926829,-44,0.304878048780488,-12,0.731707317073171,-75,0.326086956521739,46,0.2,104,-0.507317073170732,
450948,859.375,1696,-1.03985285101165,-15744,-9.65297363580625,-3664,2.24647455548743,-1,2.98780487804878,-49,0.0609756097560976,-4,0.24390243902439,-75,0.326086956521739,45,0.195652173913043,103,-0.502439024390244,
451588,878.90625,1696,-1.03985285101165,-15728,-9.64316370324954,-3664,2.24647455548743,-1,2.6219512195122,-43,0.0609756097560976,-6,0.365853658536585,-74,0.321739130434783,41,0.178260869565217,103,-0.502439024390244,
452228,898.4375,1664,-1.02023298589822,-15744,-9.65297363580625,-3680,2.25628448804414,6,2.74390243902439,-45,-0.365853658536585,-6,0.365853658536585,-73,0.317391304347826,44,0.191304347826087,103,-0.502439024390244,
452868,917.96875,1680,-1.03004291845494,-15792,-9.6824034334764,-3728,2.28571428571429,7,2.86585365853659,-47,-0.426829268292683,-9,0.548780487804878,-75,0.326086956521739,46,0.2,102,-0.497560975609756,
453508,937.5,1600,-0.980993255671367,-15712,-9.63335377069283,-3664,2.24647455548743,7,2.74390243902439,-45,-0.426829268292683,-7,0.426829268292683,-74,0.321739130434783,46,0.2,101,-0.492682926829268,
454148,957.03125,1632,-1.00061312078479,-15728,-9.64316370324954,-3648,2.23666462293072,-3,3.10975609756098,-51,0.182926829268293,-3,0.182926829268293,-73,0.317391304347826,42,0.182608695652174,104,-0.507317073170732,
454788,976.5625,1600,-0.980993255671367,-15744,-9.65297363580625,-3616,2.21704475781729,-6,3.04878048780488,-50,0.365853658536585,1,-0.0609756097560976,-73,0.317391304347826,42,0.182608695652174,103,-0.502439024390244,
455428,996.09375,1680,-1.03004291845494,-15840,-9.71183323114654,-3632,2.226854690374,-12,3.23170731707317,-53,0.731707317073171,4,-0.24390243902439,-72,0.31304347826087,45,0.195652173913043,102,-0.497560975609756,
456068,1015.625,1696,-1.03985285101165,-15760,-9.66278356836297,-3616,2.21704475781729,-13,3.10975609756098,-51,0.792682926829268,5,-0.304878048780488,-72,0.31304347826087,46,0.2,103,-0.502439024390244,
456708,1035.15625,1664,-1.02023298589822,-15792,-9.6824034334764,-3616,2.21704475781729,-11,3.10975609756098,-51,0.670731707317073,-1,0.0609756097560976,-75,0.326086956521739,44,0.191304347826087,103,-0.502439024390244,
457348,1054.6875,1696,-1.03985285101165,-15760,-9.66278356836297,-3632,2.226854690374,-8,3.17073170731707,-52,0.487804878048781,-2,0.121951219512195,-74,0.321739130434783,43,0.18695652173913,103,-0.502439024390244,
457988,1074.21875,1664,-1.02023298589822,-15728,-9.64316370324954,-3648,2.23666462293072,0,3.04878048780488,-50,0,0,0,-73,0.317391304347826,42,0.182608695652174,104,-0.507317073170732,
458628,1093.75,1664,-1.02023298589822,-15728,-9.64316370324954,-3584,2.19742489270386,-5,3.04878048780488,-50,0.304878048780488,5,-0.304878048780488,-73,0.317391304347826,42,0.182608695652174,102,-0.497560975609756,
459268,1113.28125,1616,-0.990803188228081,-15712,-9.63335377069283,-3616,2.21704475781729,-11,3.04878048780488,-50,0.670731707317073,5,-0.304878048780488,-74,0.321739130434783,43,0.18695652173913,104,-0.507317073170732,
459908,1132.8125,1664,-1.02023298589822,-15712,-9.63335377069283,-3680,2.25628448804414,-15,3.23170731707317,-53,0.914634146341463,4,-0.24390243902439,-74,0.321739130434783,48,0.208695652173913,103,-0.502439024390244,
460548,1152.34375,1744,-1.06928264868179,-15792,-9.6824034334764,-3616,2.21704475781729,-19,3.35365853658537,-55,1.15853658536585,4,-0.24390243902439,-72,0.31304347826087,46,0.2,101,-0.492682926829268,
461188,1171.875,1760,-1.0790925812385,-15808,-9.69221336603311,-3648,2.23666462293072,-18,3.47560975609756,-57,1.09756097560976,-1,0.0609756097560976,-73,0.317391304347826,41,0.178260869565217,103,-0.502439024390244,
461828,1191.40625,1776,-1.08890251379522,-15760,-9.66278356836297,-3664,2.24647455548743,-16,3.35365853658537,-55,0.975609756097561,-1,0.0609756097560976,-75,0.326086956521739,45,0.195652173913043,104,-0.507317073170732,
462468,1210.9375,1792,-1.09871244635193,-15776,-9.67259350091968,-3664,2.24647455548743,-11,3.35365853658537,-55,0.670731707317073,-2,0.121951219512195,-74,0.321739130434783,44,0.191304347826087,103,-0.502439024390244,
463108,1230.46875,1792,-1.09871244635193,-15760,-9.66278356836297,-3568,2.18761496014715,-7,3.41463414634146,-56,0.426829268292683,-5,0.304878048780488,-75,0.326086956521739,47,0.204347826086957,103,-0.502439024390244,
463748,1250,1760,-1.0790925812385,-15648,-9.59411404046597,-3616,2.21704475781729,-14,3.41463414634146,-56,0.853658536585366,-5,0.304878048780488,-73,0.317391304347826,42,0.182608695652174,103,-0.502439024390244,
464388,1269.53125,1696,-1.03985285101165,-15712,-9.63335377069283,-3680,2.25628448804414,-17,3.59756097560976,-59,1.03658536585366,-5,0.304878048780488,-73,0.317391304347826,45,0.195652173913043,103,-0.502439024390244,
465028,1289.0625,1808,-1.10852237890864,-15696,-9.62354383813611,-3600,2.20723482526058,-20,3.17073170731707,-52,1.21951219512195,-12,0.731707317073171,-73,0.317391304347826,42,0.182608695652174,104,-0.507317073170732,
465668,1308.59375,1824,-1.11833231146536,-15712,-9.63335377069283,-3680,2.25628448804414,-20,3.17073170731707,-52,1.21951219512195,-14,0.853658536585366,-74,0.321739130434783,45,0.195652173913043,102,-0.497560975609756,
466308,1328.125,1776,-1.08890251379522,-15712,-9.63335377069283,-3632,2.226854690374,-14,3.10975609756098,-51,0.853658536585366,-13,0.792682926829268,-73,0.317391304347826,45,0.195652173913043,103,-0.502439024390244,
466948,1347.65625,1680,-1.03004291845494,-15728,-9.64316370324954,-3664,2.24647455548743,-6,3.17073170731707,-52,0.365853658536585,-16,0.975609756097561,-72,0.31304347826087,44,0.191304347826087,104,-0.507317073170732,
467588,1367.1875,1712,-1.04966278356836,-15712,-9.63335377069283,-3648,2.23666462293072,-6,3.17073170731707,-52,0.365853658536585,-16,0.975609756097561,-74,0.321739130434783,42,0.182608695652174,104,-0.507317073170732,
468228,1386.71875,1712,-1.04966278356836,-15648,-9.59411404046597,-3584,2.19742489270386,-8,2.98780487804878,-49,0.487804878048781,-14,0.853658536585366,-75,0.326086956521739,41,0.178260869565217,103,-0.502439024390244,
468868,1406.25,1712,-1.04966278356836,-15712,-9.63335377069283,-3648,2.23666462293072,-10,2.98780487804878,-49,0.609756097560976,-17,1.03658536585366,-73,0.317391304347826,42,0.182608695652174,103,-0.502439024390244,
469508,1425.78125,1696,-1.03985285101165,-15616,-9.57449417535254,-3648,2.23666462293072,-4,2.92682926829268,-48,0.24390243902439,-21,1.28048780487805,-74,0.321739130434783,42,0.182608695652174,102,-0.497560975609756,
470148,1445.3125,1712,-1.04966278356836,-15680,-9.6137339055794,-3648,2.23666462293072,3,3.04878048780488,-50,-0.182926829268293,-18,1.09756097560976,-75,0.326086956521739,48,0.208695652173913,104,-0.507317073170732,
470788,1464.84375,1728,-1.05947271612508,-15712,-9.63335377069283,-3728,2.28571428571429,8,2.92682926829268,-48,-0.487804878048781,-18,1.09756097560976,-74,0.321739130434783,49,0.21304347826087,102,-0.497560975609756,
471428,1484.375,1696,-1.03985285101165,-15808,-9.69221336603311,-3744,2.295524218271,3,2.80487804878049,-46,-0.182926829268293,-14,0.853658536585366,-74,0.321739130434783,41,0.178260869565217,103,-0.502439024390244,
472068,1503.90625,1728,-1.05947271612508,-15792,-9.6824034334764,-3584,2.19742489270386,6,2.92682926829268,-48,-0.365853658536585,-11,0.670731707317073,-73,0.317391304347826,43,0.18695652173913,103,-0.502439024390244,
472708,1523.4375,1760,-1.0790925812385,-15728,-9.64316370324954,-3696,2.26609442060086,20,2.86585365853659,-47,-1.21951219512195,-8,0.487804878048781,-75,0.326086956521739,45,0.195652173913043,102,-0.497560975609756,
473348,1542.96875,1648,-1.01042305334151,-15744,-9.65297363580625,-3808,2.33476394849785,35,2.98780487804878,-49,-2.13414634146341,-10,0.609756097560976,-74,0.321739130434783,44,0.191304347826087,101,-0.492682926829268,
473988,1562.5,1600,-0.980993255671367,-15776,-9.67259350091968,-3776,2.31514408338443,26,3.23170731707317,-53,-1.58536585365854,-12,0.731707317073171,-73,0.317391304347826,42,0.182608695652174,103,-0.502439024390244,
474628,1582.03125,1584,-0.971183323114654,-15808,-9.69221336603311,-3792,2.32495401594114,14,3.65853658536585,-60,-0.853658536585366,-9,0.548780487804878,-74,0.321739130434783,47,0.204347826086957,102,-0.497560975609756,
475268,1601.5625,1696,-1.03985285101165,-15808,-9.69221336603311,-3808,2.33476394849785,3,3.84146341463415,-63,-0.182926829268293,-10,0.609756097560976,-73,0.317391304347826,45,0.195652173913043,102,-0.497560975609756,
475908,1621.09375,1792,-1.09871244635193,-15792,-9.6824034334764,-3744,2.295524218271,9,4.14634146341463,-68,-0.548780487804878,-11,0.670731707317073,-73,0.317391304347826,45,0.195652173913043,102,-0.497560975609756,
476548,1640.625,1712,-1.04966278356836,-15808,-9.69221336603311,-3792,2.32495401594114,17,4.20731707317073,-69,-1.03658536585366,-17,1.03658536585366,-74,0.321739130434783,43,0.18695652173913,104,-0.507317073170732,
477188,1660.15625,1664,-1.02023298589822,-15776,-9.67259350091968,-3744,2.295524218271,21,4.32926829268293,-71,-1.28048780487805,-12,0.731707317073171,-75,0.326086956521739,43,0.18695652173913,104,-0.507317073170732,
477828,1679.6875,1632,-1.00061312078479,-15728,-9.64316370324954,-3696,2.26609442060086,21,4.26829268292683,-70,-1.28048780487805,-11,0.670731707317073,-73,0.317391304347826,43,0.18695652173913,103,-0.502439024390244,
478468,1699.21875,1680,-1.03004291845494,-15616,-9.57449417535254,-3696,2.26609442060086,17,4.26829268292683,-70,-1.03658536585366,-6,0.365853658536585,-74,0.321739130434783,42,0.182608695652174,103,-0.502439024390244,
479108,1718.75,1760,-1.0790925812385,-15712,-9.63335377069283,-3712,2.27590435315757,15,4.08536585365854,-67,-0.914634146341463,-2,0.121951219512195,-74,0.321739130434783,41,0.178260869565217,104,-0.507317073170732,
479748,1738.28125,1664,-1.02023298589822,-15760,-9.66278356836297,-3632,2.226854690374,21,4.14634146341463,-68,-1.28048780487805,-2,0.121951219512195,-74,0.321739130434783,44,0.191304347826087,103,-0.502439024390244,
480388,1757.8125,1712,-1.04966278356836,-15744,-9.65297363580625,-3648,2.23666462293072,23,4.14634146341463,-68,-1.40243902439024,-3,0.182926829268293,-71,0.308695652173913,41,0.178260869565217,103,-0.502439024390244,
481028,1777.34375,1760,-1.0790925812385,-15680,-9.6137339055794,-3616,2.21704475781729,25,4.20731707317073,-69,-1.52439024390244,-2,0.121951219512195,-75,0.326086956521739,42,0.182608695652174,103,-0.502439024390244,
481668,1796.875,1712,-1.04966278356836,-15728,-9.64316370324954,-3696,2.26609442060086,24,3.96341463414634,-65,-1.46341463414634,-6,0.365853658536585,-73,0.317391304347826,44,0.191304347826087,104,-0.507317073170732,
482308,1816.40625,1696,-1.03985285101165,-15696,-9.62354383813611,-3680,2.25628448804414,19,3.90243902439024,-64,-1.15853658536585,-10,0.609756097560976,-74,0.321739130434783,46,0.2,104,-0.507317073170732,
482948,1835.9375,1696,-1.03985285101165,-15728,-9.64316370324954,-3680,2.25628448804414,19,4.08536585365854,-67,-1.15853658536585,-11,0.670731707317073,-72,0.31304347826087,43,0.18695652173913,102,-0.497560975609756,
483588,1855.46875,1728,-1.05947271612508,-15648,-9.59411404046597,-3744,2.295524218271,20,4.02439024390244,-66,-1.21951219512195,-7,0.426829268292683,-72,0.31304347826087,42,0.182608695652174,104,-0.507317073170732,
484228,1875,1728,-1.05947271612508,-15744,-9.65297363580625,-3728,2.28571428571429,18,4.02439024390244,-66,-1.09756097560976,-6,0.365853658536585,-72,0.31304347826087,43,0.18695652173913,102,-0.497560975609756,
484868,1894.53125,1744,-1.06928264868179,-15712,-9.63335377069283,-3712,2.27590435315757,11,4.26829268292683,-70,-0.670731707317073,-6,0.365853658536585,-72,0.31304347826087,43,0.18695652173913,102,-0.497560975609756,
485508,1914.0625,1776,-1.08890251379522,-15680,-9.6137339055794,-3728,2.28571428571429,6,4.32926829268293,-71,-0.365853658536585,-9,0.548780487804878,-71,0.308695652173913,40,0.173913043478261,104,-0.507317073170732,
486148,1933.59375,1776,-1.08890251379522,-15744,-9.65297363580625,-3744,2.295524218271,5,3.96341463414634,-65,-0.304878048780488,-14,0.853658536585366,-73,0.317391304347826,42,0.182608695652174,103,-0.502439024390244,
486788,1953.125,1696,-1.03985285101165,-15712,-9.63335377069283,-3728,2.28571428571429,10,3.96341463414634,-65,-0.609756097560976,-15,0.914634146341463,-71,0.308695652173913,44,0.191304347826087,102,-0.497560975609756,
487428,1972.65625,1648,-1.01042305334151,-15664,-9.60392397302268,-3712,2.27590435315757,5,4.02439024390244,-66,-0.304878048780488,-17,1.03658536585366,-71,0.308695652173913,42,0.182608695652174,104,-0.507317073170732,
488068,1992.1875,1696,-1.03985285101165,-15680,-9.6137339055794,-3728,2.28571428571429,-3,3.96341463414634,-65,0.182926829268293,-14,0.853658536585366,-73,0.317391304347826,40,0.173913043478261,104,-0.507317073170732,
488708,2011.71875,1680,-1.03004291845494,-15648,-9.59411404046597,-3744,2.295524218271,-2,3.78048780487805,-62,0.121951219512195,-11,0.670731707317073,-73,0.317391304347826,41,0.178260869565217,103,-0.502439024390244,
489348,2031.25,1648,-1.01042305334151,-15728,-9.64316370324954,-3760,2.30533415082771,6,3.59756097560976,-59,-0.365853658536585,-6,0.365853658536585,-71,0.308695652173913,39,0.169565217391304,103,-0.502439024390244,
489988,2050.78125,1664,-1.02023298589822,-15792,-9.6824034334764,-3696,2.26609442060086,15,3.47560975609756,-57,-0.914634146341463,2,-0.121951219512195,-71,0.308695652173913,40,0.173913043478261,103,-0.502439024390244,
490628,2070.3125,1616,-0.990803188228081,-15776,-9.67259350091968,-3744,2.295524218271,10,3.59756097560976,-59,-0.609756097560976,-1,0.0609756097560976,-71,0.308695652173913,45,0.195652173913043,104,-0.507317073170732,
491268,2089.84375,1664,-1.02023298589822,-15728,-9.64316370324954,-3696,2.26609442060086,2,3.78048780487805,-62,-0.121951219512195,-5,0.304878048780488,-73,0.317391304347826,45,0.195652173913043,102,-0.497560975609756,
491908,2109.375,1680,-1.03004291845494,-15664,-9.60392397302268,-3712,2.27590435315757,-9,3.78048780487805,-62,0.548780487804878,-8,0.487804878048781,-74,0.321739130434783,40,0.173913043478261,104,-0.507317073170732,
492548,2128.90625,1648,-1.01042305334151,-15648,-9.59411404046597,-3728,2.28571428571429,-20,4.02439024390244,-66,1.21951219512195,-7,0.426829268292683,-72,0.31304347826087,45,0.195652173913043,103,-0.502439024390244,
493188,2148.4375,1712,-1.04966278356836,-15712,-9.63335377069283,-3680,2.25628448804414,-22,3.96341463414634,-65,1.34146341463415,-2,0.121951219512195,-72,0.31304347826087,43,0.18695652173913,104,-0.507317073170732,
493828,2167.96875,1696,-1.03985285101165,-15664,-9.60392397302268,-3728,2.28571428571429,-18,4.02439024390244,-66,1.09756097560976,-3,0.182926829268293,-74,0.321739130434783,41,0.178260869565217,103,-0.502439024390244,
494468,2187.5,1760,-1.0790925812385,-15696,-9.62354383813611,-3760,2.30533415082771,-13,3.96341463414634,-65,0.792682926829268,-6,0.365853658536585,-71,0.308695652173913,40,0.173913043478261,104,-0.507317073170732,
495108,2207.03125,1680,-1.03004291845494,-15712,-9.63335377069283,-3728,2.28571428571429,-14,3.59756097560976,-59,0.853658536585366,-11,0.670731707317073,-72,0.31304347826087,44,0.191304347826087,103,-0.502439024390244,
495748,2226.5625,1728,-1.05947271612508,-15648,-9.59411404046597,-3664,2.24647455548743,-19,3.47560975609756,-57,1.15853658536585,-12,0.731707317073171,-72,0.31304347826087,41,0.178260869565217,102,-0.497560975609756,
496388,2246.09375,1728,-1.05947271612508,-15568,-9.5450643776824,-3680,2.25628448804414,-25,3.10975609756098,-51,1.52439024390244,-16,0.975609756097561,-70,0.304347826086957,42,0.182608695652174,102,-0.497560975609756,
497028,2265.625,1728,-1.05947271612508,-15568,-9.5450643776824,-3744,2.295524218271,-26,3.17073170731707,-52,1.58536585365854,-15,0.914634146341463,-73,0.317391304347826,44,0.191304347826087,102,-0.497560975609756,
497668,2285.15625,1776,-1.08890251379522,-15504,-9.50582464745555,-3760,2.30533415082771,-26,2.5609756097561,-42,1.58536585365854,-10,0.609756097560976,-73,0.317391304347826,45,0.195652173913043,102,-0.497560975609756,
498308,2304.6875,1696,-1.03985285101165,-15600,-9.56468424279583,-3744,2.295524218271,-27,2.19512195121951,-36,1.64634146341463,-9,0.548780487804878,-72,0.31304347826087,42,0.182608695652174,104,-0.507317073170732,
498948,2324.21875,1808,-1.10852237890864,-15648,-9.59411404046597,-3744,2.295524218271,-25,2.01219512195122,-33,1.52439024390244,-3,0.182926829268293,-71,0.308695652173913,42,0.182608695652174,103,-0.502439024390244,
499588,2343.75,1808,-1.10852237890864,-15728,-9.64316370324954,-3744,2.295524218271,-19,1.89024390243902,-31,1.15853658536585,-5,0.304878048780488,-74,0.321739130434783,40,0.173913043478261,104,-0.507317073170732,
500228,2363.28125,1712,-1.04966278356836,-15712,-9.63335377069283,-3808,2.33476394849785,-20,1.46341463414634,-24,1.21951219512195,-10,0.609756097560976,-72,0.31304347826087,41,0.178260869565217,103,-0.502439024390244,
500868,2382.8125,1760,-1.0790925812385,-15584,-9.55487431023912,-3728,2.28571428571429,-12,1.40243902439024,-23,0.731707317073171,-12,0.731707317073171,-73,0.317391304347826,41,0.178260869565217,103,-0.502439024390244,
501508,2402.34375,1760,-1.0790925812385,-15616,-9.57449417535254,-3792,2.32495401594114,-10,1.40243902439024,-23,0.609756097560976,-14,0.853658536585366,-74,0.321739130434783,43,0.18695652173913,103,-0.502439024390244,
502148,2421.875,1728,-1.05947271612508,-15648,-9.59411404046597,-3840,2.35438381361128,-9,1.21951219512195,-20,0.548780487804878,-14,0.853658536585366,-74,0.321739130434783,47,0.204347826086957,102,-0.497560975609756,
502788,2441.40625,1712,-1.04966278356836,-15744,-9.65297363580625,-3872,2.37400367872471,-14,1.46341463414634,-24,0.853658536585366,-11,0.670731707317073,-72,0.31304347826087,41,0.178260869565217,103,-0.502439024390244,
503428,2460.9375,1792,-1.09871244635193,-15728,-9.64316370324954,-3920,2.40343347639485,-16,1.70731707317073,-28,0.975609756097561,-13,0.792682926829268,-74,0.321739130434783,41,0.178260869565217,103,-0.502439024390244,
504068,2480.46875,1872,-1.1477621091355,-15840,-9.71183323114654,-3840,2.35438381361128,-14,1.89024390243902,-31,0.853658536585366,-25,1.52439024390244,-75,0.326086956521739,45,0.195652173913043,103,-0.502439024390244,
504708,2500,1824,-1.11833231146536,-15728,-9.64316370324954,-3904,2.39362354383814,-10,2.07317073170732,-34,0.609756097560976,-27,1.64634146341463,-74,0.321739130434783,42,0.182608695652174,103,-0.502439024390244,
505348,2519.53125,1824,-1.11833231146536,-15552,-9.53525444512569,-3888,2.38381361128142,-6,2.13414634146341,-35,0.365853658536585,-32,1.95121951219512,-73,0.317391304347826,41,0.178260869565217,105,-0.51219512195122,
505988,2539.0625,1856,-1.13795217657879,-15552,-9.53525444512569,-3856,2.364193746168,-2,2.13414634146341,-35,0.121951219512195,-29,1.76829268292683,-74,0.321739130434783,47,0.204347826086957,102,-0.497560975609756,
506628,2558.59375,1792,-1.09871244635193,-15712,-9.63335377069283,-3824,2.34457388105457,11,2.19512195121951,-36,-0.670731707317073,-23,1.40243902439024,-74,0.321739130434783,44,0.191304347826087,103,-0.502439024390244,
507268,2578.125,1808,-1.10852237890864,-15776,-9.67259350091968,-3856,2.364193746168,12,2.25609756097561,-37,-0.731707317073171,-21,1.28048780487805,-74,0.321739130434783,44,0.191304347826087,103,-0.502439024390244,
507908,2597.65625,1840,-1.12814224402207,-15760,-9.66278356836297,-3872,2.37400367872471,8,2.13414634146341,-35,-0.487804878048781,-18,1.09756097560976,-76,0.330434782608696,43,0.18695652173913,104,-0.507317073170732,
508548,2617.1875,1840,-1.12814224402207,-15728,-9.64316370324954,-3872,2.37400367872471,9,2.13414634146341,-35,-0.548780487804878,-17,1.03658536585366,-75,0.326086956521739,43,0.18695652173913,103,-0.502439024390244,
509188,2636.71875,1840,-1.12814224402207,-15744,-9.65297363580625,-3824,2.34457388105457,20,2.31707317073171,-38,-1.21951219512195,-19,1.15853658536585,-75,0.326086956521739,43,0.18695652173913,103,-0.502439024390244,
509828,2656.25,1872,-1.1477621091355,-15792,-9.6824034334764,-3808,2.33476394849785,23,2.19512195121951,-36,-1.40243902439024,-19,1.15853658536585,-76,0.330434782608696,45,0.195652173913043,102,-0.497560975609756,
510468,2675.78125,1808,-1.10852237890864,-15728,-9.64316370324954,-3792,2.32495401594114,24,2.01219512195122,-33,-1.46341463414634,-17,1.03658536585366,-76,0.330434782608696,46,0.2,103,-0.502439024390244,
511108,2695.3125,1824,-1.11833231146536,-15696,-9.62354383813611,-3792,2.32495401594114,20,2.31707317073171,-38,-1.21951219512195,-14,0.853658536585366,-75,0.326086956521739,44,0.191304347826087,101,-0.492682926829268,
511748,2714.84375,1840,-1.12814224402207,-15744,-9.65297363580625,-3792,2.32495401594114,18,2.31707317073171,-38,-1.09756097560976,-10,0.609756097560976,-73,0.317391304347826,42,0.182608695652174,103,-0.502439024390244,
512388,2734.375,1872,-1.1477621091355,-15728,-9.64316370324954,-3776,2.31514408338443,20,2.31707317073171,-38,-1.21951219512195,-13,0.792682926829268,-74,0.321739130434783,47,0.204347826086957,101,-0.492682926829268,
513028,2753.90625,1872,-1.1477621091355,-15776,-9.67259350091968,-3696,2.26609442060086,28,2.4390243902439,-40,-1.70731707317073,-13,0.792682926829268,-75,0.326086956521739,46,0.2,103,-0.502439024390244,
513668,2773.4375,1840,-1.12814224402207,-15776,-9.67259350091968,-3776,2.31514408338443,30,2.4390243902439,-40,-1.82926829268293,-15,0.914634146341463,-75,0.326086956521739,45,0.195652173913043,103,-0.502439024390244,
514308,2792.96875,1760,-1.0790925812385,-15728,-9.64316370324954,-3712,2.27590435315757,28,2.74390243902439,-45,-1.70731707317073,-16,0.975609756097561,-75,0.326086956521739,42,0.182608695652174,104,-0.507317073170732,
514948,2812.5,1824,-1.11833231146536,-15712,-9.63335377069283,-3712,2.27590435315757,23,2.86585365853659,-47,-1.40243902439024,-11,0.670731707317073,-73,0.317391304347826,42,0.182608695652174,103,-0.502439024390244,
515588,2832.03125,1792,-1.09871244635193,-15712,-9.63335377069283,-3728,2.28571428571429,22,2.98780487804878,-49,-1.34146341463415,-9,0.548780487804878,-74,0.321739130434783,47,0.204347826086957,101,-0.492682926829268,
516228,2851.5625,1760,-1.0790925812385,-15776,-9.67259350091968,-3760,2.30533415082771,25,3.10975609756098,-51,-1.52439024390244,-11,0.670731707317073,-74,0.321739130434783,45,0.195652173913043,102,-0.497560975609756,
516868,2871.09375,1744,-1.06928264868179,-15744,-9.65297363580625,-3728,2.28571428571429,26,3.29268292682927,-54,-1.58536585365854,-12,0.731707317073171,-74,0.321739130434783,42,0.182608695652174,103,-0.502439024390244,
517508,2890.625,1712,-1.04966278356836,-15744,-9.65297363580625,-3792,2.32495401594114,19,3.47560975609756,-57,-1.15853658536585,-12,0.731707317073171,-75,0.326086956521739,43,0.18695652173913,103,-0.502439024390244,
518148,2910.15625,1680,-1.03004291845494,-15648,-9.59411404046597,-3728,2.28571428571429,9,3.47560975609756,-57,-0.548780487804878,-11,0.670731707317073,-73,0.317391304347826,44,0.191304347826087,102,-0.497560975609756,
518788,2929.6875,1744,-1.06928264868179,-15728,-9.64316370324954,-3680,2.25628448804414,4,3.59756097560976,-59,-0.24390243902439,-8,0.487804878048781,-74,0.321739130434783,44,0.191304347826087,103,-0.502439024390244,
519428,2949.21875,1728,-1.05947271612508,-15728,-9.64316370324954,-3712,2.27590435315757,7,3.59756097560976,-59,-0.426829268292683,-8,0.487804878048781,-76,0.330434782608696,43,0.18695652173913,103,-0.502439024390244,
520068,2968.75,1744,-1.06928264868179,-15696,-9.62354383813611,-3664,2.24647455548743,4,3.23170731707317,-53,-0.24390243902439,-6,0.365853658536585,-75,0.326086956521739,42,0.182608695652174,103,-0.502439024390244,
520708,2988.28125,1776,-1.08890251379522,-15744,-9.65297363580625,-3632,2.226854690374,5,3.17073170731707,-52,-0.304878048780488,-5,0.304878048780488,-77,0.334782608695652,48,0.208695652173913,101,-0.492682926829268,
521348,3007.8125,1840,-1.12814224402207,-15712,-9.63335377069283,-3664,2.24647455548743,2,3.10975609756098,-51,-0.121951219512195,-5,0.304878048780488,-75,0.326086956521739,42,0.182608695652174,102,-0.497560975609756,
521988,3027.34375,1728,-1.05947271612508,-15744,-9.65297363580625,-3632,2.226854690374,3,2.92682926829268,-48,-0.182926829268293,-6,0.365853658536585,-74,0.321739130434783,47,0.204347826086957,102,-0.497560975609756,
522628,3046.875,1760,-1.0790925812385,-15728,-9.64316370324954,-3520,2.15818516247701,-9,2.74390243902439,-45,0.548780487804878,0,0,-75,0.326086956521739,47,0.204347826086957,102,-0.497560975609756,
523268,3066.40625,1712,-1.04966278356836,-15792,-9.6824034334764,-3648,2.23666462293072,-13,2.86585365853659,-47,0.792682926829268,-1,0.0609756097560976,-74,0.321739130434783,43,0.18695652173913,102,-0.497560975609756,
523908,3085.9375,1760,-1.0790925812385,-15760,-9.66278356836297,-3648,2.23666462293072,-17,2.5609756097561,-42,1.03658536585366,-3,0.182926829268293,-74,0.321739130434783,44,0.191304347826087,100,-0.48780487804878,
524548,3105.46875,1760,-1.0790925812385,-15664,-9.60392397302268,-3616,2.21704475781729,-15,2.37804878048781,-39,0.914634146341463,-5,0.304878048780488,-76,0.330434782608696,44,0.191304347826087,102,-0.497560975609756,
525188,3125,1792,-1.09871244635193,-15632,-9.58430410790926,-3632,2.226854690374,-17,2.37804878048781,-39,1.03658536585366,-8,0.487804878048781,-74,0.321739130434783,47,0.204347826086957,102,-0.497560975609756,
525828,3144.53125,1696,-1.03985285101165,-15728,-9.64316370324954,-3600,2.20723482526058,-15,2.5,-41,0.914634146341463,-2,0.121951219512195,-72,0.31304347826087,42,0.182608695652174,103,-0.502439024390244,
526468,3164.0625,1744,-1.06928264868179,-15632,-9.58430410790926,-3680,2.25628448804414,-25,2.4390243902439,-40,1.52439024390244,4,-0.24390243902439,-74,0.321739130434783,42,0.182608695652174,103,-0.502439024390244,
527108,3183.59375,1792,-1.09871244635193,-15728,-9.64316370324954,-3744,2.295524218271,-27,2.25609756097561,-37,1.64634146341463,10,-0.609756097560976,-74,0.321739130434783,45,0.195652173913043,102,-0.497560975609756,
527748,3203.125,1792,-1.09871244635193,-15680,-9.6137339055794,-3712,2.27590435315757,-17,2.01219512195122,-33,1.03658536585366,8,-0.487804878048781,-74,0.321739130434783,44,0.191304347826087,102,-0.497560975609756,
528388,3222.65625,1744,-1.06928264868179,-15712,-9.63335377069283,-3632,2.226854690374,-2,2.4390243902439,-40,0.121951219512195,6,-0.365853658536585,-75,0.326086956521739,44,0.191304347826087,102,-0.497560975609756,
529028,3242.1875,1792,-1.09871244635193,-15680,-9.6137339055794,-3680,2.25628448804414,5,2.31707317073171,-38,-0.304878048780488,2,-0.121951219512195,-76,0.330434782608696,44,0.191304347826087,103,-0.502439024390244,
529668,3261.71875,1792,-1.09871244635193,-15760,-9.66278356836297,-3728,2.28571428571429,-2,2.5,-41,0.121951219512195,1,-0.0609756097560976,-73,0.317391304347826,43,0.18695652173913,102,-0.497560975609756,
530308,3281.25,1760,-1.0790925812385,-15776,-9.67259350091968,-3744,2.295524218271,-11,2.6219512195122,-43,0.670731707317073,-1,0.0609756097560976,-76,0.330434782608696,43,0.18695652173913,103,-0.502439024390244,
530948,3300.78125,1744,-1.06928264868179,-15760,-9.66278356836297,-3760,2.30533415082771,-17,2.68292682926829,-44,1.03658536585366,0,0,-75,0.326086956521739,43,0.18695652173913,103,-0.502439024390244,
531588,3320.3125,1808,-1.10852237890864,-15792,-9.6824034334764,-3632,2.226854690374,-17,2.92682926829268,-48,1.03658536585366,-3,0.182926829268293,-75,0.326086956521739,46,0.2,102,-0.497560975609756,
532228,3339.84375,1792,-1.09871244635193,-15744,-9.65297363580625,-3712,2.27590435315757,-10,3.04878048780488,-50,0.609756097560976,-4,0.24390243902439,-74,0.321739130434783,42,0.182608695652174,103,-0.502439024390244,
532868,3359.375,1808,-1.10852237890864,-15648,-9.59411404046597,-3648,2.23666462293072,-10,3.17073170731707,-52,0.609756097560976,-6,0.365853658536585,-73,0.317391304347826,41,0.178260869565217,103,-0.502439024390244,
533508,3378.90625,1776,-1.08890251379522,-15632,-9.58430410790926,-3696,2.26609442060086,-8,2.98780487804878,-49,0.487804878048781,-3,0.182926829268293,-76,0.330434782608696,47,0.204347826086957,102,-0.497560975609756,
534148,3398.4375,1824,-1.11833231146536,-15616,-9.57449417535254,-3616,2.21704475781729,-5,2.74390243902439,-45,0.304878048780488,-4,0.24390243902439,-75,0.326086956521739,48,0.208695652173913,101,-0.492682926829268,
534788,3417.96875,1872,-1.1477621091355,-15776,-9.67259350091968,-3680,2.25628448804414,-1,2.5609756097561,-42,0.0609756097560976,1,-0.0609756097560976,-74,0.321739130434783,42,0.182608695652174,104,-0.507317073170732,
535428,3437.5,1920,-1.17719190680564,-15744,-9.65297363580625,-3664,2.24647455548743,1,2.5609756097561,-42,-0.0609756097560976,-3,0.182926829268293,-76,0.330434782608696,44,0.191304347826087,102,-0.497560975609756,
536068,3457.03125,1856,-1.13795217657879,-15648,-9.59411404046597,-3632,2.226854690374,8,2.25609756097561,-37,-0.487804878048781,-6,0.365853658536585,-74,0.321739130434783,44,0.191304347826087,102,-0.497560975609756,
536708,3476.5625,2048,-1.25567136725935,-15552,-9.53525444512569,-3760,2.30533415082771,29,1.89024390243902,-31,-1.76829268292683,-11,0.670731707317073,-74,0.321739130434783,42,0.182608695652174,103,-0.502439024390244,
537348,3496.09375,2576,-1.5793991416309,-15664,-9.60392397302268,-4128,2.53096259963213,99,0.304878048780488,-5,-6.03658536585366,-13,0.792682926829268,-74,0.321739130434783,43,0.18695652173913,104,-0.507317073170732,
537988,3515.625,3680,-2.25628448804414,-16176,-9.91784181483752,-5008,3.07050889025138,316,-2.98780487804878,49,-19.2682926829268,-9,0.548780487804878,-74,0.321739130434783,46,0.2,100,-0.48780487804878,
538628,3535.15625,4576,-2.80564071122011,-16352,-10.0257510729614,-6288,3.85530349478847,718,-6.34146341463415,104,-43.780487804878,-22,1.34146341463415,-76,0.330434782608696,51,0.221739130434783,101,-0.492682926829268,
539268,3554.6875,4480,-2.74678111587983,-16400,-10.0551808706315,-8160,5.00306560392397,1136,-4.75609756097561,78,-69.2682926829268,-81,4.9390243902439,-75,0.326086956521739,43,0.18695652173913,101,-0.492682926829268,
539908,3574.21875,4304,-2.63887185775598,-16080,-9.85898221949724,-10064,6.1704475781729,1342,3.47560975609756,-57,-81.8292682926829,-174,10.609756097561,-75,0.326086956521739,44,0.191304347826087,96,-0.468292682926829,
540548,3593.75,4400,-2.69773145309626,-16416,-10.0649908031882,-12112,7.42611894543225,1500,15.1219512195122,-248,-91.4634146341463,-219,13.3536585365854,-70,0.304347826086957,43,0.18695652173913,97,-0.473170731707317,
541188,3613.28125,3552,-2.17780502759044,-16816,-10.3102391171061,-13968,8.56407112201104,1525,34.7560975609756,-570,-92.9878048780488,-237,14.4512195121951,-66,0.28695652173913,45,0.195652173913043,93,-0.453658536585366,
541828,3632.8125,3584,-2.19742489270386,-17152,-10.5162477007971,-14928,9.15266707541386,1267,53.7804878048781,-882,-77.2560975609756,-279,17.0121951219512,-64,0.278260869565217,39,0.169565217391304,96,-0.468292682926829,
542468,3652.34375,3952,-2.42305334150828,-17504,-10.7320662170448,-15344,9.40772532188841,1006,71.9512195121951,-1180,-61.3414634146341,-315,19.2073170731707,-56,0.243478260869565,38,0.165217391304348,98,-0.478048780487805,
543108,3671.875,4432,-2.71735131820969,-18000,-11.0361741263029,-15792,9.6824034334764,797,90.7317073170732,-1488,-48.5975609756098,-377,22.9878048780488,-52,0.226086956521739,33,0.143478260869565,97,-0.473170731707317,
543748,3691.40625,4880,-2.99202942979767,-18608,-11.408951563458,-15808,9.69221336603311,712,109.329268292683,-1793,-43.4146341463415,-458,27.9268292682927,-45,0.195652173913043,30,0.130434782608696,103,-0.502439024390244,
544388,3710.9375,4768,-2.92335990190067,-19200,-11.7719190680564,-15552,9.53525444512569,698,127.134146341463,-2085,-42.5609756097561,-532,32.4390243902439,-44,0.191304347826087,33,0.143478260869565,107,-0.521951219512195,
545028,3730.46875,4272,-2.61925199264255,-19728,-12.095646842428,-14800,9.07418761496015,608,143.231707317073,-2349,-37.0731707317073,-609,37.1341463414634,-40,0.173913043478261,33,0.143478260869565,113,-0.551219512195122,
545668,3750,3856,-2.364193746168,-20272,-12.4291845493562,-13904,8.52483139178418,414,156.341463414634,-2564,-25.2439024390244,-661,40.3048780487805,-40,0.173913043478261,30,0.130434782608696,117,-0.570731707317073,
546308,3769.53125,3568,-2.18761496014715,-20464,-12.5469037400368,-13152,8.06376456161864,216,167.560975609756,-2748,-13.1707317073171,-697,42.5,-37,0.160869565217391,22,0.0956521739130435,125,-0.609756097560976,
546948,3789.0625,3456,-2.11894543225015,-20288,-12.4389944819129,-12624,7.74003678724709,18,174.69512195122,-2865,-1.09756097560976,-717,43.719512195122,-37,0.160869565217391,24,0.104347826086957,126,-0.614634146341463,
547588,3808.59375,3472,-2.12875536480687,-19824,-12.1545064377682,-12272,7.52421827099939,-87,179.207317073171,-2939,5.30487804878049,-734,44.7560975609756,-38,0.165217391304348,22,0.0956521739130435,133,-0.648780487804878,
548228,3828.125,3552,-2.17780502759044,-19184,-11.7621091354997,-11760,7.21030042918455,-117,181.219512195122,-2972,7.13414634146342,-739,45.0609756097561,-36,0.156521739130435,14,0.0608695652173913,138,-0.673170731707317,
548868,3847.65625,3632,-2.226854690374,-18928,-11.6051502145923,-10992,6.73942366646229,-89,179.573170731707,-2945,5.42682926829268,-724,44.1463414634146,-39,0.169565217391304,12,0.0521739130434783,143,-0.697560975609756,
549508,3867.1875,3616,-2.21704475781729,-18112,-11.1048436541999,-10800,6.62170447578173,-2,176.341463414634,-2892,0.121951219512195,-685,41.7682926829268,-38,0.165217391304348,11,0.0478260869565217,145,-0.707317073170732,
550148,3886.71875,3712,-2.27590435315757,-16976,-10.4083384426732,-10896,6.68056407112201,152,170.731707317073,-2800,-9.26829268292683,-633,38.5975609756098,-37,0.160869565217391,5,0.0217391304347826,150,-0.731707317073171,
550788,3906.25,3664,-2.24647455548743,-15728,-9.64316370324954,-10832,6.64132434089516,360,164.634146341463,-2700,-21.9512195121951,-563,34.3292682926829,-40,0.173913043478261,-1,-0.00434782608695652,152,-0.741463414634146,
551428,3925.78125,3424,-2.09932556713673,-14560,-8.92703862660944,-10816,6.63151440833844,591,158.719512195122,-2603,-36.0365853658537,-505,30.7926829268293,-38,0.165217391304348,-3,-0.0130434782608696,153,-0.746341463414634,
552068,3945.3125,2960,-1.81483752299203,-13440,-8.24034334763948,-10448,6.40588595953403,737,153.170731707317,-2512,-44.9390243902439,-465,28.3536585365854,-36,0.156521739130435,-3,-0.0130434782608696,154,-0.751219512195122,
552708,3964.84375,2288,-1.40282035561006,-12016,-7.36725935009197,-10096,6.19006744328633,812,146.036585365854,-2395,-49.5121951219512,-445,27.1341463414634,-33,0.143478260869565,-15,-0.0652173913043478,157,-0.765853658536585,
553348,3984.375,2448,-1.50091968117719,-11088,-6.79828326180257,-10080,6.18025751072961,835,136.951219512195,-2246,-50.9146341463415,-469,28.5975609756098,-32,0.139130434782609,-14,-0.0608695652173913,157,-0.765853658536585,
553988,4003.90625,2416,-1.48129981606376,-9168,-5.62109135499693,-10320,6.32740649908032,973,133.292682926829,-2186,-59.3292682926829,-447,27.2560975609756,-29,0.126086956521739,-19,-0.0826086956521739,158,-0.770731707317073,
554628,4023.4375,2032,-1.24586143470264,-8448,-5.17964438994482,-9968,6.11158798283262,1080,126.829268292683,-2080,-65.8536585365854,-400,24.390243902439,-28,0.121739130434783,-21,-0.091304347826087,155,-0.75609756097561,
555268,4042.96875,1680,-1.03004291845494,-7552,-4.63028816676885,-9408,5.76824034334764,1106,123.109756097561,-2019,-67.4390243902439,-378,23.0487804878049,-28,0.121739130434783,-21,-0.091304347826087,154,-0.751219512195122,
555908,4062.5,928,-0.568976088289393,-6416,-3.93378295524218,-9056,5.55242182709994,1061,115.30487804878,-1891,-64.6951219512195,-351,21.4024390243902,-25,0.108695652173913,-25,-0.108695652173913,155,-0.75609756097561,
556548,4082.03125,208,-0.127529123237278,-5424,-3.32556713672594,-8880,5.44451256897609,886,108.658536585366,-1782,-54.0243902439024,-350,21.3414634146341,-22,0.0956521739130435,-28,-0.121739130434783,155,-0.75609756097561,
557188,4101.5625,-48,0.029429797670141,-4544,-2.78602084610668,-8816,5.40527283874923,651,101.341463414634,-1662,-39.6951219512195,-349,21.280487804878,-19,0.0826086956521739,-37,-0.160869565217391,156,-0.760975609756098,
557828,4121.09375,176,-0.10790925812385,-3408,-2.08951563458001,-8624,5.28755364806867,482,92.5609756097561,-1518,-29.390243902439,-374,22.8048780487805,-18,0.0782608695652174,-34,-0.147826086956522,153,-0.746341463414634,
558468,4140.625,144,-0.088289393010423,-3024,-1.85407725321888,-8640,5.29736358062538,455,81.9512195121951,-1344,-27.7439024390244,-358,21.8292682926829,-19,0.0826086956521739,-36,-0.156521739130435,153,-0.746341463414634,
559108,4160.15625,-192,0.117719190680564,-2064,-1.26548129981606,-8752,5.36603310852238,494,73.9634146341463,-1213,-30.1219512195122,-355,21.6463414634146,-15,0.0652173913043478,-39,-0.169565217391304,151,-0.736585365853659,
559748,4179.6875,-400,0.245248313917842,-1328,-0.814224402207235,-8976,5.50337216431637,541,64.2682926829268,-1054,-32.9878048780488,-311,18.9634146341463,-14,0.0608695652173913,-44,-0.191304347826087,154,-0.751219512195122,
560388,4199.21875,-704,0.431637032495402,-912,-0.559166155732679,-9328,5.71919068056407,607,55,-902,-37.0121951219512,-255,15.5487804878049,-14,0.0608695652173913,-45,-0.195652173913043,152,-0.741463414634146,
561028,4218.75,-1216,0.745554874310239,-416,-0.255058246474555,-9456,5.79767014101778,610,46.890243902439,-769,-37.1951219512195,-201,12.2560975609756,-11,0.0478260869565217,-43,-0.18695652173913,149,-0.726829268292683,
561668,4238.28125,-1680,1.03004291845494,64,0.0392397302268547,-9696,5.94481912936849,550,37.2560975609756,-611,-33.5365853658537,-155,9.45121951219512,-9,0.0391304347826087,-46,-0.2,148,-0.721951219512195,
562308,4257.8125,-1904,1.16738197424893,560,0.343347639484979,-10240,6.27835683629675,481,28.1707317073171,-462,-29.3292682926829,-109,6.64634146341464,-12,0.0521739130434783,-47,-0.204347826086957,147,-0.717073170731707,
562948,4277.34375,-1936,1.18700183936235,912,0.559166155732679,-10896,6.68056407112201,409,19.3292682926829,-317,-24.9390243902439,-63,3.84146341463415,-9,0.0391304347826087,-47,-0.204347826086957,147,-0.717073170731707,
563588,4296.875,-1888,1.15757204169221,1088,0.66707541385653,-11520,7.06315144083384,371,12.1951219512195,-200,-22.6219512195122,-19,1.15853658536585,-9,0.0391304347826087,-46,-0.2,147,-0.717073170731707,
564228,4316.40625,-2016,1.23605150214592,1168,0.716125076640098,-12384,7.59288779889638,361,5.54878048780488,-91,-22.0121951219512,29,-1.76829268292683,-10,0.0434782608695652,-44,-0.191304347826087,144,-0.702439024390244,
564868,4335.9375,-2160,1.32434089515635,1136,0.696505211526671,-13216,8.10300429184549,320,0.487804878048781,-8,-19.5121951219512,74,-4.51219512195122,-9,0.0391304347826087,-45,-0.195652173913043,145,-0.707317073170732,
565508,4355.46875,-2112,1.2949110974862,1024,0.627835683629675,-14064,8.62293071735132,212,-2.86585365853659,47,-12.9268292682927,108,-6.58536585365854,-7,0.0304347826086957,-43,-0.18695652173913,145,-0.707317073170732,
566148,4375,-1936,1.18700183936235,736,0.451256897608829,-14624,8.9662783568363,68,-4.32926829268293,71,-4.14634146341463,131,-7.98780487804878,-6,0.0260869565217391,-50,-0.217391304347826,146,-0.712195121951219,
566788,4394.53125,-1584,0.971183323114654,464,0.284488044144696,-15072,9.24095646842428,-47,-5,82,2.86585365853659,154,-9.39024390243902,-8,0.0347826086956522,-42,-0.182608695652174,144,-0.702439024390244,
567428,4414.0625,-1504,0.922133660331085,256,0.156958920907419,-15312,9.38810545677498,-159,-5.18292682926829,85,9.69512195121951,146,-8.90243902439025,-8,0.0347826086956522,-44,-0.191304347826087,144,-0.702439024390244,
568068,4433.59375,-1216,0.745554874310239,112,0.0686695278969957,-15632,9.58430410790926,-262,-5.36585365853659,88,15.9756097560976,128,-7.80487804878049,-10,0.0434782608695652,-44,-0.191304347826087,145,-0.707317073170732,
568708,4453.125,-656,0.402207234825261,160,0.0980993255671367,-15760,9.66278356836297,-323,-5.0609756097561,83,19.6951219512195,93,-5.67073170731707,-10,0.0434782608695652,-44,-0.191304347826087,145,-0.707317073170732,
569348,4472.65625,-368,0.225628448804414,320,0.196198651134273,-15952,9.78050275904353,-265,-5.60975609756098,92,16.1585365853659,56,-3.41463414634146,-9,0.0391304347826087,-46,-0.2,147,-0.717073170731707,
569988,4492.1875,-400,0.245248313917842,400,0.245248313917842,-16096,9.86879215205395,-118,-5.60975609756098,92,7.19512195121951,29,-1.76829268292683,-10,0.0434782608695652,-44,-0.191304347826087,147,-0.717073170731707,
570628,4511.71875,-608,0.37277743715512,400,0.245248313917842,-16336,10.0159411404047,14,-5.85365853658537,96,-0.853658536585366,13,-0.792682926829268,-10,0.0434782608695652,-46,-0.2,148,-0.721951219512195,
571268,4531.25,-832,0.510116492949111,288,0.176578786020846,-16512,10.1238503985285,129,-4.9390243902439,81,-7.86585365853659,5,-0.304878048780488,-10,0.0434782608695652,-45,-0.195652173913043,146,-0.712195121951219,
571908,4550.78125,-1136,0.696505211526671,256,0.156958920907419,-16592,10.1729000613121,204,-4.14634146341463,68,-12.4390243902439,7,-0.426829268292683,-11,0.0478260869565217,-47,-0.204347826086957,147,-0.717073170731707,
572548,4570.3125,-1520,0.931943592887799,240,0.147148988350705,-16720,10.2513795217658,197,-3.10975609756098,51,-12.0121951219512,9,-0.548780487804878,-7,0.0304347826086957,-47,-0.204347826086957,146,-0.712195121951219,
573188,4589.84375,-1632,1.00061312078479,208,0.127529123237278,-16864,10.3396689147762,122,-2.31707317073171,38,-7.4390243902439,8,-0.487804878048781,-9,0.0391304347826087,-48,-0.208695652173913,147,-0.717073170731707,
573828,4609.375,-1488,0.912323727774372,128,0.0784794604537094,-16848,10.3298589822195,40,-1.34146341463415,22,-2.4390243902439,14,-0.853658536585366,-8,0.0347826086956522,-45,-0.195652173913043,147,-0.717073170731707,
574468,4628.90625,-1376,0.843654199877376,144,0.088289393010423,-16784,10.2906192519926,-3,0,0,0.182926829268293,31,-1.89024390243902,-9,0.0391304347826087,-42,-0.182608695652174,146,-0.712195121951219,
575108,4648.4375,-1312,0.804414469650521,160,0.0980993255671367,-16720,10.2513795217658,-47,1.21951219512195,-20,2.86585365853659,44,-2.68292682926829,-11,0.0478260869565217,-41,-0.178260869565217,144,-0.702439024390244,
575748,4667.96875,-1120,0.686695278969957,96,0.058859595340282,-16560,10.1532801961987,-59,2.07317073170732,-34,3.59756097560976,44,-2.68292682926829,-9,0.0391304347826087,-41,-0.178260869565217,147,-0.717073170731707,
576388,4687.5,-880,0.539546290619252,144,0.088289393010423,-16528,10.1336603310852,-39,2.4390243902439,-40,2.37804878048781,39,-2.37804878048781,-9,0.0391304347826087,-41,-0.178260869565217,146,-0.712195121951219,
577028,4707.03125,-864,0.529736358062538,144,0.088289393010423,-16256,9.96689147762109,4,3.23170731707317,-53,-0.24390243902439,26,-1.58536585365854,-10,0.0434782608695652,-43,-0.18695652173913,147,-0.717073170731707,
577668,4726.5625,-960,0.58859595340282,176,0.10790925812385,-16112,9.87860208461067,40,3.71951219512195,-61,-2.4390243902439,10,-0.609756097560976,-8,0.0347826086956522,-48,-0.208695652173913,148,-0.721951219512195,
578308,4746.09375,-1200,0.735744941753525,160,0.0980993255671367,-16048,9.83936235438381,59,4.08536585365854,-67,-3.59756097560976,-3,0.182926829268293,-8,0.0347826086956522,-46,-0.2,146,-0.712195121951219,
578948,4765.625,-1248,0.765174739423666,176,0.10790925812385,-16000,9.80993255671367,54,4.20731707317073,-69,-3.29268292682927,-13,0.792682926829268,-8,0.0347826086956522,-45,-0.195652173913043,146,-0.712195121951219,
579588,4785.15625,-1312,0.804414469650521,224,0.137339055793991,-15808,9.69221336603311,47,4.08536585365854,-67,-2.86585365853659,-14,0.853658536585366,-8,0.0347826086956522,-47,-0.204347826086957,147,-0.717073170731707,
580228,4804.6875,-1392,0.853464132434089,288,0.176578786020846,-15744,9.65297363580625,26,3.47560975609756,-57,-1.58536585365854,-6,0.365853658536585,-9,0.0391304347826087,-47,-0.204347826086957,146,-0.712195121951219,
580868,4824.21875,-1360,0.833844267320662,320,0.196198651134273,-15776,9.67259350091968,7,2.92682926829268,-48,-0.426829268292683,0,0,-6,0.0260869565217391,-44,-0.191304347826087,146,-0.712195121951219,
581508,4843.75,-1264,0.77498467198038,304,0.18638871857756,-15824,9.70202329858982,0,2.01219512195122,-33,0,18,-1.09756097560976,-8,0.0347826086956522,-45,-0.195652173913043,146,-0.712195121951219,
582148,4863.28125,-1216,0.745554874310239,304,0.18638871857756,-15840,9.71183323114654,10,1.21951219512195,-20,-0.609756097560976,32,-1.95121951219512,-9,0.0391304347826087,-47,-0.204347826086957,146,-0.712195121951219,
582788,4882.8125,-1152,0.706315144083384,288,0.176578786020846,-15936,9.77069282648682,15,0.548780487804878,-9,-0.914634146341463,43,-2.6219512195122,-9,0.0391304347826087,-43,-0.18695652173913,145,-0.707317073170732,
583428,4902.34375,-1152,0.706315144083384,240,0.147148988350705,-16176,9.91784181483752,19,0.365853658536585,-6,-1.15853658536585,42,-2.5609756097561,-9,0.0391304347826087,-44,-0.191304347826087,146,-0.712195121951219,
584068,4921.875,-1040,0.637645616186389,160,0.0980993255671367,-16224,9.94727161250766,15,0.487804878048781,-8,-0.914634146341463,34,-2.07317073170732,-10,0.0434782608695652,-40,-0.173913043478261,144,-0.702439024390244,
584708,4941.40625,-1008,0.618025751072961,96,0.058859595340282,-16272,9.9767014101778,33,0.731707317073171,-12,-2.01219512195122,27,-1.64634146341463,-9,0.0391304347826087,-42,-0.182608695652174,145,-0.707317073170732,
585348,4960.9375,-976,0.598405885959534,192,0.117719190680564,-16288,9.98651134273452,49,1.28048780487805,-21,-2.98780487804878,11,-0.670731707317073,-8,0.0347826086956522,-42,-0.182608695652174,146,-0.712195121951219,
585988,4980.46875,-1040,0.637645616186389,192,0.117719190680564,-16272,9.9767014101778,76,1.52439024390244,-25,-4.63414634146342,1,-0.0609756097560976,-11,0.0478260869565217,-48,-0.208695652173913,146,-0.712195121951219,
586628,5000,-1120,0.686695278969957,272,0.166768853464132,-16256,9.96689147762109,80,1.34146341463415,-22,-4.87804878048781,-27,1.64634146341463,-9,0.0391304347826087,-43,-0.18695652173913,146,-0.712195121951219,
587268,5019.53125,-992,0.608215818516248,272,0.166768853464132,-16320,10.0061312078479,97,1.52439024390244,-25,-5.91463414634146,-31,1.89024390243902,-8,0.0347826086956522,-46,-0.2,145,-0.707317073170732,
587908,5039.0625,-1136,0.696505211526671,224,0.137339055793991,-16288,9.98651134273452,87,2.01219512195122,-33,-5.30487804878049,-40,2.4390243902439,-7,0.0304347826086957,-46,-0.2,145,-0.707317073170732,
588548,5058.59375,-1232,0.755364806866953,192,0.117719190680564,-16192,9.92765174739424,72,2.37804878048781,-39,-4.39024390243902,-48,2.92682926829268,-6,0.0260869565217391,-48,-0.208695652173913,147,-0.717073170731707,
589188,5078.125,-1152,0.706315144083384,160,0.0980993255671367,-16176,9.91784181483752,75,2.6219512195122,-43,-4.57317073170732,-55,3.35365853658537,-6,0.0260869565217391,-46,-0.2,144,-0.702439024390244,
589828,5097.65625,-1296,0.794604537093807,128,0.0784794604537094,-16256,9.96689147762109,61,3.17073170731707,-52,-3.71951219512195,-60,3.65853658536585,-8,0.0347826086956522,-43,-0.18695652173913,145,-0.707317073170732,
590468,5117.1875,-1392,0.853464132434089,0,0,-16192,9.92765174739424,34,3.65853658536585,-60,-2.07317073170732,-66,4.02439024390244,-8,0.0347826086956522,-41,-0.178260869565217,145,-0.707317073170732,
591108,5136.71875,-1472,0.902513795217658,48,0.029429797670141,-16032,9.8295524218271,21,4.32926829268293,-71,-1.28048780487805,-67,4.08536585365854,-7,0.0304347826086957,-48,-0.208695652173913,146,-0.712195121951219,
591748,5156.25,-1600,0.980993255671367,48,0.029429797670141,-16064,9.84917228694053,9,5.24390243902439,-86,-0.548780487804878,-75,4.57317073170732,-8,0.0347826086956522,-48,-0.208695652173913,145,-0.707317073170732,
592388,5175.78125,-1632,1.00061312078479,96,0.058859595340282,-15952,9.78050275904353,12,5.42682926829268,-89,-0.731707317073171,-83,5.0609756097561,-6,0.0260869565217391,-47,-0.204347826086957,144,-0.702439024390244,
593028,5195.3125,-1616,0.990803188228081,144,0.088289393010423,-15872,9.73145309625996,25,5.42682926829268,-89,-1.52439024390244,-80,4.87804878048781,-6,0.0260869565217391,-43,-0.18695652173913,143,-0.697560975609756,
593668,5214.84375,-1664,1.02023298589822,176,0.10790925812385,-15792,9.6824034334764,38,4.51219512195122,-74,-2.31707317073171,-75,4.57317073170732,-6,0.0260869565217391,-43,-0.18695652173913,146,-0.712195121951219,
594308,5234.375,-1584,0.971183323114654,208,0.127529123237278,-15728,9.64316370324954,67,4.08536585365854,-67,-4.08536585365854,-70,4.26829268292683,-8,0.0347826086956522,-42,-0.182608695652174,146,-0.712195121951219,
594948,5253.90625,-1712,1.04966278356836,224,0.137339055793991,-15680,9.6137339055794,88,3.53658536585366,-58,-5.36585365853659,-68,4.14634146341463,-5,0.0217391304347826,-47,-0.204347826086957,145,-0.707317073170732,
595588,5273.4375,-1840,1.12814224402207,272,0.166768853464132,-15856,9.72164316370325,80,2.98780487804878,-49,-4.87804878048781,-67,4.08536585365854,-5,0.0217391304347826,-47,-0.204347826086957,145,-0.707317073170732,
596228,5292.96875,-1952,1.19681177191907,400,0.245248313917842,-15776,9.67259350091968,75,2.19512195121951,-36,-4.57317073170732,-61,3.71951219512195,-7,0.0304347826086957,-44,-0.191304347826087,145,-0.707317073170732,
596868,5312.5,-1984,1.2164316370325,480,0.29429797670141,-15872,9.73145309625996,71,1.21951219512195,-20,-4.32926829268293,-55,3.35365853658537,-6,0.0260869565217391,-44,-0.191304347826087,143,-0.697560975609756,
597508,5332.03125,-2032,1.24586143470264,528,0.323727774371551,-15936,9.77069282648682,76,0.609756097560976,-10,-4.63414634146342,-33,2.01219512195122,-5,0.0217391304347826,-45,-0.195652173913043,144,-0.702439024390244,
598148,5351.5625,-2112,1.2949110974862,496,0.304107909258124,-16016,9.81974248927039,69,-0.0609756097560976,1,-4.20731707317073,-18,1.09756097560976,-7,0.0304347826086957,-41,-0.178260869565217,143,-0.697560975609756,
598788,5371.09375,-2096,1.28510116492949,368,0.225628448804414,-16080,9.85898221949724,74,-0.182926829268293,3,-4.51219512195122,2,-0.121951219512195,-4,0.0173913043478261,-43,-0.18695652173913,142,-0.692682926829268,
599428,5390.625,-2144,1.31453096259963,288,0.176578786020846,-16064,9.84917228694053,63,0.24390243902439,-4,-3.84146341463415,18,-1.09756097560976,-6,0.0260869565217391,-42,-0.182608695652174,142,-0.692682926829268,
600068,5410.15625,-2096,1.28510116492949,112,0.0686695278969957,-16096,9.86879215205395,39,0.792682926829268,-13,-2.37804878048781,23,-1.40243902439024,-7,0.0304347826086957,-39,-0.169565217391304,142,-0.692682926829268,
600708,5429.6875,-2064,1.26548129981606,-80,-0.0490496627835684,-16112,9.87860208461067,12,2.01219512195122,-33,-0.731707317073171,23,-1.40243902439024,-6,0.0260869565217391,-46,-0.2,145,-0.707317073170732,
601348,5449.21875,-2080,1.27529123237278,-144,-0.088289393010423,-16160,9.90803188228081,-33,3.04878048780488,-50,2.01219512195122,12,-0.731707317073171,-7,0.0304347826086957,-41,-0.178260869565217,141,-0.68780487804878,
601988,5468.75,-1904,1.16738197424893,-144,-0.088289393010423,-16192,9.92765174739424,-45,3.78048780487805,-62,2.74390243902439,3,-0.182926829268293,-4,0.0173913043478261,-47,-0.204347826086957,143,-0.697560975609756,
602628,5488.28125,-1872,1.1477621091355,-64,-0.0392397302268547,-16160,9.90803188228081,-36,4.08536585365854,-67,2.19512195121951,0,0,-5,0.0217391304347826,-46,-0.2,145,-0.707317073170732,
603268,5507.8125,-1808,1.10852237890864,32,0.0196198651134273,-16064,9.84917228694053,-22,4.32926829268293,-71,1.34146341463415,-3,0.182926829268293,-8,0.0347826086956522,-40,-0.173913043478261,141,-0.68780487804878,
603908,5527.34375,-1872,1.1477621091355,176,0.10790925812385,-16064,9.84917228694053,-8,4.32926829268293,-71,0.487804878048781,-4,0.24390243902439,-7,0.0304347826086957,-42,-0.182608695652174,142,-0.692682926829268,
604548,5546.875,-1872,1.1477621091355,240,0.147148988350705,-16048,9.83936235438381,9,4.14634146341463,-68,-0.548780487804878,3,-0.182926829268293,-5,0.0217391304347826,-47,-0.204347826086957,144,-0.702439024390244,
605188,5566.40625,-1920,1.17719190680564,304,0.18638871857756,-16016,9.81974248927039,10,4.26829268292683,-70,-0.609756097560976,4,-0.24390243902439,-6,0.0260869565217391,-43,-0.18695652173913,145,-0.707317073170732,
605828,5585.9375,-1920,1.17719190680564,384,0.235438381361128,-16016,9.81974248927039,2,4.02439024390244,-66,-0.121951219512195,11,-0.670731707317073,-8,0.0347826086956522,-42,-0.182608695652174,142,-0.692682926829268,
606468,5605.46875,-1968,1.20662170447578,448,0.274678111587983,-16016,9.81974248927039,-7,3.47560975609756,-57,0.426829268292683,17,-1.03658536585366,-4,0.0173913043478261,-47,-0.204347826086957,145,-0.707317073170732,
607108,5625,-1904,1.16738197424893,464,0.284488044144696,-16000,9.80993255671367,-16,2.74390243902439,-45,0.975609756097561,27,-1.64634146341463,-7,0.0304347826086957,-47,-0.204347826086957,145,-0.707317073170732,
607748,5644.53125,-1840,1.12814224402207,448,0.274678111587983,-16000,9.80993255671367,-8,2.31707317073171,-38,0.487804878048781,35,-2.13414634146341,-4,0.0173913043478261,-44,-0.191304347826087,143,-0.697560975609756,
608388,5664.0625,-1712,1.04966278356836,304,0.18638871857756,-16000,9.80993255671367,4,1.89024390243902,-31,-0.24390243902439,47,-2.86585365853659,-6,0.0260869565217391,-43,-0.18695652173913,145,-0.707317073170732,
609028,5683.59375,-1712,1.04966278356836,144,0.088289393010423,-15920,9.7608828939301,10,1.82926829268293,-30,-0.609756097560976,50,-3.04878048780488,-7,0.0304347826086957,-46,-0.2,145,-0.707317073170732,
13893520,923094.116210938,-8193,5.0232985898222,768,0.470876762722256,-1408,0.863274064990803,4,-1327.37804878049,21769,-0.24390243902439,-25,1.52439024390244,-16129,70.1260869565217,-5,-0.0217391304347826,16578,-80.8682926829268,
13827984,1433094.11621094,-7425,4.55242182709994,-2817,-1.7271612507664,-1504,0.922133660331085,132,-1358.59756097561,22281,-8.04878048780488,0,0,-16129,70.1260869565217,-4,-0.0173913043478261,4290,-20.9268292682927,
13827984,1433094.11621094,-5633,3.45370938074801,-3585,-2.19803801348866,-1600,0.980993255671367,4,-1405.42682926829,23049,-0.24390243902439,14,-0.853658536585366,0,0,-5,-0.0217391304347826,194,-0.946341463414634,
13696911,1941094.08569336,-4865,2.98283261802575,-2561,-1.57020232985898,-1664,1.02023298589822,132,-1436.64634146341,23561,-8.04878048780488,40,-2.4390243902439,16384,-71.2347826086957,-9,-0.0391304347826087,-24383,118.941463414634,
14221198,1957094.05517578,-4097,2.51195585530349,0,0,-1856,1.13795217657879,4,-1483.4756097561,24329,-0.24390243902439,48,-2.92682926829268,-32768,142.469565217391,-6,-0.0260869565217391,24769,-120.824390243902,
13959057,2461094.14672852,-4097,2.51195585530349,2560,1.56958920907419,-1856,1.13795217657879,132,-1514.69512195122,24841,-8.04878048780488,41,-2.5,-12288,53.4260869565217,-5,-0.0217391304347826,12481,-60.8829268292683,
13696912,2965094.11621094,-4097,2.51195585530349,5376,3.29613733905579,-1840,1.12814224402207,4,-1561.5243902439,25609,-0.24390243902439,22,-1.34146341463415,-24576,106.852173913043,-8,-0.0347826086956522,-28480,138.926829268293,
14090126,2977094.05517578,-6145,3.76762722256284,7424,4.55180870631514,-1744,1.06928264868179,132,-1592.74390243902,26121,-8.04878048780488,7,-0.426829268292683,-32768,142.469565217391,-6,-0.0260869565217391,-32576,158.907317073171,
13959056,3485094.11621094,-6913,4.2385039852851,7680,4.70876762722256,-1728,1.05947271612508,4,-1639.57317073171,26889,-0.24390243902439,-2,0.121951219512195,16384,-71.2347826086957,-7,-0.0304347826086957,20672,-100.839024390244,
13827983,3993094.08569336,-10241,6.27896995708154,5888,3.61005518087063,-1568,0.96137339055794,132,-1670.79268292683,27401,-8.04878048780488,-6,0.365853658536585,8192,-35.6173913043478,-4,-0.0173913043478261,20672,-100.839024390244,
13762449,4503094.14672852,-12545,7.69160024524831,2816,1.72654812998161,-1568,0.96137339055794,4,-1717.62195121951,28169,-0.24390243902439,12,-0.731707317073171,-3841,16.7,-4,-0.0173913043478261,-12097,59.009756097561,
13827985,4505094.14672852,-14849,9.10423053341508,768,0.470876762722256,-1552,0.951563458001226,132,-1748.84146341463,28681,-8.04878048780488,19,-1.15853658536585,0,0,-4,-0.0173913043478261,28864,-140.8,
13893519,4507094.08569336,-15873,9.73206621704476,-2049,-1.25628448804414,-1456,0.892703862660944,4,-1795.67073170732,29449,-0.24390243902439,16,-0.975609756097561,12288,-53.4260869565217,-5,-0.0217391304347826,-16192,78.9853658536585,
14286735,4519094.08569336,-16385,10.0459840588596,-4865,-2.98283261802575,-1424,0.873083997547517,132,-1826.89024390244,29961,-8.04878048780488,29,-1.76829268292683,20480,-89.0434782608696,-7,-0.0304347826086957,28865,-140.80487804878,
14286734,5031094.05517578,-15617,9.57510729613734,-7169,-4.39546290619252,-1456,0.892703862660944,4,-1873.71951219512,30729,-0.24390243902439,51,-3.10975609756098,28672,-124.660869565217,-8,-0.0347826086956522,28865,-140.80487804878,
13893521,5531094.14672852,-15617,9.57510729613734,-8193,-5.0232985898222,-1568,0.96137339055794,132,-1904.93902439024,31241,-8.04878048780488,70,-4.26829268292683,28672,-124.660869565217,-6,-0.0260869565217391,-20287,98.9609756097561,
14155661,5539094.0246582,-15105,9.2611894543225,-9985,-6.12201103617413,-1712,1.04966278356836,4,-1951.76829268293,32009,-0.24390243902439,70,-4.26829268292683,28672,-124.660869565217,-6,-0.0260869565217391,-16191,78.9804878048781,
14090126,6049094.05517578,-14337,8.79031269160025,-12033,-7.37768240343348,-1856,1.13795217657879,132,-1982.98780487805,32521,-8.04878048780488,59,-3.59756097560976,28672,-124.660869565217,-4,-0.0173913043478261,-20287,98.9609756097561,
14024591,6559094.08569336,-14849,9.10423053341508,-10241,-6.27896995708154,-1952,1.19681177191907,4,1966.28048780488,-32247,-0.24390243902439,55,-3.35365853658537,-32768,142.469565217391,-8,-0.0347826086956522,-12095,59,
14155661,6563094.0246582,-16129,9.88902513795218,-9985,-6.12201103617413,-2096,1.28510116492949,132,1935.06097560976,-31735,-8.04878048780488,39,-2.37804878048781,-32768,142.469565217391,-7,-0.0304347826086957,194,-0.946341463414634,
13827983,7065094.08569336,-16129,9.88902513795218,-8705,-5.33721643163703,-2144,1.31453096259963,4,1888.23170731707,-30967,-0.24390243902439,11,-0.670731707317073,-32768,142.469565217391,-4,-0.0173913043478261,-12095,59,
13762447,7575094.08569336,-14593,8.94727161250766,-6145,-3.76762722256284,-2160,1.32434089515635,132,1857.01219512195,-30455,-8.04878048780488,-17,1.03658536585366,20480,-89.0434782608696,-5,-0.0217391304347826,-16191,78.9804878048781,
14024592,7583094.11621094,-14081,8.63335377069283,-2561,-1.57020232985898,-2032,1.24586143470264,4,1810.18292682927,-29687,-0.24390243902439,-10,0.609756097560976,28672,-124.660869565217,-5,-0.0217391304347826,-12095,59,
13959056,8093094.11621094,-12289,7.5346413243409,-513,-0.314530962599632,-2032,1.24586143470264,132,1778.96341463415,-29175,-8.04878048780488,2,-0.121951219512195,28672,-124.660869565217,-4,-0.0173913043478261,-28479,138.921951219512,
13762448,8599094.11621094,-13057,8.00551808706315,768,0.470876762722256,-2048,1.25567136725935,4,1732.13414634146,-28407,-0.24390243902439,-3,0.182926829268293,20480,-89.0434782608696,-5,-0.0217391304347826,-12095,59,
14090128,8609094.11621094,-12801,7.84855916615573,0,0,-1952,1.19681177191907,132,1700.91463414634,-27895,-8.04878048780488,-22,1.34146341463415,16384,-71.2347826086957,-5,-0.0217391304347826,24769,-120.824390243902,
14024591,9119094.08569336,-12545,7.69160024524831,768,0.470876762722256,-1840,1.12814224402207,4,1654.08536585366,-27127,-0.24390243902439,-15,0.914634146341463,0,0,-7,-0.0304347826086957,-32575,158.90243902439,
14090127,9121094.08569336,-13569,8.31943592887799,0,0,-1888,1.15757204169221,132,1622.86585365854,-26615,-8.04878048780488,-2,0.121951219512195,4096,-17.8086956521739,-5,-0.0217391304347826,-32575,158.90243902439,
13893519,9627094.08569336,-12801,7.84855916615573,-513,-0.314530962599632,-1968,1.20662170447578,4,1576.03658536585,-25847,-0.24390243902439,3,-0.182926829268293,16384,-71.2347826086957,-5,-0.0217391304347826,-3903,19.0390243902439,
14024591,9631094.08569336,-13569,8.31943592887799,-1793,-1.09932556713673,-1920,1.17719190680564,132,1544.81707317073,-25335,-8.04878048780488,-1,0.0609756097560976,28672,-124.660869565217,-4,-0.0173913043478261,-16191,78.9804878048781,
13959055,10141094.0856934,-12545,7.69160024524831,-1793,-1.09932556713673,-1904,1.16738197424893,4,1497.98780487805,-24567,-0.24390243902439,2,-0.121951219512195,-32768,142.469565217391,-4,-0.0173913043478261,194,-0.946341463414634,
13827983,10649094.0856934,-13057,8.00551808706315,-2561,-1.57020232985898,-1888,1.15757204169221,132,1466.76829268293,-24055,-8.04878048780488,-1,0.0609756097560976,20480,-89.0434782608696,-5,-0.0217391304347826,-3903,19.0390243902439,
13762448,11159094.1162109,-12545,7.69160024524831,-3329,-2.04107909258124,-1920,1.17719190680564,4,1419.93902439024,-23287,-0.24390243902439,-9,0.548780487804878,16384,-71.2347826086957,-7,-0.0304347826086957,12482,-60.8878048780488,
13827982,11161094.0551758,-10241,6.27896995708154,-3841,-2.35499693439608,-1888,1.15757204169221,132,1388.71951219512,-22775,-8.04878048780488,-10,0.609756097560976,20480,-89.0434782608696,-4,-0.0173913043478261,4290,-20.9268292682927,
13762447,11671094.0856934,-8705,5.33721643163703,-2817,-1.7271612507664,-1952,1.19681177191907,4,1341.89024390244,-22007,-0.24390243902439,8,-0.487804878048781,16384,-71.2347826086957,-7,-0.0304347826086957,8386,-40.9073170731707,
14155662,11683094.0551758,-6657,4.08154506437768,-1281,-0.785407725321888,-2048,1.25567136725935,132,1310.67073170732,-21495,-8.04878048780488,16,-0.975609756097561,20480,-89.0434782608696,-6,-0.0260869565217391,-20287,98.9609756097561,
14090129,12193094.1467285,-6401,3.92458614347026,-1,-0.000613120784794605,-2128,1.30472103004292,4,1263.84146341463,-20727,-0.24390243902439,11,-0.670731707317073,4096,-17.8086956521739,-6,-0.0260869565217391,-16191,78.9804878048781,
14155663,12195094.0856934,-6657,4.08154506437768,768,0.470876762722256,-2080,1.27529123237278,132,1232.62195121951,-20215,-8.04878048780488,-3,0.182926829268293,-20225,87.9347826086957,-4,-0.0173913043478261,-32575,158.90243902439,
13893517,12699094.0246582,-8193,5.0232985898222,2048,1.25567136725935,-2128,1.30472103004292,4,1185.79268292683,-19447,-0.24390243902439,-18,1.09756097560976,-12033,52.3173913043478,-4,-0.0173913043478261,8385,-40.9024390243902,
13827984,13209094.1162109,-8705,5.33721643163703,2816,1.72654812998161,-2048,1.25567136725935,132,1154.57317073171,-18935,-8.04878048780488,-21,1.28048780487805,-12033,52.3173913043478,-5,-0.0217391304347826,24769,-120.824390243902,
13827982,13721094.0551758,-8449,5.18025751072961,2560,1.56958920907419,-1984,1.2164316370325,4,1107.74390243902,-18167,-0.24390243902439,-10,0.609756097560976,-3841,16.7,-5,-0.0217391304347826,4289,-20.9219512195122,
14024590,13727094.0551758,-8705,5.33721643163703,1792,1.09871244635193,-1952,1.19681177191907,132,1076.5243902439,-17655,-8.04878048780488,1,-0.0609756097560976,-3841,16.7,-4,-0.0173913043478261,12481,-60.8829268292683,
13827985,14233094.1467285,-8193,5.0232985898222,3328,2.04046597179644,-1920,1.17719190680564,4,1029.69512195122,-16887,-0.24390243902439,7,-0.426829268292683,8192,-35.6173913043478,-3,-0.0130434782608696,28865,-140.80487804878,
13893520,14235094.1162109,-9217,5.65113427345187,3072,1.88350705088903,-2032,1.24586143470264,132,998.475609756098,-16375,-8.04878048780488,11,-0.670731707317073,-3841,16.7,-6,-0.0260869565217391,28865,-140.80487804878,
14024590,14239094.0551758,-9729,5.96505211526671,2304,1.41263028816677,-1968,1.20662170447578,4,951.646341463415,-15607,-0.24390243902439,8,-0.487804878048781,-7937,34.5086956521739,-4,-0.0173913043478261,20673,-100.843902439024,
14024591,14239094.0856934,-9985,6.12201103617413,1792,1.09871244635193,-1952,1.19681177191907,132,920.426829268293,-15095,-8.04878048780488,-2,0.121951219512195,0,0,-7,-0.0304347826086957,28865,-140.80487804878,
13893518,14747094.0551758,-10753,6.59288779889638,1792,1.09871244635193,-1920,1.17719190680564,4,873.59756097561,-14327,-0.24390243902439,-11,0.670731707317073,0,0,-7,-0.0304347826086957,16577,-80.8634146341463,
14221198,14757094.0551758,-9729,5.96505211526671,1792,1.09871244635193,-1888,1.15757204169221,132,842.378048780488,-13815,-8.04878048780488,-13,0.792682926829268,12288,-53.4260869565217,-4,-0.0173913043478261,-16191,78.9804878048781,
13762447,15255094.0856934,-8449,5.18025751072961,2560,1.56958920907419,-1920,1.17719190680564,4,795.548780487805,-13047,-0.24390243902439,-9,0.548780487804878,16384,-71.2347826086957,-4,-0.0173913043478261,-7999,39.0195121951219,
13762446,15767094.0551758,-7169,4.39546290619252,2304,1.41263028816677,-1872,1.1477621091355,132,764.329268292683,-12535,-8.04878048780488,-4,0.24390243902439,0,0,-5,-0.0217391304347826,-28479,138.921951219512,
13959056,15773094.1162109,-7169,4.39546290619252,1792,1.09871244635193,-1872,1.1477621091355,4,717.5,-11767,-0.24390243902439,1,-0.0609756097560976,0,0,-2,-0.00869565217391304,24769,-120.824390243902,
13696910,16277094.0551758,-8705,5.33721643163703,1536,0.941753525444513,-1824,1.11833231146536,132,686.280487804878,-11255,-8.04878048780488,0,0,16384,-71.2347826086957,-3,-0.0130434782608696,20673,-100.843902439024,
13762447,16279094.0856934,-9985,6.12201103617413,-1,-0.000613120784794605,-1888,1.15757204169221,4,639.451219512195,-10487,-0.24390243902439,5,-0.304878048780488,-7937,34.5086956521739,-6,-0.0260869565217391,8385,-40.9024390243902,
14024592,16287094.1162109,-9985,6.12201103617413,-257,-0.157572041692213,-1888,1.15757204169221,132,608.231707317073,-9975,-8.04878048780488,-8,0.487804878048781,-3841,16.7,-5,-0.0217391304347826,28865,-140.80487804878,
14221198,16293094.0551758,-9473,5.80809319435929,-769,-0.471489883507051,-1856,1.13795217657879,4,561.40243902439,-9207,-0.24390243902439,-12,0.731707317073171,8192,-35.6173913043478,-6,-0.0260869565217391,-32575,158.90243902439,
14286734,16295094.0551758,-10753,6.59288779889638,-1025,-0.62844880441447,-1872,1.1477621091355,132,530.182926829268,-8695,-8.04878048780488,-2,0.121951219512195,4096,-17.8086956521739,-3,-0.0130434782608696,4289,-20.9219512195122,
13893519,16795094.0856934,-10753,6.59288779889638,-1025,-0.62844880441447,-1792,1.09871244635193,4,483.353658536585,-7927,-0.24390243902439,0,0,-20225,87.9347826086957,-6,-0.0260869565217391,12481,-60.8829268292683,
13959054,16797094.0551758,-12033,7.37768240343348,-1537,-0.942366646229307,-1872,1.1477621091355,132,452.134146341463,-7415,-8.04878048780488,-1,0.0609756097560976,8192,-35.6173913043478,-4,-0.0173913043478261,-3904,19.0439024390244,
14024590,16799094.0551758,-11009,6.7498467198038,-1025,-0.62844880441447,-1824,1.11833231146536,4,405.304878048781,-6647,-0.24390243902439,-13,0.792682926829268,0,0,-4,-0.0173913043478261,-3904,19.0439024390244,
14090126,16801094.0551758,-12801,7.84855916615573,-1281,-0.785407725321888,-1776,1.08890251379522,132,374.085365853659,-6135,-8.04878048780488,-13,0.792682926829268,-12033,52.3173913043478,-5,-0.0217391304347826,8385,-40.9024390243902,
13827983,17305094.0856934,-13313,8.16247700797057,-2305,-1.41324340895156,-1824,1.11833231146536,4,327.256097560976,-5367,-0.24390243902439,-12,0.731707317073171,-16129,70.1260869565217,-6,-0.0260869565217391,193,-0.941463414634146,
13827983,17305094.0856934,-13057,8.00551808706315,-2049,-1.25628448804414,-1760,1.0790925812385,132,296.036585365854,-4855,-8.04878048780488,-9,0.548780487804878,-12033,52.3173913043478,-6,-0.0260869565217391,-3904,19.0439024390244,
14286735,17319094.0856934,-13057,8.00551808706315,-3329,-2.04107909258124,-1840,1.12814224402207,4,249.207317073171,-4087,-0.24390243902439,-13,0.792682926829268,-3841,16.7,-7,-0.0304347826086957,4289,-20.9219512195122,
14024591,17823094.0856934,-13313,8.16247700797057,-4865,-2.98283261802575,-1776,1.08890251379522,132,217.987804878049,-3575,-8.04878048780488,-20,1.21951219512195,4096,-17.8086956521739,-5,-0.0217391304347826,20673,-100.843902439024,
13762448,18327094.1162109,-13057,8.00551808706315,-5889,-3.61066830165543,-1712,1.04966278356836,4,171.158536585366,-2807,-0.24390243902439,-10,0.609756097560976,0,0,-4,-0.0173913043478261,20673,-100.843902439024,
13827983,18329094.0856934,-13825,8.47639484978541,-6401,-3.92458614347026,-1712,1.04966278356836,132,139.939024390244,-2295,-8.04878048780488,14,-0.853658536585366,0,0,-4,-0.0173913043478261,28865,-140.80487804878,
13762447,18839094.0856934,-12801,7.84855916615573,-6657,-4.08154506437768,-1808,1.10852237890864,4,93.109756097561,-1527,-0.24390243902439,22,-1.34146341463415,-16129,70.1260869565217,-5,-0.0217391304347826,-24383,118.941463414634,
14155663,18851094.0856934,-13057,8.00551808706315,-7681,-4.70938074800736,-1888,1.15757204169221,132,61.890243902439,-1015,-8.04878048780488,14,-0.853658536585366,-3841,16.7,-7,-0.0304347826086957,28865,-140.80487804878,
14090128,19361094.1162109,-12289,7.5346413243409,-8449,-5.18025751072961,-1872,1.1477621091355,4,15.0609756097561,-247,-0.24390243902439,3,-0.182926829268293,4096,-17.8086956521739,-4,-0.0173913043478261,12481,-60.8829268292683,
13762447,19863094.0856934,-12033,7.37768240343348,-8961,-5.49417535254445,-1888,1.15757204169221,132,-16.219512195122,266,-8.04878048780488,11,-0.670731707317073,4096,-17.8086956521739,-5,-0.0217391304347826,16577,-80.8634146341463,
13762448,19863094.1162109,-12545,7.69160024524831,-7937,-4.86633966891478,-1952,1.19681177191907,4,-63.0487804878049,1034,-0.24390243902439,10,-0.609756097560976,0,0,-5,-0.0217391304347826,8385,-40.9024390243902,
14024591,19871094.0856934,-13313,8.16247700797057,-6913,-4.2385039852851,-1920,1.17719190680564,132,-94.2682926829268,1546,-8.04878048780488,6,-0.365853658536585,8192,-35.6173913043478,-7,-0.0304347826086957,12481,-60.8829268292683,
14155662,19875094.0551758,-14849,9.10423053341508,-7425,-4.55242182709994,-1920,1.17719190680564,4,-141.09756097561,2314,-0.24390243902439,7,-0.426829268292683,16384,-71.2347826086957,-4,-0.0173913043478261,-20287,98.9609756097561,
13827984,20377094.1162109,-13057,8.00551808706315,-6401,-3.92458614347026,-1952,1.19681177191907,132,-172.317073170732,2826,-8.04878048780488,3,-0.182926829268293,20480,-89.0434782608696,-4,-0.0173913043478261,24769,-120.824390243902,
13827984,20377094.1162109,-13569,8.31943592887799,-4609,-2.82587369711833,-2016,1.23605150214592,4,-219.146341463415,3594,-0.24390243902439,18,-1.09756097560976,24576,-106.852173913043,-4,-0.0173913043478261,20673,-100.843902439024,
14024590,20383094.0551758,-12545,7.69160024524831,-3841,-2.35499693439608,-1968,1.20662170447578,132,-250.365853658537,4106,-8.04878048780488,26,-1.58536585365854,24576,-106.852173913043,-6,-0.0260869565217391,24769,-120.824390243902,
14090126,20385094.0551758,-11521,7.06376456161864,-2817,-1.7271612507664,-1936,1.18700183936235,4,-297.19512195122,4874,-0.24390243902439,36,-2.19512195121951,20480,-89.0434782608696,-7,-0.0304347826086957,24769,-120.824390243902,
660868,20487265.625,-2000,1.22624156958921,32,0.0196198651134273,-15984,9.80012262415696,30,2.74390243902439,-45,-1.82926829268293,-12,0.731707317073171,-7,0.0304347826086957,-40,-0.173913043478261,142,-0.692682926829268,
661508,20487285.15625,-2000,1.22624156958921,-16,-0.00980993255671367,-16016,9.81974248927039,25,2.68292682926829,-44,-1.52439024390244,-8,0.487804878048781,-8,0.0347826086956522,-37,-0.160869565217391,141,-0.68780487804878,
662148,20487304.6875,-2064,1.26548129981606,16,0.00980993255671367,-15952,9.78050275904353,10,2.92682926829268,-48,-0.609756097560976,-4,0.24390243902439,-4,0.0173913043478261,-45,-0.195652173913043,142,-0.692682926829268,
662788,20487324.21875,-1888,1.15757204169221,16,0.00980993255671367,-15936,9.77069282648682,-10,3.04878048780488,-50,0.609756097560976,-12,0.731707317073171,-8,0.0347826086956522,-43,-0.18695652173913,142,-0.692682926829268,
663428,20487343.75,-1840,1.12814224402207,-16,-0.00980993255671367,-15984,9.80012262415696,-9,2.86585365853659,-47,0.548780487804878,-11,0.670731707317073,-7,0.0304347826086957,-37,-0.160869565217391,141,-0.68780487804878,
664068,20487363.28125,-1824,1.11833231146536,32,0.0196198651134273,-15968,9.79031269160024,12,2.86585365853659,-47,-0.731707317073171,-14,0.853658536585366,-5,0.0217391304347826,-45,-0.195652173913043,142,-0.692682926829268,
664708,20487382.8125,-1936,1.18700183936235,80,0.0490496627835684,-16032,9.8295524218271,16,2.5609756097561,-42,-0.975609756097561,-23,1.40243902439024,-7,0.0304347826086957,-36,-0.156521739130435,141,-0.68780487804878,
665348,20487402.34375,-1952,1.19681177191907,48,0.029429797670141,-16000,9.80993255671367,6,2.5609756097561,-42,-0.365853658536585,-31,1.89024390243902,-7,0.0304347826086957,-38,-0.165217391304348,142,-0.692682926829268,
665988,20487421.875,-1824,1.11833231146536,32,0.0196198651134273,-15984,9.80012262415696,18,2.86585365853659,-47,-1.09756097560976,-28,1.70731707317073,-7,0.0304347826086957,-39,-0.169565217391304,141,-0.68780487804878,
666628,20487441.40625,-1872,1.1477621091355,80,0.0490496627835684,-16080,9.85898221949724,22,2.74390243902439,-45,-1.34146341463415,-24,1.46341463414634,-5,0.0217391304347826,-43,-0.18695652173913,142,-0.692682926829268,
667268,20487460.9375,-2016,1.23605150214592,48,0.029429797670141,-16080,9.85898221949724,16,2.5609756097561,-42,-0.975609756097561,-21,1.28048780487805,-7,0.0304347826086957,-36,-0.156521739130435,139,-0.678048780487805,
667908,20487480.46875,-2000,1.22624156958921,0,0,-16128,9.88841201716738,2,2.5609756097561,-42,-0.121951219512195,-22,1.34146341463415,-8,0.0347826086956522,-40,-0.173913043478261,141,-0.68780487804878,
668548,20487500,-1872,1.1477621091355,-64,-0.0392397302268547,-16096,9.86879215205395,0,2.5609756097561,-42,0,-21,1.28048780487805,-8,0.0347826086956522,-41,-0.178260869565217,140,-0.682926829268293,
669188,20487519.53125,-2000,1.22624156958921,-48,-0.029429797670141,-16080,9.85898221949724,20,2.74390243902439,-45,-1.21951219512195,-23,1.40243902439024,-3,0.0130434782608696,-46,-0.2,144,-0.702439024390244,
669828,20487539.0625,-2000,1.22624156958921,0,0,-15984,9.80012262415696,23,2.92682926829268,-48,-1.40243902439024,-27,1.64634146341463,-3,0.0130434782608696,-44,-0.191304347826087,142,-0.692682926829268,
670468,20487558.59375,-2112,1.2949110974862,-32,-0.0196198651134273,-16016,9.81974248927039,18,3.04878048780488,-50,-1.09756097560976,-29,1.76829268292683,-8,0.0347826086956522,-37,-0.160869565217391,140,-0.682926829268293,
671108,20487578.125,-2112,1.2949110974862,-64,-0.0392397302268547,-16016,9.81974248927039,13,2.92682926829268,-48,-0.792682926829268,-24,1.46341463414634,-8,0.0347826086956522,-37,-0.160869565217391,140,-0.682926829268293,
671748,20487597.65625,-2096,1.28510116492949,-32,-0.0196198651134273,-16080,9.85898221949724,14,2.80487804878049,-46,-0.853658536585366,-22,1.34146341463415,-7,0.0304347826086957,-40,-0.173913043478261,141,-0.68780487804878,
672388,20487617.1875,-2080,1.27529123237278,-64,-0.0392397302268547,-15984,9.80012262415696,18,2.68292682926829,-44,-1.09756097560976,-20,1.21951219512195,-7,0.0304347826086957,-40,-0.173913043478261,141,-0.68780487804878,
673028,20487636.71875,-2112,1.2949110974862,-32,-0.0196198651134273,-16048,9.83936235438381,17,2.6219512195122,-43,-1.03658536585366,-14,0.853658536585366,-6,0.0260869565217391,-40,-0.173913043478261,140,-0.682926829268293,
673668,20487656.25,-2192,1.34396076026977,0,0,-16096,9.86879215205395,18,2.80487804878049,-46,-1.09756097560976,-10,0.609756097560976,-8,0.0347826086956522,-37,-0.160869565217391,139,-0.678048780487805,
674308,20487675.78125,-2144,1.31453096259963,-64,-0.0392397302268547,-16032,9.8295524218271,2,2.5,-41,-0.121951219512195,-11,0.670731707317073,-5,0.0217391304347826,-38,-0.165217391304348,141,-0.68780487804878,
674948,20487695.3125,-2064,1.26548129981606,-80,-0.0490496627835684,-16000,9.80993255671367,-2,2.80487804878049,-46,0.121951219512195,-6,0.365853658536585,-6,0.0260869565217391,-37,-0.160869565217391,141,-0.68780487804878,
675588,20487714.84375,-2096,1.28510116492949,-64,-0.0392397302268547,-15952,9.78050275904353,2,2.86585365853659,-47,-0.121951219512195,-6,0.365853658536585,-6,0.0260869565217391,-37,-0.160869565217391,140,-0.682926829268293,
676228,20487734.375,-2080,1.27529123237278,-64,-0.0392397302268547,-15920,9.7608828939301,-4,2.80487804878049,-46,0.24390243902439,-4,0.24390243902439,-6,0.0260869565217391,-37,-0.160869565217391,141,-0.68780487804878,
676868,20487753.90625,-2064,1.26548129981606,-16,-0.00980993255671367,-15808,9.69221336603311,-12,2.68292682926829,-44,0.731707317073171,-1,0.0609756097560976,-7,0.0304347826086957,-40,-0.173913043478261,141,-0.68780487804878,
677508,20487773.4375,-2032,1.24586143470264,0,0,-15840,9.71183323114654,-11,2.37804878048781,-39,0.670731707317073,-3,0.182926829268293,-7,0.0304347826086957,-40,-0.173913043478261,141,-0.68780487804878,
678148,20487792.96875,-2016,1.23605150214592,-64,-0.0392397302268547,-15936,9.77069282648682,-3,2.13414634146341,-35,0.182926829268293,-1,0.0609756097560976,-7,0.0304347826086957,-38,-0.165217391304348,140,-0.682926829268293,
678788,20487812.5,-2144,1.31453096259963,-128,-0.0784794604537094,-15968,9.79031269160024,4,2.13414634146341,-35,-0.24390243902439,-4,0.24390243902439,-8,0.0347826086956522,-40,-0.173913043478261,139,-0.678048780487805,
679428,20487832.03125,-2128,1.30472103004292,-128,-0.0784794604537094,-16080,9.85898221949724,2,1.95121951219512,-32,-0.121951219512195,-3,0.182926829268293,-7,0.0304347826086957,-41,-0.178260869565217,140,-0.682926829268293,
680068,20487851.5625,-2144,1.31453096259963,-128,-0.0784794604537094,-16048,9.83936235438381,-6,1.95121951219512,-32,0.365853658536585,-3,0.182926829268293,-5,0.0217391304347826,-41,-0.178260869565217,141,-0.68780487804878,
680708,20487871.09375,-2112,1.2949110974862,-144,-0.088289393010423,-16096,9.86879215205395,-6,2.25609756097561,-37,0.365853658536585,1,-0.0609756097560976,-6,0.0260869565217391,-36,-0.156521739130435,140,-0.682926829268293,
681348,20487890.625,-2064,1.26548129981606,-96,-0.058859595340282,-16160,9.90803188228081,-5,2.19512195121951,-36,0.304878048780488,4,-0.24390243902439,-3,0.0130434782608696,-41,-0.178260869565217,142,-0.692682926829268,
681988,20487910.15625,-2080,1.27529123237278,-176,-0.10790925812385,-16128,9.88841201716738,9,2.4390243902439,-40,-0.548780487804878,4,-0.24390243902439,-7,0.0304347826086957,-38,-0.165217391304348,141,-0.68780487804878,
682628,20487929.6875,-2160,1.32434089515635,-208,-0.127529123237278,-16240,9.95708154506438,8,2.86585365853659,-47,-0.487804878048781,7,-0.426829268292683,-5,0.0217391304347826,-43,-0.18695652173913,143,-0.697560975609756,
683268,20487949.21875,-2080,1.27529123237278,-128,-0.0784794604537094,-16192,9.92765174739424,-10,3.41463414634146,-56,0.609756097560976,13,-0.792682926829268,-6,0.0260869565217391,-41,-0.178260869565217,142,-0.692682926829268,
683908,20487968.75,-2064,1.26548129981606,-112,-0.0686695278969957,-16144,9.89822194972409,-8,3.29268292682927,-54,0.487804878048781,13,-0.792682926829268,-3,0.0130434782608696,-44,-0.191304347826087,142,-0.692682926829268,
684548,20487988.28125,-2032,1.24586143470264,-144,-0.088289393010423,-16112,9.87860208461067,-3,3.41463414634146,-56,0.182926829268293,15,-0.914634146341463,-3,0.0130434782608696,-46,-0.2,142,-0.692682926829268,
685188,20488007.8125,-2016,1.23605150214592,-112,-0.0686695278969957,-16112,9.87860208461067,-6,3.29268292682927,-54,0.365853658536585,13,-0.792682926829268,-7,0.0304347826086957,-37,-0.160869565217391,141,-0.68780487804878,
685828,20488027.34375,-1952,1.19681177191907,-48,-0.029429797670141,-16096,9.86879215205395,-12,3.35365853658537,-55,0.731707317073171,15,-0.914634146341463,-6,0.0260869565217391,-37,-0.160869565217391,140,-0.682926829268293,
686468,20488046.875,-1920,1.17719190680564,-144,-0.088289393010423,-16112,9.87860208461067,-2,3.65853658536585,-60,0.121951219512195,10,-0.609756097560976,-3,0.0130434782608696,-46,-0.2,142,-0.692682926829268,
687108,20488066.40625,-1936,1.18700183936235,-96,-0.058859595340282,-15984,9.80012262415696,1,3.84146341463415,-63,-0.0609756097560976,10,-0.609756097560976,-6,0.0260869565217391,-42,-0.182608695652174,141,-0.68780487804878,
687748,20488085.9375,-1936,1.18700183936235,-80,-0.0490496627835684,-16032,9.8295524218271,-7,3.78048780487805,-62,0.426829268292683,3,-0.182926829268293,-7,0.0304347826086957,-40,-0.173913043478261,141,-0.68780487804878,
688388,20488105.46875,-1968,1.20662170447578,-64,-0.0392397302268547,-16032,9.8295524218271,-4,3.78048780487805,-62,0.24390243902439,1,-0.0609756097560976,-6,0.0260869565217391,-38,-0.165217391304348,142,-0.692682926829268,
689028,20488125,-1952,1.19681177191907,-16,-0.00980993255671367,-16064,9.84917228694053,0,3.53658536585366,-58,0,0,0,-4,0.0173913043478261,-44,-0.191304347826087,142,-0.692682926829268,
689668,20488144.53125,-1984,1.2164316370325,16,0.00980993255671367,-16016,9.81974248927039,7,3.65853658536585,-60,-0.426829268292683,4,-0.24390243902439,-2,0.00869565217391304,-46,-0.2,143,-0.697560975609756,
690308,20488164.0625,-2032,1.24586143470264,0,0,-15968,9.79031269160024,7,3.78048780487805,-62,-0.426829268292683,3,-0.182926829268293,-3,0.0130434782608696,-43,-0.18695652173913,141,-0.68780487804878,
690948,20488183.59375,-2032,1.24586143470264,48,0.029429797670141,-15968,9.79031269160024,-6,3.53658536585366,-58,0.365853658536585,0,0,-3,0.0130434782608696,-43,-0.18695652173913,141,-0.68780487804878,
691588,20488203.125,-1952,1.19681177191907,-32,-0.0196198651134273,-16032,9.8295524218271,-7,3.53658536585366,-58,0.426829268292683,4,-0.24390243902439,-3,0.0130434782608696,-46,-0.2,143,-0.697560975609756,
692228,20488222.65625,-1984,1.2164316370325,0,0,-15872,9.73145309625996,-13,3.59756097560976,-59,0.792682926829268,0,0,-6,0.0260869565217391,-38,-0.165217391304348,139,-0.678048780487805,
692868,20488242.1875,-1904,1.16738197424893,-32,-0.0196198651134273,-15968,9.79031269160024,-11,3.59756097560976,-59,0.670731707317073,1,-0.0609756097560976,-6,0.0260869565217391,-38,-0.165217391304348,141,-0.68780487804878,
693508,20488261.71875,-1888,1.15757204169221,0,0,-15920,9.7608828939301,-9,3.17073170731707,-52,0.548780487804878,0,0,-8,0.0347826086956522,-41,-0.178260869565217,141,-0.68780487804878,
694148,20488281.25,-1872,1.1477621091355,-80,-0.0490496627835684,-16000,9.80993255671367,4,3.10975609756098,-51,-0.24390243902439,-6,0.365853658536585,-7,0.0304347826086957,-41,-0.178260869565217,140,-0.682926829268293,
694788,20488300.78125,-1920,1.17719190680564,-16,-0.00980993255671367,-16000,9.80993255671367,13,3.10975609756098,-51,-0.792682926829268,-8,0.487804878048781,-8,0.0347826086956522,-41,-0.178260869565217,141,-0.68780487804878,
695428,20488320.3125,-2064,1.26548129981606,-32,-0.0196198651134273,-15968,9.79031269160024,-2,3.23170731707317,-53,0.121951219512195,-12,0.731707317073171,-4,0.0173913043478261,-46,-0.2,143,-0.697560975609756,
696068,20488339.84375,-2016,1.23605150214592,-48,-0.029429797670141,-16016,9.81974248927039,-9,2.92682926829268,-48,0.548780487804878,-13,0.792682926829268,-5,0.0217391304347826,-42,-0.182608695652174,140,-0.682926829268293,
696708,20488359.375,-1920,1.17719190680564,-32,-0.0196198651134273,-16016,9.81974248927039,-4,2.92682926829268,-48,0.24390243902439,-11,0.670731707317073,-4,0.0173913043478261,-41,-0.178260869565217,142,-0.692682926829268,
697348,20488378.90625,-1968,1.20662170447578,0,0,-16032,9.8295524218271,3,2.80487804878049,-46,-0.182926829268293,-10,0.609756097560976,-7,0.0304347826086957,-39,-0.169565217391304,141,-0.68780487804878,
697988,20488398.4375,5744,-3.52176578786021,-4144,-2.54077253218884,-24336,14.9209074187615,-3085,-332.865853658537,5459,188.109756097561,1036,-63.1707317073171,-7,0.0304347826086957,-37,-0.160869565217391,139,-0.678048780487805,
698628,20488417.96875,1648,-1.01042305334151,3392,2.0797057020233,-13888,8.51502145922747,1161,-75.1829268292683,1233,-70.7926829268293,-50,3.04878048780488,-2,0.00869565217391304,-44,-0.191304347826087,142,-0.692682926829268,
699268,20488437.5,-7872,4.82648681790313,-992,-0.608215818516248,-15280,9.36848559166156,1052,12.0121951219512,-197,-64.1463414634146,198,-12.0731707317073,-3,0.0130434782608696,-36,-0.156521739130435,139,-0.678048780487805,
699908,20488457.03125,-7200,4.41446965052115,-448,-0.274678111587983,-16288,9.98651134273452,-800,12.3780487804878,-203,48.7804878048781,-150,9.14634146341463,-3,0.0130434782608696,-39,-0.169565217391304,138,-0.673170731707317,
700548,20488476.5625,-3024,1.85407725321888,-240,-0.147148988350705,-16080,9.85898221949724,-1130,11.0975609756098,-182,68.9024390243902,-113,6.89024390243902,-2,0.00869565217391304,-42,-0.182608695652174,140,-0.682926829268293,
701188,20488496.09375,-416,0.255058246474555,-288,-0.176578786020846,-16576,10.1630901287554,-410,6.95121951219512,-114,25,-135,8.23170731707317,-3,0.0130434782608696,-43,-0.18695652173913,142,-0.692682926829268,
701828,20488515.625,-1776,1.08890251379522,-912,-0.559166155732679,-17424,10.6830165542612,91,1.28048780487805,-21,-5.54878048780488,52,-3.17073170731707,-6,0.0260869565217391,-40,-0.173913043478261,140,-0.682926829268293,
702468,20488535.15625,-2224,1.3635806253832,-576,-0.353157572041692,-17888,10.9675045984059,13,5.36585365853659,-88,-0.792682926829268,16,-0.975609756097561,-5,0.0217391304347826,-36,-0.156521739130435,141,-0.68780487804878,
703108,20488554.6875,-2368,1.45187001839362,-528,-0.323727774371551,-17808,10.9184549356223,41,7.25609756097561,-119,-2.5,1,-0.0609756097560976,-5,0.0217391304347826,-43,-0.18695652173913,142,-0.692682926829268,
703748,20488574.21875,-2816,1.72654812998161,-528,-0.323727774371551,-17504,10.7320662170448,-78,7.25609756097561,-119,4.75609756097561,-7,0.426829268292683,-6,0.0260869565217391,-37,-0.160869565217391,141,-0.68780487804878,
704388,20488593.75,-2096,1.28510116492949,-544,-0.333537706928265,-17024,10.4377682403433,-197,8.71951219512195,-143,12.0121951219512,-30,1.82926829268293,-5,0.0217391304347826,-40,-0.173913043478261,141,-0.68780487804878,
705028,20488613.28125,-1536,0.941753525444513,-480,-0.29429797670141,-16640,10.2023298589822,-72,9.9390243902439,-163,4.39024390243902,-31,1.89024390243902,-6,0.0260869565217391,-40,-0.173913043478261,142,-0.692682926829268,
705668,20488632.8125,-1728,1.05947271612508,-416,-0.255058246474555,-16208,9.93746167995095,68,11.1585365853659,-183,-4.14634146341463,-38,2.31707317073171,-6,0.0260869565217391,-39,-0.169565217391304,140,-0.682926829268293,
706308,20488652.34375,-2096,1.28510116492949,-288,-0.176578786020846,-16016,9.81974248927039,91,11.1585365853659,-183,-5.54878048780488,-36,2.19512195121951,-7,0.0304347826086957,-41,-0.178260869565217,143,-0.697560975609756,
706948,20488671.875,-2224,1.3635806253832,-256,-0.156958920907419,-15856,9.72164316370325,40,10.3658536585366,-170,-2.4390243902439,-33,2.01219512195122,-4,0.0173913043478261,-46,-0.2,142,-0.692682926829268,
707588,20488691.40625,-2384,1.46167995095034,-176,-0.10790925812385,-15712,9.63335377069283,-38,9.14634146341463,-150,2.31707317073171,-25,1.52439024390244,-3,0.0130434782608696,-46,-0.2,141,-0.68780487804878,
708228,20488710.9375,-2272,1.39301042305334,-96,-0.058859595340282,-15376,9.42734518700184,-65,8.29268292682927,-136,3.96341463414634,-21,1.28048780487805,-4,0.0173913043478261,-40,-0.173913043478261,144,-0.702439024390244,
708868,20488730.46875,-1984,1.2164316370325,32,0.0196198651134273,-15184,9.30962599632127,-32,7.13414634146342,-117,1.95121951219512,-3,0.182926829268293,-7,0.0304347826086957,-38,-0.165217391304348,143,-0.697560975609756,
709508,20488750,-1936,1.18700183936235,96,0.058859595340282,-15200,9.31943592887799,7,5.79268292682927,-95,-0.426829268292683,7,-0.426829268292683,-3,0.0130434782608696,-42,-0.182608695652174,141,-0.68780487804878,
710148,20488769.53125,-2016,1.23605150214592,128,0.0784794604537094,-15232,9.33905579399141,25,4.51219512195122,-74,-1.52439024390244,14,-0.853658536585366,-4,0.0173913043478261,-46,-0.2,143,-0.697560975609756,
710788,20488789.0625,-2112,1.2949110974862,48,0.029429797670141,-15200,9.31943592887799,15,3.35365853658537,-55,-0.914634146341463,15,-0.914634146341463,-7,0.0304347826086957,-41,-0.178260869565217,141,-0.68780487804878,
711428,20488808.59375,-2112,1.2949110974862,128,0.0784794604537094,-15248,9.34886572654813,-4,2.07317073170732,-34,0.24390243902439,9,-0.548780487804878,-6,0.0260869565217391,-40,-0.173913043478261,140,-0.682926829268293,
712068,20488828.125,-2032,1.24586143470264,64,0.0392397302268547,-15392,9.43715511955855,0,1.40243902439024,-23,0,8,-0.487804878048781,-4,0.0173913043478261,-45,-0.195652173913043,141,-0.68780487804878,
712708,20488847.65625,-2048,1.25567136725935,80,0.0490496627835684,-15600,9.56468424279583,-2,1.03658536585366,-17,0.121951219512195,9,-0.548780487804878,-4,0.0173913043478261,-42,-0.182608695652174,143,-0.697560975609756,
713348,20488867.1875,-4176,2.56039239730227,18016,11.0459840588596,-8992,5.51318209687308,873,-130.182926829268,2135,-53.2317073170732,449,-27.3780487804878,-5,0.0217391304347826,-36,-0.156521739130435,140,-0.682926829268293,
713988,20488886.71875,-6128,3.75720416922134,2720,1.66768853464132,-12416,7.61250766400981,1865,8.59756097560976,-141,-113.719512195122,452,-27.5609756097561,-2,0.00869565217391304,-34,-0.147826086956522,138,-0.673170731707317,
714628,20488906.25,-11632,7.13182096873084,-560,-0.343347639484979,-16464,10.0944206008584,-802,14.9390243902439,-245,48.9024390243902,-111,6.76829268292683,-3,0.0130434782608696,-43,-0.18695652173913,137,-0.668292682926829,
715268,20488925.78125,-6880,4.21827099938688,-304,-0.18638871857756,-16784,10.2906192519926,-1902,19.8780487804878,-326,115.975609756098,-171,10.4268292682927,0,0,-41,-0.178260869565217,139,-0.678048780487805,
715908,20488945.3125,1952,-1.19681177191907,1344,0.824034334763949,-15984,9.80012262415696,-734,-6.95121951219512,114,44.7560975609756,-126,7.68292682926829,-4,0.0173913043478261,-42,-0.182608695652174,143,-0.697560975609756,
716548,20488964.84375,-608,0.37277743715512,-1296,-0.794604537093807,-16848,10.3298589822195,83,-4.39024390243902,72,-5.0609756097561,107,-6.52439024390244,-6,0.0260869565217391,-43,-0.18695652173913,144,-0.702439024390244,
717188,20488984.375,-1968,1.20662170447578,-864,-0.529736358062538,-17888,10.9675045984059,74,1.82926829268293,-30,-4.51219512195122,84,-5.1219512195122,-7,0.0304347826086957,-38,-0.165217391304348,143,-0.697560975609756,
717828,20489003.90625,-2192,1.34396076026977,-560,-0.343347639484979,-17920,10.9871244635193,176,3.78048780487805,-62,-10.7317073170732,60,-3.65853658536585,-4,0.0173913043478261,-39,-0.169565217391304,140,-0.682926829268293,
718468,20489023.4375,-3312,2.03065603923973,-416,-0.255058246474555,-17632,10.8105456774985,-20,3.53658536585366,-58,1.21951219512195,28,-1.70731707317073,-3,0.0130434782608696,-44,-0.191304347826087,141,-0.68780487804878,
719108,20489042.96875,-3088,1.89331698344574,-688,-0.421827099938688,-17312,10.6143470263642,-277,4.9390243902439,-81,16.890243902439,2,-0.121951219512195,-8,0.0347826086956522,-38,-0.165217391304348,140,-0.682926829268293,
719748,20489062.5,-1680,1.03004291845494,-592,-0.362967504598406,-16752,10.2709993868792,-220,6.40243902439024,-105,13.4146341463415,-4,0.24390243902439,-6,0.0260869565217391,-40,-0.173913043478261,145,-0.707317073170732,
720388,20489082.03125,-1360,0.833844267320662,-560,-0.343347639484979,-16336,10.0159411404047,15,7.4390243902439,-122,-0.914634146341463,-7,0.426829268292683,-4,0.0173913043478261,-44,-0.191304347826087,143,-0.697560975609756,
721028,20489101.5625,-1792,1.09871244635193,-432,-0.264868179031269,-16144,9.89822194972409,104,8.04878048780488,-132,-6.34146341463415,-16,0.975609756097561,-5,0.0217391304347826,-46,-0.2,144,-0.702439024390244,
721668,20489121.09375,-2096,1.28510116492949,-320,-0.196198651134273,-15920,9.7608828939301,55,7.25609756097561,-119,-3.35365853658537,-17,1.03658536585366,-4,0.0173913043478261,-41,-0.178260869565217,144,-0.702439024390244,
722308,20489140.625,-2144,1.31453096259963,-320,-0.196198651134273,-15776,9.67259350091968,-21,6.03658536585366,-99,1.28048780487805,-3,0.182926829268293,-6,0.0260869565217391,-38,-0.165217391304348,141,-0.68780487804878,
733828,20489492.1875,-2000,1.22624156958921,-368,-0.225628448804414,-16176,9.91784181483752,8,3.04878048780488,-50,-0.487804878048781,-31,1.89024390243902,-5,0.0217391304347826,-41,-0.178260869565217,143,-0.697560975609756,
734468,20489511.71875,-1952,1.19681177191907,-416,-0.255058246474555,-16176,9.91784181483752,1,3.29268292682927,-54,-0.0609756097560976,-29,1.76829268292683,-7,0.0304347826086957,-36,-0.156521739130435,142,-0.692682926829268,
735108,20489531.25,-2000,1.22624156958921,-416,-0.255058246474555,-16144,9.89822194972409,2,3.53658536585366,-58,-0.121951219512195,-30,1.82926829268293,-3,0.0130434782608696,-43,-0.18695652173913,142,-0.692682926829268,
735748,20489550.78125,-2000,1.22624156958921,-448,-0.274678111587983,-16192,9.92765174739424,2,3.65853658536585,-60,-0.121951219512195,-27,1.64634146341463,-6,0.0260869565217391,-36,-0.156521739130435,141,-0.68780487804878,
736388,20489570.3125,-1936,1.18700183936235,-384,-0.235438381361128,-16112,9.87860208461067,5,3.84146341463415,-63,-0.304878048780488,-28,1.70731707317073,-4,0.0173913043478261,-41,-0.178260869565217,142,-0.692682926829268,
737028,20489589.84375,-2000,1.22624156958921,-384,-0.235438381361128,-16176,9.91784181483752,14,4.02439024390244,-66,-0.853658536585366,-26,1.58536585365854,-8,0.0347826086956522,-39,-0.169565217391304,141,-0.68780487804878,
737668,20489609.375,-2064,1.26548129981606,-336,-0.206008583690987,-16080,9.85898221949724,21,4.14634146341463,-68,-1.28048780487805,-22,1.34146341463415,-8,0.0347826086956522,-39,-0.169565217391304,142,-0.692682926829268,
738308,20489628.90625,-2160,1.32434089515635,-336,-0.206008583690987,-16032,9.8295524218271,10,4.14634146341463,-68,-0.609756097560976,-22,1.34146341463415,-8,0.0347826086956522,-35,-0.152173913043478,141,-0.68780487804878,
738948,20489648.4375,-2144,1.31453096259963,-368,-0.225628448804414,-16000,9.80993255671367,5,4.14634146341463,-68,-0.304878048780488,-19,1.15853658536585,-8,0.0347826086956522,-39,-0.169565217391304,141,-0.68780487804878,
739588,20489667.96875,-2176,1.33415082771306,-416,-0.255058246474555,-16016,9.81974248927039,11,4.14634146341463,-68,-0.670731707317073,-13,0.792682926829268,-8,0.0347826086956522,-38,-0.165217391304348,140,-0.682926829268293,
740228,20489687.5,-2144,1.31453096259963,-368,-0.225628448804414,-15952,9.78050275904353,10,3.90243902439024,-64,-0.609756097560976,-7,0.426829268292683,-6,0.0260869565217391,-40,-0.173913043478261,142,-0.692682926829268,
740868,20489707.03125,-2160,1.32434089515635,-320,-0.196198651134273,-16000,9.80993255671367,4,3.78048780487805,-62,-0.24390243902439,2,-0.121951219512195,-3,0.0130434782608696,-44,-0.191304347826087,142,-0.692682926829268,
741508,20489726.5625,-2144,1.31453096259963,-304,-0.18638871857756,-15984,9.80012262415696,3,3.65853658536585,-60,-0.182926829268293,11,-0.670731707317073,-2,0.00869565217391304,-45,-0.195652173913043,142,-0.692682926829268,
742148,20489746.09375,-2096,1.28510116492949,-352,-0.215818516247701,-16000,9.80993255671367,5,3.59756097560976,-59,-0.304878048780488,11,-0.670731707317073,-7,0.0304347826086957,-39,-0.169565217391304,141,-0.68780487804878,
742788,20489765.625,-2144,1.31453096259963,-272,-0.166768853464132,-15952,9.78050275904353,3,3.65853658536585,-60,-0.182926829268293,14,-0.853658536585366,-4,0.0173913043478261,-41,-0.178260869565217,144,-0.702439024390244,
743428,20489785.15625,-2032,1.24586143470264,-336,-0.206008583690987,-15984,9.80012262415696,11,3.59756097560976,-59,-0.670731707317073,14,-0.853658536585366,-6,0.0260869565217391,-37,-0.160869565217391,141,-0.68780487804878,
744068,20489804.6875,-2032,1.24586143470264,-288,-0.176578786020846,-15984,9.80012262415696,5,3.71951219512195,-61,-0.304878048780488,12,-0.731707317073171,-7,0.0304347826086957,-35,-0.152173913043478,140,-0.682926829268293,
744708,20489824.21875,-2016,1.23605150214592,-288,-0.176578786020846,-16048,9.83936235438381,-4,3.65853658536585,-60,0.24390243902439,8,-0.487804878048781,-7,0.0304347826086957,-40,-0.173913043478261,141,-0.68780487804878,
745348,20489843.75,-1920,1.17719190680564,-288,-0.176578786020846,-16064,9.84917228694053,1,3.65853658536585,-60,-0.0609756097560976,1,-0.0609756097560976,-5,0.0217391304347826,-36,-0.156521739130435,141,-0.68780487804878,
745988,20489863.28125,-1920,1.17719190680564,-288,-0.176578786020846,-16080,9.85898221949724,12,3.71951219512195,-61,-0.731707317073171,0,0,-6,0.0260869565217391,-40,-0.173913043478261,141,-0.68780487804878,
746628,20489882.8125,-2032,1.24586143470264,-256,-0.156958920907419,-16000,9.80993255671367,11,3.78048780487805,-62,-0.670731707317073,4,-0.24390243902439,-6,0.0260869565217391,-39,-0.169565217391304,140,-0.682926829268293,
747268,20489902.34375,-2000,1.22624156958921,-288,-0.176578786020846,-16016,9.81974248927039,4,3.59756097560976,-59,-0.24390243902439,2,-0.121951219512195,-6,0.0260869565217391,-36,-0.156521739130435,142,-0.692682926829268,
747908,20489921.875,-1968,1.20662170447578,-240,-0.147148988350705,-16048,9.83936235438381,-5,3.47560975609756,-57,0.304878048780488,5,-0.304878048780488,-7,0.0304347826086957,-36,-0.156521739130435,139,-0.678048780487805,
748548,20489941.40625,-1936,1.18700183936235,-208,-0.127529123237278,-16032,9.8295524218271,-1,3.71951219512195,-61,0.0609756097560976,5,-0.304878048780488,-6,0.0260869565217391,-37,-0.160869565217391,139,-0.678048780487805,
749188,20489960.9375,-1920,1.17719190680564,-224,-0.137339055793991,-16048,9.83936235438381,0,3.59756097560976,-59,0,3,-0.182926829268293,-4,0.0173913043478261,-42,-0.182608695652174,142,-0.692682926829268,
749828,20489980.46875,-1920,1.17719190680564,-224,-0.137339055793991,-16032,9.8295524218271,-3,3.78048780487805,-62,0.182926829268293,0,0,-3,0.0130434782608696,-44,-0.191304347826087,142,-0.692682926829268,
750468,20490000,-1888,1.15757204169221,-272,-0.166768853464132,-16096,9.86879215205395,-10,3.47560975609756,-57,0.609756097560976,-2,0.121951219512195,-5,0.0217391304347826,-45,-0.195652173913043,143,-0.697560975609756,
751108,20490019.53125,-1984,1.2164316370325,-240,-0.147148988350705,-16016,9.81974248927039,-2,3.35365853658537,-55,0.121951219512195,-1,0.0609756097560976,-4,0.0173913043478261,-44,-0.191304347826087,143,-0.697560975609756,
751748,20490039.0625,-1984,1.2164316370325,-256,-0.156958920907419,-16000,9.80993255671367,4,3.41463414634146,-56,-0.24390243902439,-3,0.182926829268293,-3,0.0130434782608696,-45,-0.195652173913043,142,-0.692682926829268,
752388,20490058.59375,-1936,1.18700183936235,-176,-0.10790925812385,-15936,9.77069282648682,8,3.29268292682927,-54,-0.487804878048781,-7,0.426829268292683,-7,0.0304347826086957,-36,-0.156521739130435,139,-0.678048780487805,
753028,20490078.125,-1952,1.19681177191907,-256,-0.156958920907419,-15968,9.79031269160024,10,3.53658536585366,-58,-0.609756097560976,-11,0.670731707317073,-6,0.0260869565217391,-36,-0.156521739130435,140,-0.682926829268293,
753668,20490097.65625,-1984,1.2164316370325,-240,-0.147148988350705,-16032,9.8295524218271,6,3.17073170731707,-52,-0.365853658536585,-11,0.670731707317073,-5,0.0217391304347826,-37,-0.160869565217391,141,-0.68780487804878,
754308,20490117.1875,-2016,1.23605150214592,-240,-0.147148988350705,-16064,9.84917228694053,5,3.17073170731707,-52,-0.304878048780488,-7,0.426829268292683,-6,0.0260869565217391,-35,-0.152173913043478,141,-0.68780487804878,
754948,20490136.71875,-1984,1.2164316370325,-272,-0.166768853464132,-16096,9.86879215205395,5,2.86585365853659,-47,-0.304878048780488,-5,0.304878048780488,-7,0.0304347826086957,-45,-0.195652173913043,143,-0.697560975609756,
755588,20490156.25,-1984,1.2164316370325,-256,-0.156958920907419,-16160,9.90803188228081,8,3.35365853658537,-55,-0.487804878048781,-4,0.24390243902439,-4,0.0173913043478261,-38,-0.165217391304348,143,-0.697560975609756,
756228,20490175.78125,-2032,1.24586143470264,-240,-0.147148988350705,-16096,9.86879215205395,10,3.23170731707317,-53,-0.609756097560976,-4,0.24390243902439,-7,0.0304347826086957,-39,-0.169565217391304,141,-0.68780487804878,
756868,20490195.3125,-2000,1.22624156958921,-240,-0.147148988350705,-16096,9.86879215205395,5,3.29268292682927,-54,-0.304878048780488,-2,0.121951219512195,-3,0.0130434782608696,-46,-0.2,144,-0.702439024390244,
757508,20490214.84375,-2032,1.24586143470264,-240,-0.147148988350705,-16096,9.86879215205395,1,3.41463414634146,-56,-0.0609756097560976,2,-0.121951219512195,-2,0.00869565217391304,-46,-0.2,143,-0.697560975609756,
758148,20490234.375,-1920,1.17719190680564,-208,-0.127529123237278,-16160,9.90803188228081,0,3.47560975609756,-57,0,-2,0.121951219512195,-6,0.0260869565217391,-37,-0.160869565217391,142,-0.692682926829268,
758788,20490253.90625,-2000,1.22624156958921,-192,-0.117719190680564,-16112,9.87860208461067,10,3.47560975609756,-57,-0.609756097560976,-2,0.121951219512195,-6,0.0260869565217391,-37,-0.160869565217391,141,-0.68780487804878,
759428,20490273.4375,-2032,1.24586143470264,-176,-0.10790925812385,-16048,9.83936235438381,15,3.65853658536585,-60,-0.914634146341463,-5,0.304878048780488,-6,0.0260869565217391,-37,-0.160869565217391,141,-0.68780487804878,
760068,20490292.96875,-2016,1.23605150214592,-176,-0.10790925812385,-16064,9.84917228694053,12,3.84146341463415,-63,-0.731707317073171,-6,0.365853658536585,-7,0.0304347826086957,-39,-0.169565217391304,141,-0.68780487804878,
760708,20490312.5,-2064,1.26548129981606,-208,-0.127529123237278,-16096,9.86879215205395,21,3.84146341463415,-63,-1.28048780487805,-2,0.121951219512195,-5,0.0217391304347826,-42,-0.182608695652174,143,-0.697560975609756,
761348,20490332.03125,-2112,1.2949110974862,-224,-0.137339055793991,-16000,9.80993255671367,20,3.96341463414634,-65,-1.21951219512195,0,0,-5,0.0217391304347826,-44,-0.191304347826087,142,-0.692682926829268,
761988,20490351.5625,-2160,1.32434089515635,-176,-0.10790925812385,-16064,9.84917228694053,13,3.78048780487805,-62,-0.792682926829268,4,-0.24390243902439,-5,0.0217391304347826,-46,-0.2,143,-0.697560975609756,
762628,20490371.09375,-2016,1.23605150214592,-224,-0.137339055793991,-16000,9.80993255671367,13,3.71951219512195,-61,-0.792682926829268,6,-0.365853658536585,-4,0.0173913043478261,-46,-0.2,143,-0.697560975609756,
763268,20490390.625,-2096,1.28510116492949,-128,-0.0784794604537094,-16016,9.81974248927039,20,3.90243902439024,-64,-1.21951219512195,7,-0.426829268292683,-5,0.0217391304347826,-44,-0.191304347826087,142,-0.692682926829268,
763908,20490410.15625,-2112,1.2949110974862,-160,-0.0980993255671367,-16032,9.8295524218271,17,3.90243902439024,-64,-1.03658536585366,8,-0.487804878048781,-6,0.0260869565217391,-36,-0.156521739130435,140,-0.682926829268293,
764548,20490429.6875,-2096,1.28510116492949,-192,-0.117719190680564,-15936,9.77069282648682,8,4.02439024390244,-66,-0.487804878048781,6,-0.365853658536585,-7,0.0304347826086957,-39,-0.169565217391304,139,-0.678048780487805,
765188,20490449.21875,-2080,1.27529123237278,-176,-0.10790925812385,-15920,9.7608828939301,7,4.14634146341463,-68,-0.426829268292683,6,-0.365853658536585,-7,0.0304347826086957,-39,-0.169565217391304,141,-0.68780487804878,
765828,20490468.75,-2080,1.27529123237278,-112,-0.0686695278969957,-15984,9.80012262415696,7,4.08536585365854,-67,-0.426829268292683,3,-0.182926829268293,-7,0.0304347826086957,-41,-0.178260869565217,143,-0.697560975609756,
766468,20490488.28125,-2096,1.28510116492949,-144,-0.088289393010423,-15984,9.80012262415696,13,3.90243902439024,-64,-0.792682926829268,2,-0.121951219512195,-7,0.0304347826086957,-41,-0.178260869565217,142,-0.692682926829268,
767108,20490507.8125,-2096,1.28510116492949,-128,-0.0784794604537094,-15968,9.79031269160024,14,3.71951219512195,-61,-0.853658536585366,3,-0.182926829268293,-6,0.0260869565217391,-40,-0.173913043478261,140,-0.682926829268293,
767748,20490527.34375,-2144,1.31453096259963,-112,-0.0686695278969957,-16080,9.85898221949724,15,3.71951219512195,-61,-0.914634146341463,4,-0.24390243902439,-6,0.0260869565217391,-37,-0.160869565217391,140,-0.682926829268293,
768388,20490546.875,-2192,1.34396076026977,-64,-0.0392397302268547,-16048,9.83936235438381,16,3.65853658536585,-60,-0.975609756097561,6,-0.365853658536585,-6,0.0260869565217391,-36,-0.156521739130435,140,-0.682926829268293,
769028,20490566.40625,-2144,1.31453096259963,-96,-0.058859595340282,-16000,9.80993255671367,16,3.59756097560976,-59,-0.975609756097561,9,-0.548780487804878,-6,0.0260869565217391,-38,-0.165217391304348,141,-0.68780487804878,
769668,20490585.9375,-2208,1.35377069282649,-32,-0.0196198651134273,-15952,9.78050275904353,4,3.78048780487805,-62,-0.24390243902439,10,-0.609756097560976,-2,0.00869565217391304,-42,-0.182608695652174,142,-0.692682926829268,
770308,20490605.46875,-1952,1.19681177191907,16,0.00980993255671367,-16048,9.83936235438381,-20,3.84146341463415,-63,1.21951219512195,9,-0.548780487804878,-5,0.0217391304347826,-43,-0.18695652173913,142,-0.692682926829268,
770948,20490625,-704,0.431637032495402,224,0.137339055793991,-16096,9.86879215205395,-77,3.41463414634146,-56,4.69512195121951,6,-0.365853658536585,-7,0.0304347826086957,-37,-0.160869565217391,140,-0.682926829268293,
771588,20490644.53125,1120,-0.686695278969957,128,0.0784794604537094,-16912,10.3690987124464,-199,1.76829268292683,-29,12.1341463414634,-7,0.426829268292683,-7,0.0304347826086957,-38,-0.165217391304348,140,-0.682926829268293,
772228,20490664.0625,3232,-1.98160637645616,192,0.117719190680564,-18512,11.3500919681177,-425,-0.609756097560976,10,25.9146341463415,-41,2.5,-7,0.0304347826086957,-38,-0.165217391304348,141,-0.68780487804878,
772868,20490683.59375,4464,-2.73697118332311,176,0.10790925812385,-18960,11.6247700797057,-508,0,0,30.9756097560976,-57,3.47560975609756,-10,0.0434782608695652,-36,-0.156521739130435,142,-0.692682926829268,
773508,20490703.125,6576,-4.03188228080932,288,0.176578786020846,-18800,11.5266707541386,-473,7.5609756097561,-124,28.8414634146341,-152,9.26829268292683,-8,0.0347826086956522,-40,-0.173913043478261,141,-0.68780487804878,
774148,20490722.65625,7760,-4.75781729000613,384,0.235438381361128,-17984,11.0263641937462,-489,15.9756097560976,-262,29.8170731707317,-487,29.6951219512195,-10,0.0434782608695652,-37,-0.160869565217391,144,-0.702439024390244,
774788,20490742.1875,8176,-5.01287553648069,240,0.147148988350705,-17120,10.4966278356836,-441,22.7439024390244,-373,26.890243902439,-931,56.7682926829268,-10,0.0434782608695652,-35,-0.152173913043478,144,-0.702439024390244,
775428,20490761.71875,8160,-5.00306560392397,-464,-0.284488044144696,-16944,10.3887185775598,-217,27.6219512195122,-453,13.2317073170732,-1334,81.3414634146341,-8,0.0347826086956522,-42,-0.182608695652174,146,-0.712195121951219,
776068,20490781.25,7088,-4.34580012262416,-816,-0.500306560392397,-16704,10.2415695892091,-13,33.2926829268293,-546,0.792682926829268,-1726,105.243902439024,-9,0.0391304347826087,-38,-0.165217391304348,147,-0.717073170731707,
776708,20490800.78125,5824,-3.57081545064378,-944,-0.578786020846107,-16128,9.88841201716738,-2,37.6829268292683,-618,0.121951219512195,-2071,126.280487804878,-11,0.0478260869565217,-33,-0.143478260869565,144,-0.702439024390244,
777348,20490820.3125,4656,-2.85469037400368,-928,-0.568976088289393,-15712,9.63335377069283,46,38.3536585365854,-629,-2.80487804878049,-2307,140.670731707317,-11,0.0478260869565217,-27,-0.117391304347826,142,-0.692682926829268,
777988,20490839.84375,3248,-1.99141630901288,-1008,-0.618025751072961,-15664,9.60392397302268,168,37.4390243902439,-614,-10.2439024390244,-2450,149.390243902439,-9,0.0391304347826087,-27,-0.117391304347826,141,-0.68780487804878,
778628,20490859.375,2000,-1.22624156958921,-1072,-0.657265481299816,-15504,9.50582464745555,275,36.7682926829268,-603,-16.7682926829268,-2539,154.817073170732,-10,0.0434782608695652,-23,-0.1,142,-0.692682926829268,
779268,20490878.90625,976,-0.598405885959534,-1088,-0.66707541385653,-15200,9.31943592887799,316,35.3048780487805,-579,-19.2682926829268,-2618,159.634146341463,-10,0.0434782608695652,-20,-0.0869565217391304,141,-0.68780487804878,
779908,20490898.4375,368,-0.225628448804414,-992,-0.608215818516248,-14880,9.12323727774372,341,32.8048780487805,-538,-20.7926829268293,-2681,163.475609756098,-10,0.0434782608695652,-19,-0.0826086956521739,142,-0.692682926829268,
780548,20490917.96875,-96,0.058859595340282,-896,-0.549356223175966,-14752,9.04475781729001,386,28.6585365853659,-470,-23.5365853658537,-2690,164.024390243902,-10,0.0434782608695652,-13,-0.0565217391304348,139,-0.678048780487805,
781188,20490937.5,-800,0.490496627835684,-896,-0.549356223175966,-14688,9.00551808706315,502,23.4756097560976,-385,-30.609756097561,-2601,158.59756097561,-12,0.0521739130434783,-14,-0.0608695652173913,139,-0.678048780487805,
781828,20490957.03125,-1520,0.931943592887799,-720,-0.441446965052115,-14480,8.87798896382587,434,19.9390243902439,-327,-26.4634146341463,-2535,154.573170731707,-7,0.0304347826086957,-13,-0.0565217391304348,139,-0.678048780487805,
