Shimmer,Shimmer,Shimmer,Shimmer,Shimmer,Shimmer,Shimmer,Shimmer,Shimmer,Shimmer,Shimmer,Shimmer,Shimmer,Shimmer,Shimmer,Shimmer,Shimmer,Shimmer,Shimmer,Shimmer,
Timestamp,Timestamp,Wide Range Accelerometer X,Wide Range Accelerometer X,Wide Range Accelerometer Y,Wide Range Accelerometer Y,Wide Range Accelerometer Z,Wide Range Accelerometer Z,Gyroscope X,Gyroscope X,Gyroscope Y,Gyroscope Y,Gyroscope Z,Gyroscope Z,Magnetometer X,Magnetometer X,Magnetometer Y,Magnetometer Y,Magnetometer Z,Magnetometer Z,
RAW,CAL,RAW,CAL,RAW,CAL,RAW,CAL,RAW,CAL,RAW,CAL,RAW,CAL,RAW,CAL,RAW,CAL,RAW,CAL,
no units,mSecs,no units,m/(sec^2),no units,m/(sec^2),no units,m/(sec^2),no units,deg/sec,no units,deg/sec,no units,deg/sec,no units,local,no units,local,no units,local,
1951108,0,2736,-1.67749846719804,-15504,-9.50582464745555,-3936,2.41324340895156,0,3.10975609756098,-51,0,-2,0.121951219512195,-76,0.330434782608696,43,0.18695652173913,85,-0.414634146341463,
1951748,19.53125,2688,-1.6480686695279,-15520,-9.51563458001226,-3984,2.4426732066217,0,2.86585365853659,-47,0,-4,0.24390243902439,-76,0.330434782608696,43,0.18695652173913,85,-0.414634146341463,
1952388,39.0625,2736,-1.67749846719804,-15552,-9.53525444512569,-3984,2.4426732066217,2,2.98780487804878,-49,-0.121951219512195,-6,0.365853658536585,-76,0.330434782608696,47,0.204347826086957,84,-0.409756097560976,
1953028,58.59375,2688,-1.6480686695279,-15424,-9.45677498467198,-3920,2.40343347639485,3,2.98780487804878,-49,-0.182926829268293,-12,0.731707317073171,-76,0.330434782608696,46,0.2,84,-0.409756097560976,
1953668,78.125,2640,-1.61863887185776,-15488,-9.49601471489883,-3888,2.38381361128142,3,3.04878048780488,-50,-0.182926829268293,-13,0.792682926829268,-78,0.339130434782609,44,0.191304347826087,85,-0.414634146341463,
1954308,97.65625,2592,-1.58920907418761,-15472,-9.48620478234212,-3952,2.42305334150828,-2,3.04878048780488,-50,0.121951219512195,-12,0.731707317073171,-78,0.339130434782609,44,0.191304347826087,85,-0.414634146341463,
1954948,117.1875,2672,-1.63825873697118,-15488,-9.49601471489883,-3888,2.38381361128142,-6,3.04878048780488,-50,0.365853658536585,-6,0.365853658536585,-76,0.330434782608696,46,0.2,84,-0.409756097560976,
1955588,136.71875,2752,-1.68730839975475,-15392,-9.43715511955855,-3952,2.42305334150828,-1,2.86585365853659,-47,0.0609756097560976,-5,0.304878048780488,-76,0.330434782608696,44,0.191304347826087,83,-0.404878048780488,
1956228,156.25,2688,-1.6480686695279,-15488,-9.49601471489883,-3920,2.40343347639485,8,3.04878048780488,-50,-0.487804878048781,-4,0.24390243902439,-77,0.334782608695652,43,0.18695652173913,86,-0.419512195121951,
1956868,175.78125,2608,-1.59901900674433,-15488,-9.49601471489883,-3840,2.35438381361128,10,3.04878048780488,-50,-0.609756097560976,-7,0.426829268292683,-77,0.334782608695652,44,0.191304347826087,86,-0.419512195121951,
1957508,195.3125,2560,-1.56958920907419,-15488,-9.49601471489883,-3888,2.38381361128142,-2,3.23170731707317,-53,0.121951219512195,-11,0.670731707317073,-75,0.326086956521739,43,0.18695652173913,84,-0.409756097560976,
1958148,214.84375,2608,-1.59901900674433,-15488,-9.49601471489883,-3920,2.40343347639485,-16,3.17073170731707,-52,0.975609756097561,-13,0.792682926829268,-75,0.326086956521739,44,0.191304347826087,84,-0.409756097560976,
1958788,234.375,2640,-1.61863887185776,-15520,-9.51563458001226,-3840,2.35438381361128,-28,3.29268292682927,-54,1.70731707317073,-16,0.975609756097561,-78,0.339130434782609,48,0.208695652173913,83,-0.404878048780488,
1959428,253.90625,2640,-1.61863887185776,-15472,-9.48620478234212,-3856,2.364193746168,-29,3.17073170731707,-52,1.76829268292683,-21,1.28048780487805,-77,0.334782608695652,46,0.2,85,-0.414634146341463,
1960068,273.4375,2688,-1.6480686695279,-15440,-9.46658491722869,-3824,2.34457388105457,-21,2.98780487804878,-49,1.28048780487805,-21,1.28048780487805,-77,0.334782608695652,46,0.2,84,-0.409756097560976,
1960708,292.96875,2672,-1.63825873697118,-15408,-9.44696505211527,-3872,2.37400367872471,-18,3.04878048780488,-50,1.09756097560976,-17,1.03658536585366,-77,0.334782608695652,43,0.18695652173913,85,-0.414634146341463,
1961348,312.5,2640,-1.61863887185776,-15360,-9.41753525444513,-3872,2.37400367872471,-13,2.5,-41,0.792682926829268,-14,0.853658536585366,-77,0.334782608695652,48,0.208695652173913,83,-0.404878048780488,
1961988,332.03125,2672,-1.63825873697118,-15424,-9.45677498467198,-3872,2.37400367872471,-9,2.25609756097561,-37,0.548780487804878,-11,0.670731707317073,-77,0.334782608695652,47,0.204347826086957,83,-0.404878048780488,
1962628,351.5625,2640,-1.61863887185776,-15536,-9.52544451256898,-3888,2.38381361128142,-6,2.13414634146341,-35,0.365853658536585,-7,0.426829268292683,-76,0.330434782608696,45,0.195652173913043,84,-0.409756097560976,
1963268,371.09375,2704,-1.65787860208461,-15552,-9.53525444512569,-3952,2.42305334150828,1,1.95121951219512,-32,-0.0609756097560976,-4,0.24390243902439,-77,0.334782608695652,45,0.195652173913043,85,-0.414634146341463,
1963908,390.625,2752,-1.68730839975475,-15552,-9.53525444512569,-4016,2.46229307173513,5,2.13414634146341,-35,-0.304878048780488,-4,0.24390243902439,-76,0.330434782608696,47,0.204347826086957,84,-0.409756097560976,
1964548,410.15625,2688,-1.6480686695279,-15552,-9.53525444512569,-4064,2.49172286940527,13,2.25609756097561,-37,-0.792682926829268,-8,0.487804878048781,-77,0.334782608695652,47,0.204347826086957,84,-0.409756097560976,
1965188,429.6875,2736,-1.67749846719804,-15504,-9.50582464745555,-4144,2.54077253218884,10,2.5,-41,-0.609756097560976,-8,0.487804878048781,-78,0.339130434782609,44,0.191304347826087,85,-0.414634146341463,
1965828,449.21875,2720,-1.66768853464132,-15568,-9.5450643776824,-4144,2.54077253218884,2,2.74390243902439,-45,-0.121951219512195,-14,0.853658536585366,-78,0.339130434782609,44,0.191304347826087,85,-0.414634146341463,
1966468,468.75,2720,-1.66768853464132,-15536,-9.52544451256898,-4080,2.50153280196199,2,3.10975609756098,-51,-0.121951219512195,-11,0.670731707317073,-77,0.334782608695652,44,0.191304347826087,84,-0.409756097560976,
1967108,488.28125,2736,-1.67749846719804,-15600,-9.56468424279583,-4032,2.47210300429185,15,3.17073170731707,-52,-0.914634146341463,-7,0.426829268292683,-76,0.330434782608696,44,0.191304347826087,84,-0.409756097560976,
1967748,507.8125,2848,-1.74616799509503,-15520,-9.51563458001226,-4064,2.49172286940527,24,3.23170731707317,-53,-1.46341463414634,-6,0.365853658536585,-77,0.334782608695652,49,0.21304347826087,86,-0.419512195121951,
1968388,527.34375,2800,-1.71673819742489,-15552,-9.53525444512569,-4048,2.48191293684856,25,3.53658536585366,-58,-1.52439024390244,-5,0.304878048780488,-78,0.339130434782609,48,0.208695652173913,85,-0.414634146341463,
1969028,546.875,2688,-1.6480686695279,-15520,-9.51563458001226,-4032,2.47210300429185,21,3.65853658536585,-60,-1.28048780487805,-11,0.670731707317073,-79,0.343478260869565,48,0.208695652173913,84,-0.409756097560976,
1969668,566.40625,2736,-1.67749846719804,-15584,-9.55487431023912,-3952,2.42305334150828,17,3.90243902439024,-64,-1.03658536585366,-15,0.914634146341463,-79,0.343478260869565,43,0.18695652173913,85,-0.414634146341463,
1970308,585.9375,2640,-1.61863887185776,-15552,-9.53525444512569,-3984,2.4426732066217,18,4.08536585365854,-67,-1.09756097560976,-18,1.09756097560976,-79,0.343478260869565,48,0.208695652173913,86,-0.419512195121951,
1970948,605.46875,2688,-1.6480686695279,-15568,-9.5450643776824,-3984,2.4426732066217,21,4.20731707317073,-69,-1.28048780487805,-12,0.731707317073171,-76,0.330434782608696,46,0.2,84,-0.409756097560976,
1971588,625,2688,-1.6480686695279,-15488,-9.49601471489883,-3904,2.39362354383814,22,4.14634146341463,-68,-1.34146341463415,-10,0.609756097560976,-79,0.343478260869565,47,0.204347826086957,85,-0.414634146341463,
1972228,644.53125,2608,-1.59901900674433,-15472,-9.48620478234212,-3840,2.35438381361128,16,4.14634146341463,-68,-0.975609756097561,-10,0.609756097560976,-76,0.330434782608696,46,0.2,83,-0.404878048780488,
1972868,664.0625,2608,-1.59901900674433,-15472,-9.48620478234212,-3856,2.364193746168,6,3.90243902439024,-64,-0.365853658536585,-11,0.670731707317073,-76,0.330434782608696,47,0.204347826086957,85,-0.414634146341463,
1973508,683.59375,2640,-1.61863887185776,-15488,-9.49601471489883,-3872,2.37400367872471,6,3.84146341463415,-63,-0.365853658536585,-8,0.487804878048781,-76,0.330434782608696,44,0.191304347826087,86,-0.419512195121951,
1974148,703.125,2640,-1.61863887185776,-15504,-9.50582464745555,-3888,2.38381361128142,13,3.65853658536585,-60,-0.792682926829268,-6,0.365853658536585,-76,0.330434782608696,45,0.195652173913043,86,-0.419512195121951,
1974788,722.65625,2544,-1.55977927651747,-15440,-9.46658491722869,-3888,2.38381361128142,13,3.41463414634146,-56,-0.792682926829268,-5,0.304878048780488,-76,0.330434782608696,47,0.204347826086957,84,-0.409756097560976,
1975428,742.1875,2528,-1.54996934396076,-15536,-9.52544451256898,-3920,2.40343347639485,10,3.53658536585366,-58,-0.609756097560976,0,0,-75,0.326086956521739,47,0.204347826086957,85,-0.414634146341463,
1976068,761.71875,2544,-1.55977927651747,-15488,-9.49601471489883,-3904,2.39362354383814,7,3.29268292682927,-54,-0.426829268292683,0,0,-78,0.339130434782609,44,0.191304347826087,86,-0.419512195121951,
1976708,781.25,2608,-1.59901900674433,-15504,-9.50582464745555,-3904,2.39362354383814,2,3.23170731707317,-53,-0.121951219512195,3,-0.182926829268293,-78,0.339130434782609,44,0.191304347826087,86,-0.419512195121951,
1977348,800.78125,2688,-1.6480686695279,-15520,-9.51563458001226,-4016,2.46229307173513,3,2.98780487804878,-49,-0.182926829268293,6,-0.365853658536585,-75,0.326086956521739,44,0.191304347826087,85,-0.414634146341463,
1977988,820.3125,2688,-1.6480686695279,-15504,-9.50582464745555,-3936,2.41324340895156,6,2.92682926829268,-48,-0.365853658536585,5,-0.304878048780488,-75,0.326086956521739,42,0.182608695652174,84,-0.409756097560976,
1978628,839.84375,2656,-1.62844880441447,-15536,-9.52544451256898,-3936,2.41324340895156,11,2.98780487804878,-49,-0.670731707317073,8,-0.487804878048781,-77,0.334782608695652,46,0.2,85,-0.414634146341463,
1979268,859.375,2640,-1.61863887185776,-15520,-9.51563458001226,-3968,2.43286327406499,8,3.10975609756098,-51,-0.487804878048781,9,-0.548780487804878,-78,0.339130434782609,48,0.208695652173913,84,-0.409756097560976,
1979908,878.90625,2640,-1.61863887185776,-15520,-9.51563458001226,-4080,2.50153280196199,2,3.17073170731707,-52,-0.121951219512195,6,-0.365853658536585,-76,0.330434782608696,43,0.18695652173913,85,-0.414634146341463,
1980548,898.4375,2672,-1.63825873697118,-15520,-9.51563458001226,-4128,2.53096259963213,8,3.29268292682927,-54,-0.487804878048781,10,-0.609756097560976,-77,0.334782608695652,42,0.182608695652174,85,-0.414634146341463,
1981188,917.96875,2672,-1.63825873697118,-15488,-9.49601471489883,-4048,2.48191293684856,10,3.47560975609756,-57,-0.609756097560976,1,-0.0609756097560976,-76,0.330434782608696,48,0.208695652173913,85,-0.414634146341463,
1981828,937.5,2688,-1.6480686695279,-15424,-9.45677498467198,-4160,2.55058246474555,13,3.71951219512195,-61,-0.792682926829268,-2,0.121951219512195,-77,0.334782608695652,49,0.21304347826087,84,-0.409756097560976,
1982468,957.03125,2656,-1.62844880441447,-15424,-9.45677498467198,-4096,2.5113427345187,9,3.84146341463415,-63,-0.548780487804878,-1,0.0609756097560976,-75,0.326086956521739,42,0.182608695652174,85,-0.414634146341463,
1983108,976.5625,2592,-1.58920907418761,-15520,-9.51563458001226,-4032,2.47210300429185,8,4.08536585365854,-67,-0.487804878048781,2,-0.121951219512195,-76,0.330434782608696,48,0.208695652173913,86,-0.419512195121951,
1983748,996.09375,2640,-1.61863887185776,-15504,-9.50582464745555,-4112,2.52115266707541,6,4.02439024390244,-66,-0.365853658536585,9,-0.548780487804878,-75,0.326086956521739,46,0.2,85,-0.414634146341463,
1984388,1015.625,2720,-1.66768853464132,-15536,-9.52544451256898,-4096,2.5113427345187,13,4.08536585365854,-67,-0.792682926829268,10,-0.609756097560976,-77,0.334782608695652,46,0.2,85,-0.414634146341463,
1985028,1035.15625,2736,-1.67749846719804,-15456,-9.47639484978541,-4000,2.45248313917842,16,4.20731707317073,-69,-0.975609756097561,2,-0.121951219512195,-75,0.326086956521739,43,0.18695652173913,87,-0.424390243902439,
1985668,1054.6875,2656,-1.62844880441447,-15456,-9.47639484978541,-4064,2.49172286940527,14,4.14634146341463,-68,-0.853658536585366,-3,0.182926829268293,-76,0.330434782608696,44,0.191304347826087,86,-0.419512195121951,
1986308,1074.21875,2640,-1.61863887185776,-15488,-9.49601471489883,-4032,2.47210300429185,3,4.39024390243902,-72,-0.182926829268293,-12,0.731707317073171,-74,0.321739130434783,45,0.195652173913043,86,-0.419512195121951,
1986948,1093.75,2672,-1.63825873697118,-15520,-9.51563458001226,-4016,2.46229307173513,-6,4.26829268292683,-70,0.365853658536585,-13,0.792682926829268,-76,0.330434782608696,43,0.18695652173913,85,-0.414634146341463,
1987588,1113.28125,2704,-1.65787860208461,-15424,-9.45677498467198,-4016,2.46229307173513,-3,4.02439024390244,-66,0.182926829268293,-14,0.853658536585366,-75,0.326086956521739,42,0.182608695652174,87,-0.424390243902439,
1988228,1132.8125,2704,-1.65787860208461,-15488,-9.49601471489883,-3984,2.4426732066217,6,4.14634146341463,-68,-0.365853658536585,-16,0.975609756097561,-74,0.321739130434783,42,0.182608695652174,87,-0.424390243902439,
1988868,1152.34375,2768,-1.69711833231147,-15472,-9.48620478234212,-3984,2.4426732066217,14,3.71951219512195,-61,-0.853658536585366,-16,0.975609756097561,-74,0.321739130434783,45,0.195652173913043,84,-0.409756097560976,
1989508,1171.875,2688,-1.6480686695279,-15392,-9.43715511955855,-4080,2.50153280196199,21,3.47560975609756,-57,-1.28048780487805,-16,0.975609756097561,-74,0.321739130434783,41,0.178260869565217,87,-0.424390243902439,
1990148,1191.40625,2640,-1.61863887185776,-15424,-9.45677498467198,-4096,2.5113427345187,27,3.29268292682927,-54,-1.64634146341463,-15,0.914634146341463,-74,0.321739130434783,47,0.204347826086957,87,-0.424390243902439,
1990788,1210.9375,2640,-1.61863887185776,-15440,-9.46658491722869,-4080,2.50153280196199,28,3.23170731707317,-53,-1.70731707317073,-14,0.853658536585366,-74,0.321739130434783,46,0.2,87,-0.424390243902439,
1991428,1230.46875,2672,-1.63825873697118,-15424,-9.45677498467198,-4048,2.48191293684856,31,3.17073170731707,-52,-1.89024390243902,-14,0.853658536585366,-74,0.321739130434783,42,0.182608695652174,87,-0.424390243902439,
1992068,1250,2688,-1.6480686695279,-15472,-9.48620478234212,-4160,2.55058246474555,36,3.29268292682927,-54,-2.19512195121951,-15,0.914634146341463,-74,0.321739130434783,43,0.18695652173913,87,-0.424390243902439,
1992708,1269.53125,2608,-1.59901900674433,-15488,-9.49601471489883,-4176,2.56039239730227,34,3.47560975609756,-57,-2.07317073170732,-15,0.914634146341463,-76,0.330434782608696,44,0.191304347826087,85,-0.414634146341463,
1993348,1289.0625,2656,-1.62844880441447,-15392,-9.43715511955855,-4208,2.5800122624157,33,3.41463414634146,-56,-2.01219512195122,-14,0.853658536585366,-76,0.330434782608696,46,0.2,85,-0.414634146341463,
1993988,1308.59375,2640,-1.61863887185776,-15360,-9.41753525444513,-4208,2.5800122624157,32,3.71951219512195,-61,-1.95121951219512,-15,0.914634146341463,-75,0.326086956521739,43,0.18695652173913,86,-0.419512195121951,
1994628,1328.125,2736,-1.67749846719804,-15408,-9.44696505211527,-4272,2.61925199264255,34,3.78048780487805,-62,-2.07317073170732,-13,0.792682926829268,-73,0.317391304347826,42,0.182608695652174,87,-0.424390243902439,
1995268,1347.65625,2736,-1.67749846719804,-15376,-9.42734518700184,-4352,2.66830165542612,61,3.78048780487805,-62,-3.71951219512195,-12,0.731707317073171,-73,0.317391304347826,45,0.195652173913043,86,-0.419512195121951,
1995908,1367.1875,2944,-1.80502759043532,-15344,-9.40772532188841,-4432,2.71735131820969,78,3.96341463414634,-65,-4.75609756097561,-17,1.03658536585366,-75,0.326086956521739,46,0.2,85,-0.414634146341463,
1996548,1386.71875,3152,-1.93255671367259,-15504,-9.50582464745555,-4752,2.91354996934396,132,3.47560975609756,-57,-8.04878048780488,-21,1.28048780487805,-74,0.321739130434783,40,0.173913043478261,87,-0.424390243902439,
1997188,1406.25,3056,-1.87369711833231,-15664,-9.60392397302268,-4928,3.02145922746781,194,4.08536585365854,-67,-11.8292682926829,-32,1.95121951219512,-74,0.321739130434783,41,0.178260869565217,86,-0.419512195121951,
1997828,1425.78125,3088,-1.89331698344574,-15488,-9.49601471489883,-5328,3.26670754138565,231,5.79268292682927,-95,-14.0853658536585,-56,3.41463414634146,-71,0.308695652173913,41,0.178260869565217,86,-0.419512195121951,
1998468,1445.3125,2944,-1.80502759043532,-15600,-9.56468424279583,-5536,3.39423666462293,253,7.37804878048781,-121,-15.4268292682927,-69,4.20731707317073,-72,0.31304347826087,40,0.173913043478261,86,-0.419512195121951,
1999108,1464.84375,2816,-1.72654812998161,-15600,-9.56468424279583,-5792,3.55119558553035,226,10.3048780487805,-169,-13.780487804878,-87,5.30487804878049,-72,0.31304347826087,41,0.178260869565217,86,-0.419512195121951,
1999748,1484.375,2816,-1.72654812998161,-15568,-9.5450643776824,-5808,3.56100551808706,178,13.2926829268293,-218,-10.8536585365854,-87,5.30487804878049,-72,0.31304347826087,41,0.178260869565217,87,-0.424390243902439,
2000388,1503.90625,2880,-1.76578786020846,-15520,-9.51563458001226,-5712,3.50214592274678,137,16.1585365853659,-265,-8.35365853658537,-88,5.36585365853659,-69,0.3,38,0.165217391304348,87,-0.424390243902439,
2001028,1523.4375,2864,-1.75597792765175,-15488,-9.49601471489883,-5536,3.39423666462293,87,18.2317073170732,-299,-5.30487804878049,-89,5.42682926829268,-66,0.28695652173913,37,0.160869565217391,89,-0.434146341463415,
2001668,1542.96875,2976,-1.82464745554874,-15392,-9.43715511955855,-5392,3.30594727161251,62,20,-328,-3.78048780487805,-91,5.54878048780488,-67,0.291304347826087,42,0.182608695652174,88,-0.429268292682927,
2002308,1562.5,3200,-1.96198651134273,-15344,-9.40772532188841,-5328,3.26670754138565,62,20.9146341463415,-343,-3.78048780487805,-97,5.91463414634146,-64,0.278260869565217,40,0.173913043478261,90,-0.439024390243902,
2002948,1582.03125,3120,-1.91293684855917,-15360,-9.41753525444513,-5152,3.1587982832618,95,21.4634146341463,-352,-5.79268292682927,-102,6.21951219512195,-63,0.273913043478261,39,0.169565217391304,89,-0.434146341463415,
2003588,1601.5625,3056,-1.87369711833231,-15344,-9.40772532188841,-4976,3.05088902513795,116,22.3170731707317,-366,-7.07317073170732,-111,6.76829268292683,-60,0.260869565217391,38,0.165217391304348,91,-0.44390243902439,
2004228,1621.09375,2960,-1.81483752299203,-15216,-9.3292458614347,-4752,2.91354996934396,118,22.3170731707317,-366,-7.19512195121951,-122,7.4390243902439,-60,0.260869565217391,39,0.169565217391304,92,-0.448780487804878,
2004868,1640.625,2864,-1.75597792765175,-15184,-9.30962599632127,-4592,2.81545064377682,101,22.1341463414634,-363,-6.15853658536585,-125,7.6219512195122,-58,0.252173913043478,38,0.165217391304348,92,-0.448780487804878,
2005508,1660.15625,2832,-1.73635806253832,-15136,-9.28019619865113,-4352,2.66830165542612,81,21.219512195122,-348,-4.9390243902439,-130,7.92682926829268,-58,0.252173913043478,37,0.160869565217391,95,-0.463414634146341,
2006148,1679.6875,2864,-1.75597792765175,-15072,-9.24095646842428,-4112,2.52115266707541,63,19.8780487804878,-326,-3.84146341463415,-128,7.80487804878049,-56,0.243478260869565,39,0.169565217391304,93,-0.453658536585366,
2006788,1699.21875,2896,-1.77559779276517,-14960,-9.17228694052728,-4096,2.5113427345187,63,18.2926829268293,-300,-3.84146341463415,-129,7.86585365853659,-57,0.247826086956522,36,0.156521739130435,94,-0.458536585365854,
2007428,1718.75,2864,-1.75597792765175,-14880,-9.12323727774372,-3856,2.364193746168,61,16.280487804878,-267,-3.71951219512195,-125,7.6219512195122,-57,0.247826086956522,37,0.160869565217391,96,-0.468292682926829,
2008068,1738.28125,2768,-1.69711833231147,-14832,-9.09380748007357,-3728,2.28571428571429,62,13.780487804878,-226,-3.78048780487805,-122,7.4390243902439,-57,0.247826086956522,34,0.147826086956522,97,-0.473170731707317,
2008708,1757.8125,2784,-1.70692826486818,-14768,-9.05456774984672,-3744,2.295524218271,60,10.7926829268293,-177,-3.65853658536585,-120,7.31707317073171,-58,0.252173913043478,41,0.178260869565217,97,-0.473170731707317,
2009348,1777.34375,2704,-1.65787860208461,-14624,-8.9662783568363,-3888,2.38381361128142,69,7.5609756097561,-124,-4.20731707317073,-116,7.07317073170732,-54,0.234782608695652,33,0.143478260869565,96,-0.468292682926829,
2009988,1796.875,2624,-1.60882893930104,-14656,-8.98589822194972,-3856,2.364193746168,98,4.63414634146342,-76,-5.97560975609756,-114,6.95121951219512,-57,0.247826086956522,35,0.152173913043478,96,-0.468292682926829,
2010628,1816.40625,2512,-1.54015941140405,-14688,-9.00551808706315,-3888,2.38381361128142,129,1.89024390243902,-31,-7.86585365853659,-107,6.52439024390244,-56,0.243478260869565,33,0.143478260869565,98,-0.478048780487805,
2011268,1835.9375,2320,-1.42244022072348,-14816,-9.08399754751686,-4128,2.53096259963213,129,-0.426829268292683,7,-7.86585365853659,-94,5.73170731707317,-54,0.234782608695652,32,0.139130434782609,97,-0.473170731707317,
2011908,1855.46875,2192,-1.34396076026977,-14832,-9.09380748007357,-4320,2.64868179031269,95,-2.74390243902439,45,-5.79268292682927,-77,4.69512195121951,-55,0.239130434782609,38,0.165217391304348,95,-0.463414634146341,
2012548,1875,2272,-1.39301042305334,-14768,-9.05456774984672,-4496,2.75659104843654,52,-4.51219512195122,74,-3.17073170731707,-57,3.47560975609756,-56,0.243478260869565,37,0.160869565217391,95,-0.463414634146341,
2013188,1894.53125,2336,-1.4322501532802,-14704,-9.01532801961987,-4640,2.84488044144697,37,-6.15853658536585,101,-2.25609756097561,-32,1.95121951219512,-57,0.247826086956522,38,0.165217391304348,94,-0.458536585365854,
2013828,1914.0625,2304,-1.41263028816677,-14816,-9.08399754751686,-4816,2.95278969957082,32,-7.31707317073171,120,-1.95121951219512,-11,0.670731707317073,-55,0.239130434782609,34,0.147826086956522,94,-0.458536585365854,
2014468,1933.59375,2288,-1.40282035561006,-14864,-9.113427345187,-4848,2.97240956468424,24,-7.74390243902439,127,-1.46341463414634,3,-0.182926829268293,-56,0.243478260869565,34,0.147826086956522,94,-0.458536585365854,
2015108,1953.125,2256,-1.38320049049663,-14976,-9.182096873084,-5040,3.09012875536481,-32,-8.59756097560976,141,1.95121951219512,12,-0.731707317073171,-59,0.256521739130435,36,0.156521739130435,91,-0.44390243902439,
2015748,1972.65625,2416,-1.48129981606376,-15088,-9.25076640098099,-5168,3.16860821581852,-37,-8.65853658536586,142,2.25609756097561,25,-1.52439024390244,-59,0.256521739130435,40,0.173913043478261,90,-0.439024390243902,
2016388,1992.1875,2512,-1.54015941140405,-15280,-9.36848559166156,-5216,3.19803801348866,-40,-9.14634146341463,150,2.4390243902439,46,-2.80487804878049,-57,0.247826086956522,35,0.152173913043478,92,-0.448780487804878,
2017028,2011.71875,2656,-1.62844880441447,-15344,-9.40772532188841,-5296,3.24708767627223,-19,-8.90243902439025,146,1.15853658536585,69,-4.20731707317073,-58,0.252173913043478,42,0.182608695652174,88,-0.429268292682927,
2017668,2031.25,2672,-1.63825873697118,-15376,-9.42734518700184,-5296,3.24708767627223,-7,-8.41463414634146,138,0.426829268292683,86,-5.24390243902439,-59,0.256521739130435,40,0.173913043478261,88,-0.429268292682927,
2018308,2050.78125,2720,-1.66768853464132,-15392,-9.43715511955855,-5312,3.25689760882894,-10,-8.10975609756098,133,0.609756097560976,99,-6.03658536585366,-62,0.269565217391304,40,0.173913043478261,88,-0.429268292682927,
2018948,2070.3125,2752,-1.68730839975475,-15408,-9.44696505211527,-5376,3.29613733905579,-18,-7.37804878048781,121,1.09756097560976,107,-6.52439024390244,-61,0.265217391304348,39,0.169565217391304,88,-0.429268292682927,
2019588,2089.84375,2800,-1.71673819742489,-15424,-9.45677498467198,-5360,3.28632740649908,-30,-6.58536585365854,108,1.82926829268293,114,-6.95121951219512,-62,0.269565217391304,37,0.160869565217391,89,-0.434146341463415,
2020228,2109.375,2864,-1.75597792765175,-15472,-9.48620478234212,-5248,3.21765787860208,-42,-5.67073170731707,93,2.5609756097561,115,-7.01219512195122,-60,0.260869565217391,39,0.169565217391304,87,-0.424390243902439,
2020868,2128.90625,2800,-1.71673819742489,-15392,-9.43715511955855,-5136,3.14898835070509,-58,-4.87804878048781,80,3.53658536585366,111,-6.76829268292683,-61,0.265217391304348,38,0.165217391304348,87,-0.424390243902439,
2021508,2148.4375,2864,-1.75597792765175,-15360,-9.41753525444513,-5040,3.09012875536481,-81,-4.02439024390244,66,4.9390243902439,108,-6.58536585365854,-62,0.269565217391304,41,0.178260869565217,86,-0.419512195121951,
2022148,2167.96875,2960,-1.81483752299203,-15344,-9.40772532188841,-4928,3.02145922746781,-93,-3.23170731707317,53,5.67073170731707,97,-5.91463414634146,-63,0.273913043478261,43,0.18695652173913,86,-0.419512195121951,
2022788,2187.5,2944,-1.80502759043532,-15328,-9.3979153893317,-4816,2.95278969957082,-95,-2.74390243902439,45,5.79268292682927,90,-5.48780487804878,-61,0.265217391304348,38,0.165217391304348,87,-0.424390243902439,
2023428,2207.03125,3008,-1.84426732066217,-15344,-9.40772532188841,-4704,2.88412017167382,-89,-2.37804878048781,39,5.42682926829268,80,-4.87804878048781,-62,0.269565217391304,38,0.165217391304348,88,-0.429268292682927,
2024068,2226.5625,3008,-1.84426732066217,-15312,-9.38810545677498,-4672,2.86450030656039,-78,-2.19512195121951,36,4.75609756097561,71,-4.32926829268293,-66,0.28695652173913,43,0.18695652173913,87,-0.424390243902439,
2024708,2246.09375,3056,-1.87369711833231,-15312,-9.38810545677498,-4640,2.84488044144697,-73,-1.70731707317073,28,4.45121951219512,59,-3.59756097560976,-64,0.278260869565217,43,0.18695652173913,88,-0.429268292682927,
2025348,2265.625,2992,-1.83445738810546,-15216,-9.3292458614347,-4576,2.80564071122011,-66,-1.40243902439024,23,4.02439024390244,49,-2.98780487804878,-65,0.282608695652174,39,0.169565217391304,88,-0.429268292682927,
2025988,2285.15625,3056,-1.87369711833231,-15360,-9.41753525444513,-4592,2.81545064377682,-69,-0.731707317073171,12,4.20731707317073,38,-2.31707317073171,-65,0.282608695652174,39,0.169565217391304,87,-0.424390243902439,
2026628,2304.6875,2976,-1.82464745554874,-15312,-9.38810545677498,-4672,2.86450030656039,-83,-0.792682926829268,13,5.0609756097561,26,-1.58536585365854,-68,0.295652173913043,44,0.191304347826087,86,-0.419512195121951,
2027268,2324.21875,2944,-1.80502759043532,-15376,-9.42734518700184,-4592,2.81545064377682,-89,-0.853658536585366,14,5.42682926829268,12,-0.731707317073171,-66,0.28695652173913,42,0.182608695652174,86,-0.419512195121951,
2027908,2343.75,2960,-1.81483752299203,-15440,-9.46658491722869,-4608,2.82526057633354,-83,-0.670731707317073,11,5.0609756097561,4,-0.24390243902439,-66,0.28695652173913,44,0.191304347826087,85,-0.414634146341463,
2028548,2363.28125,2976,-1.82464745554874,-15328,-9.3979153893317,-4640,2.84488044144697,-80,-0.24390243902439,4,4.87804878048781,-3,0.182926829268293,-67,0.291304347826087,41,0.178260869565217,86,-0.419512195121951,
2029188,2382.8125,3008,-1.84426732066217,-15376,-9.42734518700184,-4560,2.7958307786634,-64,-0.182926829268293,3,3.90243902439024,-9,0.548780487804878,-66,0.28695652173913,44,0.191304347826087,85,-0.414634146341463,
2029828,2402.34375,2912,-1.78540772532189,-15280,-9.36848559166156,-4544,2.78602084610668,-57,-0.0609756097560976,1,3.47560975609756,-13,0.792682926829268,-67,0.291304347826087,43,0.18695652173913,84,-0.409756097560976,
2030468,2421.875,2848,-1.74616799509503,-15280,-9.36848559166156,-4512,2.76640098099326,-46,0.121951219512195,-2,2.80487804878049,-17,1.03658536585366,-72,0.31304347826087,43,0.18695652173913,84,-0.409756097560976,
2031108,2441.40625,2896,-1.77559779276517,-15344,-9.40772532188841,-4528,2.77621091354997,-23,-0.0609756097560976,1,1.40243902439024,-21,1.28048780487805,-70,0.304347826086957,40,0.173913043478261,85,-0.414634146341463,
2031748,2460.9375,2800,-1.71673819742489,-15328,-9.3979153893317,-4672,2.86450030656039,-6,0.365853658536585,-6,0.365853658536585,-18,1.09756097560976,-67,0.291304347826087,40,0.173913043478261,83,-0.404878048780488,
2032388,2480.46875,2736,-1.67749846719804,-15424,-9.45677498467198,-4672,2.86450030656039,-1,0.731707317073171,-12,0.0609756097560976,-20,1.21951219512195,-68,0.295652173913043,41,0.178260869565217,82,-0.4,
2033028,2500,2720,-1.66768853464132,-15392,-9.43715511955855,-4672,2.86450030656039,7,1.21951219512195,-20,-0.426829268292683,-18,1.09756097560976,-70,0.304347826086957,44,0.191304347826087,84,-0.409756097560976,
2033668,2519.53125,2752,-1.68730839975475,-15408,-9.44696505211527,-4640,2.84488044144697,5,1.95121951219512,-32,-0.304878048780488,-17,1.03658536585366,-71,0.308695652173913,46,0.2,85,-0.414634146341463,
2034308,2539.0625,2688,-1.6480686695279,-15376,-9.42734518700184,-4672,2.86450030656039,6,2.5609756097561,-42,-0.365853658536585,-16,0.975609756097561,-69,0.3,45,0.195652173913043,82,-0.4,
2034948,2558.59375,2688,-1.6480686695279,-15488,-9.49601471489883,-4784,2.93316983445739,21,3.35365853658537,-55,-1.28048780487805,-14,0.853658536585366,-69,0.3,45,0.195652173913043,82,-0.4,
2035588,2578.125,2736,-1.67749846719804,-15600,-9.56468424279583,-4864,2.98221949724096,43,4.9390243902439,-81,-2.6219512195122,-15,0.914634146341463,-70,0.304347826086957,44,0.191304347826087,85,-0.414634146341463,
2036228,2597.65625,2704,-1.65787860208461,-15520,-9.51563458001226,-4816,2.95278969957082,41,6.15853658536585,-101,-2.5,-17,1.03658536585366,-69,0.3,46,0.2,82,-0.4,
2036868,2617.1875,2528,-1.54996934396076,-15472,-9.48620478234212,-4832,2.96259963212753,6,7.86585365853659,-129,-0.365853658536585,-25,1.52439024390244,-69,0.3,41,0.178260869565217,84,-0.409756097560976,
2037508,2636.71875,2528,-1.54996934396076,-15296,-9.37829552421827,-4816,2.95278969957082,-50,9.02439024390244,-148,3.04878048780488,-29,1.76829268292683,-68,0.295652173913043,41,0.178260869565217,85,-0.414634146341463,
2038148,2656.25,2576,-1.5793991416309,-15312,-9.38810545677498,-4784,2.93316983445739,-88,9.81707317073171,-161,5.36585365853659,-31,1.89024390243902,-68,0.295652173913043,44,0.191304347826087,83,-0.404878048780488,
2038788,2675.78125,2672,-1.63825873697118,-15344,-9.40772532188841,-4720,2.89393010423053,-80,10.5487804878049,-173,4.87804878048781,-21,1.28048780487805,-67,0.291304347826087,43,0.18695652173913,85,-0.414634146341463,
2039428,2695.3125,2768,-1.69711833231147,-15472,-9.48620478234212,-4704,2.88412017167382,-65,10.7926829268293,-177,3.96341463414634,-9,0.548780487804878,-68,0.295652173913043,40,0.173913043478261,86,-0.419512195121951,
2040068,2714.84375,2784,-1.70692826486818,-15376,-9.42734518700184,-4688,2.87431023911711,-56,10.8536585365854,-178,3.41463414634146,-3,0.182926829268293,-68,0.295652173913043,41,0.178260869565217,88,-0.429268292682927,
2040708,2734.375,2848,-1.74616799509503,-15296,-9.37829552421827,-4656,2.85469037400368,-56,10.7317073170732,-176,3.41463414634146,-11,0.670731707317073,-65,0.282608695652174,43,0.18695652173913,87,-0.424390243902439,
2041348,2753.90625,3040,-1.8638871857756,-15248,-9.34886572654813,-4928,3.02145922746781,-43,10.4268292682927,-171,2.6219512195122,-31,1.89024390243902,-64,0.278260869565217,40,0.173913043478261,87,-0.424390243902439,
2041988,2773.4375,3232,-1.98160637645616,-15280,-9.36848559166156,-5104,3.12936848559166,7,10.2439024390244,-168,-0.426829268292683,-55,3.35365853658537,-66,0.28695652173913,41,0.178260869565217,89,-0.434146341463415,
2042628,2792.96875,3472,-2.12875536480687,-15520,-9.51563458001226,-5200,3.18822808093194,90,11.0975609756098,-182,-5.48780487804878,-68,4.14634146341463,-63,0.273913043478261,39,0.169565217391304,89,-0.434146341463415,
2043268,2812.5,3424,-2.09932556713673,-15680,-9.6137339055794,-5296,3.24708767627223,158,12.6829268292683,-208,-9.63414634146342,-70,4.26829268292683,-63,0.273913043478261,37,0.160869565217391,89,-0.434146341463415,
2043908,2832.03125,3168,-1.94236664622931,-15520,-9.51563458001226,-5376,3.29613733905579,155,14.5731707317073,-239,-9.45121951219512,-75,4.57317073170732,-63,0.273913043478261,39,0.169565217391304,90,-0.439024390243902,
2044548,2851.5625,2976,-1.82464745554874,-15392,-9.43715511955855,-5424,3.32556713672594,96,15.3048780487805,-251,-5.85365853658537,-80,4.87804878048781,-64,0.278260869565217,40,0.173913043478261,91,-0.44390243902439,
2045188,2871.09375,2992,-1.83445738810546,-15328,-9.3979153893317,-5424,3.32556713672594,55,16.4634146341463,-270,-3.35365853658537,-81,4.9390243902439,-63,0.273913043478261,41,0.178260869565217,90,-0.439024390243902,
2555997,18459.7473144531,-10754,6.59350091968118,-15105,-9.2611894543225,3168,-1.94236664622931,132,-938.475609756098,15391,-8.04878048780488,34,-2.07317073170732,8389,-36.4739130434783,-59,-0.256521739130435,8428,-41.1121951219512,
2490461,528459.747314453,-11778,7.22133660331085,-13569,-8.31943592887799,3152,-1.93255671367259,4,-985.304878048781,16159,-0.24390243902439,25,-1.52439024390244,8389,-36.4739130434783,-59,-0.256521739130435,28908,-141.014634146341,
2555998,530459.777832031,-9218,5.65174739423666,-14337,-8.79031269160025,3136,-1.92274678111588,132,-1016.5243902439,16671,-8.04878048780488,10,-0.609756097560976,16581,-72.0913043478261,-57,-0.247826086956522,-16148,78.7707317073171,
2228320,1032459.83886719,-4354,2.66952789699571,-16641,-10.202942979767,3088,-1.89331698344574,4,-1063.35365853659,17439,-0.24390243902439,14,-0.853658536585366,-3899,16.9521739130435,-57,-0.247826086956522,-24340,118.731707317073,
2424926,1038459.77783203,511,-0.313304721030043,-18689,-11.4586143470264,3120,-1.91293684855917,132,-1094.57317073171,17951,-8.04878048780488,37,-2.25609756097561,-3899,16.9521739130435,-55,-0.239130434782609,-12052,58.790243902439,
2490463,1040459.80834961,6655,-4.08031882280809,-20993,-12.8712446351931,3184,-1.95217657878602,4,-1141.40243902439,18719,-0.24390243902439,64,-3.90243902439024,-20283,88.1869565217391,-56,-0.243478260869565,20717,-101.058536585366,
2097250,1540459.89990234,12287,-7.53341508277131,-20993,-12.8712446351931,3056,-1.87369711833231,132,-1172.62195121951,19231,-8.04878048780488,82,-5,-7995,34.7608695652174,-55,-0.239130434782609,12525,-61.0975609756098,
2490464,1552459.83886719,16895,-10.3586756591048,-19969,-12.2434089515635,2928,-1.7952176578786,4,-1219.4512195122,19999,-0.24390243902439,91,-5.54878048780488,8390,-36.4782608695652,-56,-0.243478260869565,12525,-61.0975609756098,
2424928,2062459.83886719,23295,-14.2826486817903,-19201,-11.7725321888412,2864,-1.75597792765175,132,-1250.67073170732,20511,-8.04878048780488,102,-6.21951219512195,-28474,123.8,-53,-0.230434782608696,236,-1.15121951219512,
2228322,2568459.89990234,27135,-16.6370324954016,-19457,-11.9294911097486,2848,-1.74616799509503,4,-1297.5,21279,-0.24390243902439,109,-6.64634146341464,-7994,34.7565217391304,-56,-0.243478260869565,28907,-141.009756097561,
2293856,2570459.83886719,29439,-18.0496627835684,-20481,-12.5573267933783,2848,-1.74616799509503,132,-1328.71951219512,21791,-8.04878048780488,95,-5.79268292682927,24774,-107.713043478261,-55,-0.239130434782609,-7958,38.819512195122,
2031715,3074459.93041992,29695,-18.2066217044758,-19969,-12.2434089515635,2832,-1.73635806253832,4,-1375.54878048781,22559,-0.24390243902439,83,-5.0609756097561,-3899,16.9521739130435,-55,-0.239130434782609,-28438,138.721951219512,
2424929,3086459.86938477,31231,-19.1483752299203,-19713,-12.086450030656,2816,-1.72654812998161,132,-1406.76829268293,23071,-8.04878048780488,70,-4.26829268292683,-20283,88.1869565217391,-54,-0.234782608695652,-12054,58.8,
2228322,3592459.89990234,32511,-19.9331698344574,-16897,-10.3599019006744,2704,-1.65787860208461,4,-1453.59756097561,23839,-0.24390243902439,43,-2.6219512195122,4294,-18.6695652173913,-53,-0.230434782608696,-28438,138.721951219512,
2359395,3596459.93041992,-30209,18.5217657878602,-14337,-8.79031269160025,2688,-1.6480686695279,132,-1484.81707317073,24351,-8.04878048780488,17,-1.03658536585366,-32570,141.608695652174,-53,-0.230434782608696,4331,-21.1268292682927,
2424931,3598459.93041992,-26881,16.4812998160638,-11009,-6.7498467198038,2720,-1.66768853464132,4,-1531.64634146341,25119,-0.24390243902439,3,-0.182926829268293,28870,-125.521739130435,-52,-0.226086956521739,20715,-101.048780487805,
2031714,4098459.89990234,-23041,14.1269160024525,-9729,-5.96505211526671,2800,-1.71673819742489,132,-1562.86585365854,25631,-8.04878048780488,13,-0.792682926829268,-28474,123.8,-54,-0.234782608695652,-28437,138.717073170732,
2293859,4106459.93041992,-18177,11.1446965052115,-9217,-5.65113427345187,2816,-1.72654812998161,4,-1609.69512195122,26399,-0.24390243902439,27,-1.64634146341463,-32570,141.608695652174,-53,-0.230434782608696,-24341,118.736585365854,
2228322,4616459.89990234,-14337,8.79031269160025,-7681,-4.70938074800736,2720,-1.66768853464132,132,-1640.91463414634,26911,-8.04878048780488,32,-1.95121951219512,-20282,88.1826086956522,-53,-0.230434782608696,-24341,118.736585365854,
2162785,5126459.86938477,-9985,6.12201103617413,-5889,-3.61066830165543,2688,-1.6480686695279,4,-1687.74390243902,27679,-0.24390243902439,21,-1.28048780487805,-32570,141.608695652174,-54,-0.234782608695652,-20245,98.7560975609756,
2228323,5128459.93041992,-3585,2.19803801348866,-3841,-2.35499693439608,2640,-1.61863887185776,132,-1718.96341463415,28191,-8.04878048780488,11,-0.670731707317073,-28474,123.8,-55,-0.239130434782609,-7957,38.8146341463415,
2359394,5132459.89990234,1280,-0.784794604537094,-769,-0.471489883507051,2752,-1.68730839975475,4,-1765.79268292683,28959,-0.24390243902439,7,-0.426829268292683,-7994,34.7565217391304,-51,-0.221739130434783,-20245,98.7560975609756,
2359394,5132459.89990234,6400,-3.92397302268547,2048,1.25567136725935,2752,-1.68730839975475,132,-1797.01219512195,29471,-8.04878048780488,12,-0.731707317073171,-28474,123.8,-53,-0.230434782608696,-3861,18.8341463414634,
2293857,5642459.86938477,11008,-6.74923359901901,5376,3.29613733905579,2800,-1.71673819742489,4,-1843.84146341463,30239,-0.24390243902439,18,-1.09756097560976,-32570,141.608695652174,-54,-0.234782608695652,-16149,78.7756097560976,
2097251,6148459.93041992,15104,-9.26057633353771,7936,4.86572654812998,2720,-1.66768853464132,132,-1875.06097560976,30751,-8.04878048780488,20,-1.21951219512195,-24378,105.991304347826,-55,-0.239130434782609,-7957,38.8146341463415,
2228320,6152459.83886719,18176,-11.1440833844267,10240,6.27835683629675,2800,-1.71673819742489,4,-1921.89024390244,31519,-0.24390243902439,19,-1.15853658536585,-32570,141.608695652174,-53,-0.230434782608696,28907,-141.009756097561,
2162784,6662459.83886719,20736,-12.7136725935009,13568,8.31882280809319,2736,-1.67749846719804,132,-1953.10975609756,32031,-8.04878048780488,23,-1.40243902439024,8390,-36.4782608695652,-56,-0.243478260869565,20715,-101.048780487805,
2490463,6672459.80834961,22784,-13.9693439607603,16384,10.0453709380748,2752,-1.68730839975475,4,1996.15853658537,-32737,-0.24390243902439,17,-1.03658536585366,-7995,34.7608695652174,-55,-0.239130434782609,-7958,38.819512195122,
2097248,7172459.83886719,24064,-14.7541385652974,20992,12.8706315144083,2704,-1.65787860208461,132,1964.93902439024,-32225,-8.04878048780488,4,-0.24390243902439,-7995,34.7608695652174,-55,-0.239130434782609,-16150,78.780487804878,
2424927,7182459.80834961,24064,-14.7541385652974,23552,14.4402207234825,2832,-1.73635806253832,4,1918.10975609756,-31457,-0.24390243902439,2,-0.121951219512195,-20283,88.1869565217391,-54,-0.234782608695652,16618,-81.0634146341463,
2097247,7684459.80834961,23552,-14.4402207234825,25344,15.5389331698345,2816,-1.72654812998161,132,1886.89024390244,-30945,-8.04878048780488,7,-0.426829268292683,-24379,105.995652173913,-53,-0.230434782608696,12522,-61.0829268292683,
2097246,8196459.77783203,21504,-13.1845493562232,25600,15.6958920907419,2816,-1.72654812998161,4,1840.06097560976,-30177,-0.24390243902439,3,-0.182926829268293,16581,-72.0913043478261,-56,-0.243478260869565,-3863,18.8439024390244,
2293855,8202459.80834961,18944,-11.614960147149,24832,15.2250153280196,2784,-1.70692826486818,132,1808.84146341463,-29665,-8.04878048780488,-7,0.426829268292683,8389,-36.4739130434783,-56,-0.243478260869565,-12055,58.8048780487805,
2490462,8208459.77783203,16128,-9.88841201716738,24320,14.9110974862048,2912,-1.78540772532189,4,1762.01219512195,-28897,-0.24390243902439,-7,0.426829268292683,4293,-18.6652173913043,-55,-0.239130434782609,4330,-21.1219512195122,
2162781,8710459.74731445,14080,-8.63274064990803,23552,14.4402207234825,2848,-1.74616799509503,132,1730.79268292683,-28385,-8.04878048780488,6,-0.365853658536585,-12092,52.5739130434783,-56,-0.243478260869565,-32535,158.707317073171,
2293854,8714459.77783203,10752,-6.59227467811159,22272,13.6554261189454,2720,-1.66768853464132,4,1683.96341463415,-27617,-0.24390243902439,0,0,-12092,52.5739130434783,-55,-0.239130434782609,-28439,138.726829268293,
2555996,8722459.71679688,7936,-4.86572654812998,20480,12.5567136725935,2736,-1.67749846719804,132,1652.74390243902,-27105,-8.04878048780488,-17,1.03658536585366,-7996,34.7652173913043,-56,-0.243478260869565,-3863,18.8439024390244,
2490459,9232459.6862793,5888,-3.61005518087063,19712,12.0858369098712,2768,-1.69711833231147,4,1605.91463414634,-26337,-0.24390243902439,-32,1.95121951219512,-12092,52.5739130434783,-56,-0.243478260869565,-16151,78.7853658536585,
2490460,9232459.71679688,2560,-1.56958920907419,18688,11.4580012262416,2848,-1.74616799509503,132,1574.69512195122,-25825,-8.04878048780488,-50,3.04878048780488,-20284,88.1913043478261,-56,-0.243478260869565,-16151,78.7853658536585,
2359389,9740459.74731445,0,0,15360,9.41753525444513,2816,-1.72654812998161,4,1527.86585365854,-25057,-0.24390243902439,-57,3.47560975609756,16580,-72.0869565217391,-56,-0.243478260869565,-7959,38.8243902439024,
2424923,9742459.6862793,-3073,1.88412017167382,12800,7.84794604537094,2880,-1.76578786020846,132,1496.64634146341,-24545,-8.04878048780488,-55,3.35365853658537,28868,-125.513043478261,-56,-0.243478260869565,4330,-21.1219512195122,
2359388,10252459.7167969,-6401,3.92458614347026,10752,6.59227467811159,2912,-1.78540772532189,4,1449.81707317073,-23777,-0.24390243902439,-37,2.25609756097561,-32572,141.617391304348,-57,-0.247826086956522,234,-1.14146341463415,
2293853,10762459.7473145,-9473,5.80809319435929,7680,4.70876762722256,2784,-1.70692826486818,132,1418.59756097561,-23265,-8.04878048780488,-35,2.13414634146341,-7996,34.7652173913043,-57,-0.247826086956522,20714,-101.043902439024,
2359388,10764459.7167969,-11009,6.7498467198038,3328,2.04046597179644,2752,-1.68730839975475,4,1371.76829268293,-22497,-0.24390243902439,-65,3.96341463414634,-3900,16.9565217391304,-56,-0.243478260869565,20714,-101.043902439024,
2293852,11274459.7167969,-12801,7.84855916615573,1024,0.627835683629675,2832,-1.73635806253832,132,1340.54878048781,-21985,-8.04878048780488,-103,6.28048780487805,8389,-36.4739130434783,-56,-0.243478260869565,-16150,78.780487804878,
2228316,11784459.7167969,-14337,8.79031269160025,512,0.313917841814838,2944,-1.80502759043532,4,1293.71951219512,-21217,-0.24390243902439,-95,5.79268292682927,-3900,16.9565217391304,-57,-0.247826086956522,235,-1.14634146341463,
2293853,11786459.7473145,-15617,9.57510729613734,1280,0.784794604537094,2880,-1.76578786020846,132,1262.5,-20705,-8.04878048780488,-71,4.32926829268293,12485,-54.2826086956522,-59,-0.256521739130435,20715,-101.048780487805,
2555996,11794459.7167969,-15617,9.57510729613734,2304,1.41263028816677,2864,-1.75597792765175,4,1215.67073170732,-19937,-0.24390243902439,-48,2.92682926829268,16581,-72.0913043478261,-55,-0.239130434782609,-16149,78.7756097560976,
2162779,12294459.6862793,-14337,8.79031269160025,1280,0.784794604537094,2864,-1.75597792765175,132,1184.4512195122,-19425,-8.04878048780488,-41,2.5,16581,-72.0913043478261,-57,-0.247826086956522,-12053,58.7951219512195,
2555997,12306459.7473145,-14081,8.63335377069283,-1,-0.000613120784794605,2768,-1.69711833231147,4,1137.62195121951,-18657,-0.24390243902439,-44,2.68292682926829,24773,-107.708695652174,-59,-0.256521739130435,8428,-41.1121951219512,
2490460,12816459.7167969,-11521,7.06376456161864,-2561,-1.57020232985898,2848,-1.74616799509503,132,1106.40243902439,-18145,-8.04878048780488,-45,2.74390243902439,12485,-54.2826086956522,-58,-0.252173913043478,-3861,18.8341463414634,
2752602,12824459.6557617,-11265,6.90680564071122,-3329,-2.04107909258124,2816,-1.72654812998161,4,1059.57317073171,-17377,-0.24390243902439,-46,2.80487804878049,12485,-54.2826086956522,-56,-0.243478260869565,20716,-101.053658536585,
2228317,13320459.7473145,-10497,6.43592887798896,-4609,-2.82587369711833,2832,-1.73635806253832,132,1028.35365853659,-16865,-8.04878048780488,-43,2.6219512195122,8389,-36.4739130434783,-58,-0.252173913043478,20716,-101.053658536585,
2359387,13324459.6862793,-9473,5.80809319435929,-3841,-2.35499693439608,2800,-1.71673819742489,4,981.524390243903,-16097,-0.24390243902439,-37,2.25609756097561,16581,-72.0913043478261,-57,-0.247826086956522,16620,-81.0731707317073,
2424923,13326459.6862793,-8705,5.33721643163703,-3841,-2.35499693439608,2752,-1.68730839975475,132,950.304878048781,-15585,-8.04878048780488,-26,1.58536585365854,197,-0.856521739130435,-57,-0.247826086956522,236,-1.15121951219512,
2293853,13834459.7473145,-8193,5.0232985898222,-3329,-2.04107909258124,2752,-1.68730839975475,4,903.475609756098,-14817,-0.24390243902439,-24,1.46341463414634,12485,-54.2826086956522,-58,-0.252173913043478,-3861,18.8341463414634,
2621532,13844459.7167969,-6401,3.92458614347026,-4097,-2.51195585530349,2752,-1.68730839975475,132,872.256097560976,-14305,-8.04878048780488,-27,1.64634146341463,20677,-89.9,-59,-0.256521739130435,12524,-61.0926829268293,
2555995,14354459.6862793,-6657,4.08154506437768,-5121,-3.13979153893317,2720,-1.66768853464132,4,825.426829268293,-13537,-0.24390243902439,-28,1.70731707317073,4293,-18.6652173913043,-56,-0.243478260869565,236,-1.15121951219512,
2490458,14864459.6557617,-5377,3.29675045984059,-5121,-3.13979153893317,2768,-1.69711833231147,132,794.207317073171,-13025,-8.04878048780488,-20,1.21951219512195,-3900,16.9565217391304,-60,-0.260869565217391,236,-1.15121951219512,
2555994,14866459.6557617,-5377,3.29675045984059,-4609,-2.82587369711833,2816,-1.72654812998161,4,747.378048780488,-12257,-0.24390243902439,-12,0.731707317073171,-7996,34.7652173913043,-59,-0.256521739130435,-12053,58.7951219512195,
2293852,15370459.7167969,-5121,3.13979153893317,-3329,-2.04107909258124,2752,-1.68730839975475,132,716.158536585366,-11745,-8.04878048780488,-7,0.426829268292683,-20284,88.1913043478261,-62,-0.269565217391304,28907,-141.009756097561,
2621529,15380459.6252441,-5121,3.13979153893317,-2561,-1.57020232985898,2784,-1.70692826486818,4,669.329268292683,-10977,-0.24390243902439,-2,0.121951219512195,197,-0.856521739130435,-58,-0.252173913043478,-16149,78.7756097560976,
2293851,15882459.6862793,-4865,2.98283261802575,-1537,-0.942366646229307,2768,-1.69711833231147,132,638.109756097561,-10465,-8.04878048780488,9,-0.548780487804878,-12092,52.5739130434783,-59,-0.256521739130435,-32533,158.69756097561,
2424923,15886459.6862793,-4865,2.98283261802575,-2049,-1.25628448804414,2752,-1.68730839975475,4,591.280487804878,-9697,-0.24390243902439,15,-0.914634146341463,8389,-36.4739130434783,-60,-0.260869565217391,24811,-121.029268292683,
2621530,15892459.6557617,-5633,3.45370938074801,-1537,-0.942366646229307,2720,-1.66768853464132,132,560.060975609756,-9185,-8.04878048780488,16,-0.975609756097561,-16188,70.3826086956522,-61,-0.265217391304348,-24341,118.736585365854,
2687065,15894459.6252441,-5633,3.45370938074801,-1281,-0.785407725321888,2672,-1.63825873697118,4,513.231707317073,-8417,-0.24390243902439,14,-0.853658536585366,-16188,70.3826086956522,-61,-0.265217391304348,-24341,118.736585365854,
2555995,16402459.6862793,-7169,4.39546290619252,-1025,-0.62844880441447,2736,-1.67749846719804,132,482.012195121951,-7905,-8.04878048780488,5,-0.304878048780488,-24380,106,-59,-0.256521739130435,-32533,158.69756097561,
2490457,16912459.6252441,-7937,4.86633966891478,0,0,2752,-1.68730839975475,4,435.182926829268,-7137,-0.24390243902439,9,-0.548780487804878,-24380,106,-62,-0.269565217391304,28907,-141.009756097561,
2490458,16912459.6557617,-9473,5.80809319435929,512,0.313917841814838,2704,-1.65787860208461,132,403.963414634146,-6625,-8.04878048780488,20,-1.21951219512195,-32572,141.617391304348,-61,-0.265217391304348,28907,-141.009756097561,
2359386,17420459.6557617,-11009,6.7498467198038,1024,0.627835683629675,2720,-1.66768853464132,4,357.134146341463,-5857,-0.24390243902439,20,-1.21951219512195,28868,-125.513043478261,-58,-0.252173913043478,-16149,78.7756097560976,
2687064,17430459.5947266,-11009,6.7498467198038,1024,0.627835683629675,2720,-1.66768853464132,132,325.914634146341,-5345,-8.04878048780488,21,-1.28048780487805,-28476,123.808695652174,-61,-0.265217391304348,-32533,158.69756097561,
2490456,17936459.5947266,-12289,7.5346413243409,1792,1.09871244635193,2736,-1.67749846719804,4,279.085365853659,-4577,-0.24390243902439,15,-0.914634146341463,-20284,88.1913043478261,-58,-0.252173913043478,-7957,38.8146341463415,
2490458,17936459.6557617,-13313,8.16247700797057,1280,0.784794604537094,2768,-1.69711833231147,132,247.865853658537,-4065,-8.04878048780488,17,-1.03658536585366,-20284,88.1913043478261,-60,-0.260869565217391,-3861,18.8341463414634,
2424924,18446459.7167969,-13313,8.16247700797057,1792,1.09871244635193,2784,-1.70692826486818,4,201.036585365854,-3297,-0.24390243902439,21,-1.28048780487805,-12092,52.5739130434783,-60,-0.260869565217391,16620,-81.0731707317073,
2359387,18956459.6862793,-12801,7.84855916615573,256,0.156958920907419,2672,-1.63825873697118,132,169.817073170732,-2785,-8.04878048780488,22,-1.34146341463415,197,-0.856521739130435,-59,-0.256521739130435,16620,-81.0731707317073,
2424923,18958459.6862793,-13825,8.47639484978541,0,0,2672,-1.63825873697118,4,122.987804878049,-2017,-0.24390243902439,19,-1.15853658536585,-3900,16.9565217391304,-58,-0.252173913043478,16620,-81.0731707317073,
2424923,18958459.6862793,-13569,8.31943592887799,-1,-0.000613120784794605,2704,-1.65787860208461,132,91.7682926829268,-1505,-8.04878048780488,16,-0.975609756097561,-12092,52.5739130434783,-59,-0.256521739130435,20716,-101.053658536585,
2424921,19470459.6252441,-12545,7.69160024524831,768,0.470876762722256,2720,-1.66768853464132,4,44.9390243902439,-737,-0.24390243902439,8,-0.487804878048781,-20284,88.1913043478261,-58,-0.252173913043478,4332,-21.1317073170732,
2621530,19476459.6557617,-11777,7.22072348252606,1536,0.941753525444513,2784,-1.70692826486818,132,13.719512195122,-225,-8.04878048780488,8,-0.487804878048781,-28476,123.808695652174,-58,-0.252173913043478,12524,-61.0926829268293,
2555994,19986459.6557617,-10753,6.59288779889638,2048,1.25567136725935,2784,-1.70692826486818,4,-33.1707317073171,544,-0.24390243902439,18,-1.09756097560976,-16188,70.3826086956522,-58,-0.252173913043478,20716,-101.053658536585,
2293851,20490459.6862793,-9985,6.12201103617413,1792,1.09871244635193,2800,-1.71673819742489,132,-64.390243902439,1056,-8.04878048780488,24,-1.46341463414634,-24380,106,-59,-0.256521739130435,4332,-21.1317073170732,
2490460,20496459.7167969,-10241,6.27896995708154,-1,-0.000613120784794605,2752,-1.68730839975475,4,-111.219512195122,1824,-0.24390243902439,31,-1.89024390243902,-28476,123.808695652174,-59,-0.256521739130435,16620,-81.0731707317073,
2424923,21006459.6862793,-9985,6.12201103617413,0,0,2640,-1.61863887185776,132,-142.439024390244,2336,-8.04878048780488,26,-1.58536585365854,-12092,52.5739130434783,-58,-0.252173913043478,-12053,58.7951219512195,
2293852,21514459.7167969,-11009,6.7498467198038,-1025,-0.62844880441447,2688,-1.6480686695279,4,-189.268292682927,3104,-0.24390243902439,23,-1.40243902439024,-12092,52.5739130434783,-60,-0.260869565217391,-20245,98.7560975609756,
2752601,21528459.6252441,-12545,7.69160024524831,-1025,-0.62844880441447,2624,-1.60882893930104,132,-220.487804878049,3616,-8.04878048780488,18,-1.09756097560976,-32572,141.617391304348,-59,-0.256521739130435,-20245,98.7560975609756,
2490459,22032459.6862793,-13057,8.00551808706315,-1025,-0.62844880441447,2656,-1.62844880441447,4,-267.317073170732,4384,-0.24390243902439,19,-1.15853658536585,-20284,88.1913043478261,-60,-0.260869565217391,-28437,138.717073170732,
2555994,22034459.6557617,-14849,9.10423053341508,-1281,-0.785407725321888,2560,-1.56958920907419,132,-298.536585365854,4896,-8.04878048780488,13,-0.792682926829268,-7996,34.7652173913043,-57,-0.247826086956522,-12053,58.7951219512195,
2228316,22536459.7167969,-15873,9.73206621704476,-1,-0.000613120784794605,2608,-1.59901900674433,4,-345.365853658537,5664,-0.24390243902439,8,-0.487804878048781,20677,-89.9,-58,-0.252173913043478,-20245,98.7560975609756,
2293851,22538459.6862793,-16129,9.88902513795218,-1281,-0.785407725321888,2560,-1.56958920907419,132,-376.585365853659,6176,-8.04878048780488,-1,0.0609756097560976,-32571,141.613043478261,-59,-0.256521739130435,28908,-141.014634146341,
2490458,22544459.6557617,-15873,9.73206621704476,-769,-0.471489883507051,2560,-1.56958920907419,4,-423.414634146341,6944,-0.24390243902439,-8,0.487804878048781,12485,-54.2826086956522,-57,-0.247826086956522,8428,-41.1121951219512,
2424924,23054459.7167969,-15617,9.57510729613734,-257,-0.157572041692213,2608,-1.59901900674433,132,-454.634146341463,7456,-8.04878048780488,-4,0.24390243902439,4293,-18.6652173913043,-60,-0.260869565217391,20716,-101.053658536585,
2359387,23564459.6862793,-15105,9.2611894543225,-257,-0.157572041692213,2624,-1.60882893930104,4,-501.463414634146,8224,-0.24390243902439,2,-0.121951219512195,-12092,52.5739130434783,-60,-0.260869565217391,12524,-61.0926829268293,
2490459,23568459.6862793,-13569,8.31943592887799,768,0.470876762722256,2624,-1.60882893930104,132,-532.682926829268,8736,-8.04878048780488,6,-0.365853658536585,-20284,88.1913043478261,-57,-0.247826086956522,-32532,158.692682926829,
2293851,24074459.6862793,-12801,7.84855916615573,256,0.156958920907419,2592,-1.58920907418761,4,-579.512195121951,9504,-0.24390243902439,5,-0.304878048780488,197,-0.856521739130435,-59,-0.256521739130435,12524,-61.0926829268293,
2621530,24084459.6557617,-12289,7.5346413243409,-513,-0.314530962599632,2608,-1.59901900674433,132,-610.731707317073,10016,-8.04878048780488,2,-0.121951219512195,-7996,34.7652173913043,-59,-0.256521739130435,4332,-21.1317073170732,
2359388,24588459.7167969,-11009,6.7498467198038,-1281,-0.785407725321888,2624,-1.60882893930104,4,-657.560975609756,10784,-0.24390243902439,-2,0.121951219512195,-3900,16.9565217391304,-59,-0.256521739130435,-3861,18.8341463414634,
2555995,24594459.6862793,-11009,6.7498467198038,-1281,-0.785407725321888,2624,-1.60882893930104,132,-688.780487804878,11296,-8.04878048780488,-3,0.182926829268293,12485,-54.2826086956522,-57,-0.247826086956522,-3861,18.8341463414634,
2228315,25096459.6862793,-10497,6.43592887798896,-769,-0.471489883507051,2608,-1.59901900674433,4,-735.609756097561,12064,-0.24390243902439,-1,0.0609756097560976,8389,-36.4739130434783,-58,-0.252173913043478,4332,-21.1317073170732,
2228316,25096459.7167969,-9473,5.80809319435929,512,0.313917841814838,2688,-1.6480686695279,132,-766.829268292683,12576,-8.04878048780488,3,-0.182926829268293,4293,-18.6652173913043,-58,-0.252173913043478,-3861,18.8341463414634,
2424924,25102459.7167969,-9217,5.65113427345187,512,0.313917841814838,2640,-1.61863887185776,4,-813.658536585366,13344,-0.24390243902439,10,-0.609756097560976,20677,-89.9,-58,-0.252173913043478,236,-1.15121951219512,
2424924,25102459.7167969,-8705,5.33721643163703,-1,-0.000613120784794605,2640,-1.61863887185776,132,-844.878048780488,13856,-8.04878048780488,2,-0.121951219512195,-16188,70.3826086956522,-57,-0.247826086956522,-12053,58.7951219512195,
2228317,25608459.7473145,-9217,5.65113427345187,-769,-0.471489883507051,2640,-1.61863887185776,4,-891.707317073171,14624,-0.24390243902439,1,-0.0609756097560976,-28476,123.808695652174,-56,-0.243478260869565,4332,-21.1317073170732,
2293852,25610459.7167969,-10497,6.43592887798896,-1793,-1.09932556713673,2672,-1.63825873697118,132,-922.926829268293,15136,-8.04878048780488,1,-0.0609756097560976,-16188,70.3826086956522,-58,-0.252173913043478,8428,-41.1121951219512,
2490458,25616459.6557617,-10241,6.27896995708154,-2817,-1.7271612507664,2672,-1.63825873697118,4,-969.756097560976,15904,-0.24390243902439,10,-0.609756097560976,-12092,52.5739130434783,-57,-0.247826086956522,-12053,58.7951219512195,
2228317,26120459.7473145,-9985,6.12201103617413,-2561,-1.57020232985898,2672,-1.63825873697118,132,-1000.9756097561,16416,-8.04878048780488,6,-0.365853658536585,-3900,16.9565217391304,-60,-0.260869565217391,-20245,98.7560975609756,
2359387,26124459.6862793,-10241,6.27896995708154,-3585,-2.19803801348866,2720,-1.66768853464132,4,-1047.80487804878,17184,-0.24390243902439,3,-0.182926829268293,-12092,52.5739130434783,-57,-0.247826086956522,-3861,18.8341463414634,
2490458,26128459.6557617,-10753,6.59288779889638,-5121,-3.13979153893317,2720,-1.66768853464132,132,-1079.0243902439,17696,-8.04878048780488,3,-0.182926829268293,-24380,106,-60,-0.260869565217391,28907,-141.009756097561,
2555994,26130459.6557617,-11521,7.06376456161864,-8449,-5.18025751072961,2784,-1.70692826486818,4,-1125.85365853659,18464,-0.24390243902439,-8,0.487804878048781,-32572,141.617391304348,-59,-0.256521739130435,24811,-121.029268292683,
2228316,26632459.7167969,-12801,7.84855916615573,-11265,-6.90680564071122,2816,-1.72654812998161,132,-1157.07317073171,18976,-8.04878048780488,-9,0.548780487804878,-24380,106,-58,-0.252173913043478,-16150,78.780487804878,
2162781,27142459.7473145,-14593,8.94727161250766,-13825,-8.47639484978541,2944,-1.80502759043532,4,-1203.90243902439,19744,-0.24390243902439,18,-1.09756097560976,-7996,34.7652173913043,-58,-0.252173913043478,-20246,98.7609756097561,
2293851,27146459.6862793,-16897,10.3599019006744,-13057,-8.00551808706315,3088,-1.89331698344574,132,-1235.12195121951,20256,-8.04878048780488,64,-3.90243902439024,12485,-54.2826086956522,-58,-0.252173913043478,-24342,118.741463414634,
2228315,27656459.6862793,-19201,11.7725321888412,-15617,-9.57510729613734,3104,-1.90312691600245,4,-1281.9512195122,21024,-0.24390243902439,93,-5.67073170731707,-3900,16.9565217391304,-58,-0.252173913043478,-28439,138.726829268293,
2424924,27662459.7167969,-20481,12.5573267933783,-25601,-15.6965052115267,3088,-1.89331698344574,132,-1313.17073170732,21536,-8.04878048780488,84,-5.1219512195122,-12092,52.5739130434783,-58,-0.252173913043478,12519,-61.0682926829268,
2555996,27666459.7167969,-29441,18.050889025138,16383,10.04475781729,3248,-1.99141630901288,4,-1360,22304,-0.24390243902439,57,-3.47560975609756,-7997,34.7695652173913,-57,-0.247826086956522,20706,-101.00487804878,
2228316,28168459.7167969,3839,-2.35377069282649,-15618,-9.57572041692213,3664,-2.24647455548743,132,-1391.21951219512,22816,-8.04878048780488,59,-3.59756097560976,-12094,52.5826086956522,-57,-0.247826086956522,8410,-41.0243902439024,
2293853,28170459.7473145,17918,-10.9858982219497,16894,10.35806253832,4688,-2.87431023911711,4,-1438.04878048781,23584,-0.24390243902439,181,-11.0365853658537,8386,-36.4608695652174,-57,-0.247826086956522,20689,-100.921951219512,
2490463,28176459.8083496,16381,-10.0435315757204,-10755,-6.59411404046597,5920,-3.62967504598406,132,-1469.26829268293,24096,-8.04878048780488,468,-28.5365853658537,24769,-107.691304347826,-56,-0.243478260869565,28870,-140.829268292683,
2293855,28682459.8083496,-4101,2.51440833844267,-26627,-16.3255671367259,6160,-3.77682403433476,4,-1516.09756097561,24864,-0.24390243902439,643,-39.2073170731707,192,-0.834782608695652,-56,-0.243478260869565,-20291,98.9804878048781,
2621534,28692459.777832,27898,-17.1048436541999,-29187,-17.8951563458001,5632,-3.45309625996321,132,-1547.31707317073,25376,-8.04878048780488,632,-38.5365853658537,28861,-125.482608695652,-53,-0.230434782608696,16568,-80.8195121951219,
2031718,29186460.0219727,1529,-0.93746167995095,-23555,-14.4420600858369,5072,-3.10974862047823,4,-1594.14634146341,26144,-0.24390243902439,441,-26.890243902439,28860,-125.478260869565,-50,-0.217391304347826,16567,-80.8146341463415,
2228328,29192460.0830078,-6409,3.92949110974862,-20995,-12.8724708767627,5088,-3.11955855303495,132,-1625.36585365854,26656,-8.04878048780488,187,-11.4024390243902,8379,-36.4304347826087,-48,-0.208695652173913,4281,-20.8829268292683,
2228334,29192460.2661133,-2314,1.41876149601471,-23043,-14.1281422440221,5808,-3.56100551808706,4,-1672.19512195122,27424,-0.24390243902439,68,-4.14634146341463,16570,-72.0434782608696,-45,-0.195652173913043,20668,-100.819512195122,
1966196,29696460.4492188,10998,-6.74310239117106,-29699,-18.209074187615,6432,-3.9435928877989,132,-1703.41463414634,27936,-8.04878048780488,90,-5.48780487804878,-12104,52.6260869565217,-47,-0.204347826086957,28864,-140.8,
1769596,30202460.6933594,-24587,15.0748007357449,27389,16.7927651747394,6432,-3.9435928877989,4,-1750.24390243902,28704,-0.24390243902439,166,-10.1219512195122,20664,-89.8434782608696,-45,-0.195652173913043,28869,-140.824390243902,
1835134,30204460.7543945,22261,-13.6486817903127,25085,15.3801348865727,6432,-3.9435928877989,132,-1781.46341463415,29216,-8.04878048780488,261,-15.9146341463415,185,-0.804347826086957,-48,-0.208695652173913,8394,-40.9463414634146,
1835140,30204460.9375,14069,-8.62599632127529,25597,15.6940527283875,6000,-3.67872470876763,4,-1828.29268292683,29984,-0.24390243902439,297,-18.109756097561,4282,-18.6173913043478,-46,-0.2,24782,-120.887804878049,
1376391,30702461.0290527,23285,-14.2765174739424,23805,14.5953402820356,5600,-3.43347639484979,132,-1859.51219512195,30496,-8.04878048780488,287,-17.5,-32579,141.647826086957,-47,-0.204347826086957,-24367,118.863414634146,
1245325,31210461.2121582,-22795,13.976088289393,24573,15.0662170447578,5536,-3.39423666462293,4,-1906.34146341463,31264,-0.24390243902439,367,-22.3780487804878,24769,-107.691304347826,-44,-0.191304347826087,12500,-60.9756097560976,
852111,31710461.2731934,-11,0.00674432863274065,31741,19.4610668301655,5488,-3.36480686695279,132,-1937.56097560976,31776,-8.04878048780488,523,-31.890243902439,24773,-107.708695652174,-46,-0.2,-32556,158.809756097561,
589972,32214461.4257813,25078,-15.3758430410791,-17155,-10.5180870631514,5584,-3.42366646229307,4,-1984.39024390244,32544,-0.24390243902439,771,-47.0121951219512,4297,-18.6826086956522,-46,-0.2,24788,-120.917073170732,
655512,32216461.5478516,-22538,13.8185162477008,10238,6.27713059472716,5184,-3.17841814837523,132,1980.48780487805,-32480,-8.04878048780488,1057,-64.4512195121951,28876,-125.547826086957,-42,-0.182608695652174,212,-1.03414634146341,
327834,32718461.6088867,-266,0.163090128755365,-27138,-16.638871857756,4416,-2.70754138565297,4,1933.65853658537,-31712,-0.24390243902439,1182,-72.0731707317073,-7984,34.7130434782609,-41,-0.178260869565217,-32556,158.809756097561,
16711577,33218453.7658691,-25097,15.3874923359902,7935,4.86511342734519,3504,-2.14837522992029,132,1902.43902439024,-31200,-8.04878048780488,1190,-72.5609756097561,-32555,141.54347826087,-38,-0.165217391304348,16596,-80.9560975609756,
16777113,33220453.7658691,1272,-0.779889638258737,-19969,-12.2434089515635,2944,-1.80502759043532,4,1855.60975609756,-30432,-0.24390243902439,1092,-66.5853658536585,-12072,52.4869565217391,-36,-0.156521739130435,-7982,38.9365853658537,
16318365,33718453.8879395,32760,-20.0858369098712,-1281,-0.785407725321888,2848,-1.74616799509503,132,1824.39024390244,-29920,-8.04878048780488,1068,-65.1219512195122,16603,-72.1869565217391,-34,-0.147826086956522,-3887,18.9609756097561,
16187291,34226453.8269043,-15880,9.73635806253832,26880,16.480686695279,2736,-1.67749846719804,4,1777.56097560976,-29152,-0.24390243902439,1073,-65.4268292682927,16606,-72.2,-29,-0.126086956521739,20689,-100.921951219512,
15794077,34726453.8879395,9721,-5.96014714898835,-22016,-13.498467198038,2624,-1.60882893930104,132,1746.34146341463,-28640,-8.04878048780488,1084,-66.0975609756098,8418,-36.6,-27,-0.117391304347826,12497,-60.9609756097561,
15794075,35238453.8269043,23545,-14.435928877989,-6144,-3.76701410177805,2384,-1.46167995095034,4,1699.51219512195,-27872,-0.24390243902439,1127,-68.719512195122,-24347,105.85652173913,-25,-0.108695652173913,24785,-120.90243902439,
15466395,35740453.8269043,-17415,10.677498467198,-512,-0.313917841814838,2080,-1.27529123237278,132,1668.29268292683,-27360,-8.04878048780488,1110,-67.6829268292683,231,-1.00434782608696,-24,-0.104347826086957,-24367,118.863414634146,
15204249,36244453.7658691,2810,-1.72286940527284,-13056,-8.00490496627836,1728,-1.05947271612508,4,1621.46341463415,-26592,-0.24390243902439,1011,-61.6463414634146,4328,-18.8173913043478,-22,-0.0956521739130435,-28463,138.843902439024,
14942107,36748453.8269043,12026,-7.37339055793991,-19200,-11.7719190680564,1600,-0.980993255671367,132,1590.24390243902,-26080,-8.04878048780488,913,-55.6707317073171,-12053,52.404347826087,-18,-0.0782608695652174,-12081,58.9317073170732,
14614427,37250453.8269043,23546,-14.4365419987738,26880,16.480686695279,1776,-1.08890251379522,4,1543.41463414634,-25312,-0.24390243902439,895,-54.5731707317073,24813,-107.882608695652,-18,-0.0782608695652174,24783,-120.892682926829,
14811031,37256453.704834,28410,-17.4187614960147,8704,5.33660331085224,1776,-1.08890251379522,132,1512.19512195122,-24800,-8.04878048780488,948,-57.8048780487805,-3856,16.7652173913043,-18,-0.0782608695652174,24783,-120.892682926829,
14548885,37760453.6437988,-24326,14.9147762109135,-3841,-2.35499693439608,1584,-0.971183323114654,4,1465.36585365854,-24032,-0.24390243902439,1007,-61.4024390243902,-16141,70.1782608695652,-13,-0.0565217391304348,24784,-120.89756097561,
14155671,38260453.704834,-13830,8.47946045370938,-21761,-13.3421213979154,944,-0.578786020846107,132,1434.14634146341,-23520,-8.04878048780488,1000,-60.9756097560976,-24330,105.782608695652,-9,-0.0391304347826087,-28464,138.848780487805,
13959060,38766453.6132813,-2566,1.57326793378296,29439,18.0496627835684,416,-0.255058246474555,4,1387.31707317073,-22752,-0.24390243902439,892,-54.390243902439,-28423,123.578260869565,-9,-0.0391304347826087,16593,-80.9414634146341,
13827987,39274453.5827637,18171,-11.1410177805028,13311,8.16125076640098,-128,0.0784794604537094,132,1356.09756097561,-22240,-8.04878048780488,743,-45.3048780487805,12541,-54.5260869565217,-6,-0.0260869565217391,210,-1.02439024390244,
13631377,39780453.5217285,-22021,13.501532801962,767,0.470263641937462,-288,0.176578786020846,4,1309.26829268293,-21472,-0.24390243902439,633,-38.5975609756098,-12033,52.3173913043478,-6,-0.0260869565217391,-32558,158.819512195122,
13959057,39790453.5217285,-3077,1.886572654813,-5122,-3.14040465971796,-496,0.304107909258124,132,1278.04878048781,-20960,-8.04878048780488,616,-37.5609756097561,28672,-124.660869565217,-4,-0.0173913043478261,24788,-120.917073170732,
13696911,40294453.4606934,13564,-8.31637032495401,-8962,-5.49478847332925,-1376,0.843654199877376,4,1231.21951219512,-20192,-0.24390243902439,534,-32.5609756097561,16386,-71.2434782608696,-5,-0.0217391304347826,-3881,18.9317073170732,
13696911,40294453.4606934,-19460,11.931330472103,-8194,-5.02391171060699,-2272,1.39301042305334,132,1200,-19680,-8.04878048780488,313,-19.0853658536585,28676,-124.678260869565,-1,-0.00434782608695652,4315,-21.0487804878049,
13303694,40794453.4301758,26877,-16.4788473329246,-1794,-1.09993868792152,-2480,1.52053954629062,4,1153.17073170732,-18912,-0.24390243902439,107,-6.52439024390244,-24569,106.821739130435,-3,-0.0130434782608696,-24356,118.809756097561,
13500300,40800453.3691406,15102,-9.25935009196812,13567,8.3182096873084,-1952,1.19681177191907,132,1121.9512195122,-18400,-8.04878048780488,133,-8.10975609756098,-20471,89.004347826087,-1,-0.00434782608695652,220,-1.07317073170732,
13500299,41312453.338623,-2050,1.25689760882894,-29185,-17.8939301042305,-1840,1.12814224402207,4,1075.12195121951,-17632,-0.24390243902439,371,-22.6219512195122,-4087,17.7695652173913,1,0.00434782608695652,-20262,98.8390243902439,
13565836,41314453.3691406,32511,-19.9331698344574,-7169,-4.39546290619252,-2528,1.54996934396076,132,1043.90243902439,-17120,-8.04878048780488,596,-36.3414634146341,12298,-53.4695652173913,3,0.0130434782608696,-7976,38.9073170731707,
13303691,41818453.338623,-257,0.157572041692213,8704,5.33660331085224,-3216,1.97179644389945,4,997.073170731707,-16352,-0.24390243902439,679,-41.4024390243902,12298,-53.4695652173913,3,0.0130434782608696,-7978,38.9170731707317,
13434761,41822453.2775879,27904,-17.1085223789086,17920,10.9871244635193,-3712,2.27590435315757,132,965.853658536586,-15840,-8.04878048780488,660,-40.2439024390244,-12279,53.3869565217391,1,0.00434782608695652,12499,-60.9707317073171,
13827975,41834453.2165527,-22272,13.6554261189454,17408,10.6732066217045,-4336,2.6584917228694,4,919.024390243903,-15072,-0.24390243902439,590,-35.9756097560976,-20471,89.004347826087,2,0.00869565217391304,-16178,78.9170731707317,
13369223,42332453.2165527,-17408,10.6732066217045,14336,8.78969957081545,-4784,2.93316983445739,132,887.804878048781,-14560,-8.04878048780488,435,-26.5243902439024,24585,-106.891304347826,2,0.00869565217391304,-16182,78.9365853658537,
13696901,42342453.1555176,-15616,9.57449417535254,10496,6.43531575720417,-4784,2.93316983445739,4,840.975609756098,-13792,-0.24390243902439,256,-15.609756097561,-28663,124.621739130435,2,0.00869565217391304,8392,-40.9365853658537,
13762437,42344453.1555176,-12800,7.84794604537094,8704,5.33660331085224,-4672,2.86450030656039,132,809.756097560976,-13280,-8.04878048780488,143,-8.71951219512195,9,-0.0391304347826087,5,0.0217391304347826,-20283,98.9414634146341,
13565829,42850453.1555176,-13312,8.16186388718578,8448,5.17964438994482,-4672,2.86450030656039,4,762.926829268293,-12512,-0.24390243902439,76,-4.63414634146342,8201,-35.6565217391304,4,0.0173913043478261,24771,-120.834146341463,
13631364,42852453.125,-13056,8.00490496627836,7168,4.39484978540773,-4384,2.68792152053955,132,731.707317073171,-12000,-8.04878048780488,39,-2.37804878048781,-24568,106.817391304348,3,0.0130434782608696,-32575,158.90243902439,
13959043,42862453.0944824,-16896,10.3592887798896,11776,7.22011036174126,-4016,2.46229307173513,4,684.878048780488,-11232,-0.24390243902439,89,-5.42682926829268,8199,-35.6478260869565,3,0.0130434782608696,20672,-100.839024390244,
13500294,43360453.1860352,-25344,15.5389331698345,16128,9.88841201716738,-4112,2.52115266707541,132,653.658536585366,-10720,-8.04878048780488,141,-8.59756097560976,-20475,89.0217391304348,4,0.0173913043478261,-24384,118.946341463415,
13631366,43364453.1860352,-32768,20.0907418761496,17408,10.6732066217045,-4272,2.61925199264255,4,606.829268292683,-9952,-0.24390243902439,91,-5.54878048780488,-8188,35.6,5,0.0217391304347826,24769,-120.824390243902,
13565829,43874453.1555176,27648,-16.9515634580012,15360,9.41753525444513,-4144,2.54077253218884,132,575.609756097561,-9440,-8.04878048780488,-28,1.70731707317073,-16380,71.2173913043478,4,0.0173913043478261,-20287,98.9609756097561,
13565829,43874453.1555176,23808,-14.5971796443899,13568,8.31882280809319,-3760,2.30533415082771,4,528.780487804878,-8672,-0.24390243902439,-104,6.34146341463415,-24572,106.834782608696,4,0.0173913043478261,-20287,98.9609756097561,
13762437,43880453.1555176,18176,-11.1440833844267,11776,7.22011036174126,-3584,2.19742489270386,132,497.560975609756,-8160,-8.04878048780488,-99,6.03658536585366,-12284,53.4086956521739,6,0.0260869565217391,12482,-60.8878048780488,
13631365,44388453.1555176,15616,-9.57449417535254,9216,5.65052115266707,-3552,2.17780502759044,4,450.731707317073,-7392,-0.24390243902439,-73,4.45121951219512,24581,-106.873913043478,6,0.0260869565217391,16578,-80.8682926829268,
13696901,44390453.1555176,12544,-7.69098712446352,5120,3.13917841814837,-3552,2.17780502759044,132,419.512195121951,-6880,-8.04878048780488,-23,1.40243902439024,-16379,71.2130434782609,4,0.0173913043478261,-12095,59,
13434758,44894453.1860352,9728,-5.96443899448191,3328,2.04046597179644,-3680,2.25628448804414,4,372.682926829268,-6112,-0.24390243902439,21,-1.28048780487805,6,-0.0260869565217391,2,0.00869565217391304,24770,-120.829268292683,
13500294,44896453.1860352,12544,-7.69098712446352,2304,1.41263028816677,-3664,2.24647455548743,132,341.463414634146,-5600,-8.04878048780488,54,-3.29268292682927,28678,-124.686956521739,4,0.0173913043478261,20674,-100.848780487805,
13959046,44910453.1860352,17664,-10.8301655426119,4608,2.82526057633354,-3728,2.28571428571429,4,294.634146341463,-4832,-0.24390243902439,97,-5.91463414634146,12295,-53.4565217391304,4,0.0173913043478261,28866,-140.809756097561,
13893508,45420453.125,23808,-14.5971796443899,6144,3.76701410177805,-3760,2.30533415082771,132,263.414634146341,-4320,-8.04878048780488,105,-6.40243902439024,-8185,35.5869565217391,5,0.0217391304347826,-16191,78.9804878048781,
13434758,45918453.1860352,27136,-16.6376456161864,9472,5.80748007357449,-3728,2.28571428571429,4,216.585365853659,-3552,-0.24390243902439,144,-8.78048780487805,20487,-89.0739130434783,4,0.0173913043478261,20673,-100.843902439024,
13631366,45924453.1860352,27648,-16.9515634580012,15616,9.57449417535254,-3728,2.28571428571429,132,185.365853658537,-3040,-8.04878048780488,194,-11.8292682926829,12294,-53.4521739130435,5,0.0217391304347826,-24384,118.946341463415,
13631365,46436453.1555176,23808,-14.5971796443899,20736,12.7136725935009,-3760,2.30533415082771,4,138.536585365854,-2272,-0.24390243902439,222,-13.5365853658537,4101,-17.8304347826087,6,0.0260869565217391,20672,-100.839024390244,
13500292,46944453.125,17920,-10.9871244635193,23040,14.1263028816677,-3936,2.41324340895156,132,107.317073170732,-1760,-8.04878048780488,213,-12.9878048780488,-8189,35.604347826087,4,0.0173913043478261,20672,-100.839024390244,
13827972,46954453.125,8192,-5.0226854690374,21248,13.0275904353158,-4224,2.58982219497241,4,60.4878048780488,-992,-0.24390243902439,131,-7.98780487804878,-20478,89.0347826086957,5,0.0217391304347826,-12096,59.0048780487805,
13827971,47466453.0944824,-2049,1.25628448804414,13056,8.00490496627836,-4208,2.5800122624157,132,29.2682926829268,-480,-8.04878048780488,-7,0.426829268292683,20482,-89.0521739130435,7,0.0304347826086957,-28479,138.921951219512,
13500292,47968453.125,-9985,6.12201103617413,3328,2.04046597179644,-4016,2.46229307173513,4,-17.6219512195122,289,-0.24390243902439,-135,8.23170731707317,-20478,89.0347826086957,6,0.0260869565217391,-7999,39.0195121951219,
13434758,48478453.1860352,-15361,9.41814837522992,-3329,-2.04107909258124,-3712,2.27590435315757,132,-48.8414634146341,801,-8.04878048780488,-163,9.9390243902439,20483,-89.0565217391304,6,0.0260869565217391,12482,-60.8878048780488,
13631364,48484453.125,-17409,10.6738197424893,-7169,-4.39546290619252,-3632,2.226854690374,4,-95.6707317073171,1569,-0.24390243902439,-84,5.1219512195122,4,-0.0173913043478261,5,0.0217391304347826,-20286,98.9560975609756,
13631364,48484453.125,-17409,10.6738197424893,-9985,-6.12201103617413,-3760,2.30533415082771,132,-126.890243902439,2081,-8.04878048780488,-11,0.670731707317073,5,-0.0217391304347826,7,0.0304347826086957,16579,-80.8731707317073,
13500294,48992453.1860352,-15105,9.2611894543225,-11521,-7.06376456161864,-3984,2.4426732066217,4,-173.719512195122,2849,-0.24390243902439,33,-2.01219512195122,-28667,124.639130434783,6,0.0260869565217391,-28477,138.912195121951,
13827974,49002453.1860352,-9729,5.96505211526671,-10753,-6.59288779889638,-4080,2.50153280196199,132,-204.939024390244,3361,-8.04878048780488,39,-2.37804878048781,-8187,35.595652173913,4,0.0173913043478261,-32573,158.892682926829,
13827972,49514453.125,-4097,2.51195585530349,-7937,-4.86633966891478,-4080,2.50153280196199,4,-251.768292682927,4129,-0.24390243902439,32,-1.95121951219512,-12283,53.404347826087,6,0.0260869565217391,-28477,138.912195121951,
13696901,50022453.1555176,768,-0.470876762722256,-3329,-2.04107909258124,-4112,2.52115266707541,132,-282.987804878049,4641,-8.04878048780488,50,-3.04878048780488,-8187,35.595652173913,5,0.0217391304347826,195,-0.951219512195122,
13827972,50026453.125,3328,-2.04046597179644,3584,2.19742489270386,-4064,2.49172286940527,4,-329.817073170732,5409,-0.24390243902439,49,-2.98780487804878,24581,-106.873913043478,5,0.0217391304347826,-12094,58.9951219512195,
13827971,50538453.0944824,5632,-3.45309625996321,8960,5.49356223175966,-4048,2.48191293684856,132,-361.036585365854,5921,-8.04878048780488,37,-2.25609756097561,-4092,17.7913043478261,4,0.0173913043478261,-32574,158.89756097561,
13631364,51044453.125,3328,-2.04046597179644,10240,6.27835683629675,-3968,2.43286327406499,4,-407.865853658537,6689,-0.24390243902439,20,-1.21951219512195,16388,-71.2521739130435,6,0.0260869565217391,24770,-120.829268292683,
13565827,51554453.0944824,-2305,1.41324340895156,8448,5.17964438994482,-3936,2.41324340895156,132,-439.085365853659,7201,-8.04878048780488,-4,0.24390243902439,-28669,124.647826086957,5,0.0217391304347826,8386,-40.9073170731707,
13565827,51554453.0944824,-7425,4.55242182709994,3072,1.88350705088903,-3856,2.364193746168,4,-485.914634146341,7969,-0.24390243902439,-29,1.76829268292683,4099,-17.8217391304348,5,0.0217391304347826,-16191,78.9804878048781,
13565828,51554453.125,-13057,8.00551808706315,-2561,-1.57020232985898,-3776,2.31514408338443,132,-517.134146341463,8481,-8.04878048780488,-49,2.98780487804878,8195,-35.6304347826087,7,0.0304347826086957,8386,-40.9073170731707,
13500292,52064453.125,-15617,9.57510729613734,-6913,-4.2385039852851,-3776,2.31514408338443,4,-563.963414634146,9249,-0.24390243902439,-39,2.37804878048781,-24573,106.839130434783,4,0.0173913043478261,4290,-20.9268292682927,
14155651,52084453.0944824,-16897,10.3599019006744,-10241,-6.27896995708154,-3712,2.27590435315757,132,-595.182926829268,9761,-8.04878048780488,-11,0.670731707317073,8196,-35.6347826086957,5,0.0217391304347826,12482,-60.8878048780488,
13827974,52586453.1860352,-17409,10.6738197424893,-11777,-7.22072348252606,-3760,2.30533415082771,4,-642.012195121951,10529,-0.24390243902439,13,-0.792682926829268,-20476,89.0260869565217,5,0.0217391304347826,24770,-120.829268292683,
13762437,53096453.1555176,-16897,10.3599019006744,-11777,-7.22072348252606,-3904,2.39362354383814,132,-673.231707317073,11041,-8.04878048780488,27,-1.64634146341463,-12284,53.4086956521739,4,0.0173913043478261,195,-0.951219512195122,
13827973,53098453.1555176,-15617,9.57510729613734,-9985,-6.12201103617413,-3936,2.41324340895156,4,-720.060975609756,11809,-0.24390243902439,39,-2.37804878048781,-20476,89.0260869565217,6,0.0260869565217391,-16190,78.9756097560976,
13500294,53600453.1860352,-14337,8.79031269160025,-7937,-4.86633966891478,-4016,2.46229307173513,132,-751.280487804878,12321,-8.04878048780488,48,-2.92682926829268,-4092,17.7913043478261,5,0.0217391304347826,-32574,158.89756097561,
13631365,53604453.1555176,-13057,8.00551808706315,-3585,-2.19803801348866,-4016,2.46229307173513,4,-798.109756097561,13089,-0.24390243902439,47,-2.86585365853659,-8188,35.6,3,0.0130434782608696,28866,-140.809756097561,
13762435,53608453.0944824,-12545,7.69160024524831,-769,-0.471489883507051,-4096,2.5113427345187,132,-829.329268292683,13601,-8.04878048780488,29,-1.76829268292683,24580,-106.869565217391,5,0.0217391304347826,-32574,158.89756097561,
13959044,53614453.125,-12801,7.84855916615573,2048,1.25567136725935,-4064,2.49172286940527,4,-876.158536585366,14369,-0.24390243902439,5,-0.304878048780488,12292,-53.4434782608696,6,0.0260869565217391,20674,-100.848780487805,
13500294,54112453.1860352,-15105,9.2611894543225,3072,1.88350705088903,-3984,2.4426732066217,132,-907.378048780488,14881,-8.04878048780488,-22,1.34146341463415,24580,-106.869565217391,7,0.0304347826086957,28866,-140.809756097561,
13762436,54120453.125,-16641,10.202942979767,1280,0.784794604537094,-3872,2.37400367872471,4,-954.207317073171,15649,-0.24390243902439,-27,1.64634146341463,24580,-106.869565217391,5,0.0217391304347826,-24382,118.936585365854,
13696900,54630453.125,-17665,10.8307786633967,0,0,-3808,2.33476394849785,132,-985.426829268293,16161,-8.04878048780488,-24,1.46341463414634,-28668,124.64347826087,4,0.0173913043478261,-20286,98.9560975609756,
13565828,55138453.125,-18177,11.1446965052115,-769,-0.471489883507051,-3760,2.30533415082771,4,-1032.25609756098,16929,-0.24390243902439,-9,0.548780487804878,-20476,89.0260869565217,4,0.0173913043478261,-24382,118.936585365854,
13827971,55146453.0944824,-17153,10.5168608215819,-2561,-1.57020232985898,-3856,2.364193746168,132,-1063.4756097561,17441,-8.04878048780488,1,-0.0609756097560976,-20476,89.0260869565217,3,0.0130434782608696,-12094,58.9951219512195,
13893508,55148453.125,-17921,10.9877375843041,-3841,-2.35499693439608,-3904,2.39362354383814,4,-1110.30487804878,18209,-0.24390243902439,-8,0.487804878048781,-28668,124.64347826087,7,0.0304347826086957,-7998,39.0146341463415,
13565827,55650453.0944824,-16897,10.3599019006744,-5377,-3.29675045984059,-3904,2.39362354383814,132,-1141.5243902439,18721,-8.04878048780488,-18,1.09756097560976,28676,-124.678260869565,5,0.0217391304347826,-7998,39.0146341463415,
13631364,55652453.125,-17153,10.5168608215819,-5377,-3.29675045984059,-3968,2.43286327406499,4,-1188.35365853659,19489,-0.24390243902439,-13,0.792682926829268,-24572,106.834782608696,5,0.0217391304347826,12483,-60.8926829268293,
13827973,55658453.1555176,-16897,10.3599019006744,-4609,-2.82587369711833,-4000,2.45248313917842,132,-1219.57317073171,20001,-8.04878048780488,0,0,-24572,106.834782608696,3,0.0130434782608696,-32573,158.892682926829,
13827971,56170453.0944824,-16385,10.0459840588596,-4097,-2.51195585530349,-3952,2.42305334150828,4,-1266.40243902439,20769,-0.24390243902439,-5,0.304878048780488,-28668,124.64347826087,4,0.0173913043478261,24771,-120.834146341463,
13827973,56170453.1555176,-14849,9.10423053341508,-4353,-2.66891477621091,-3936,2.41324340895156,132,-1297.62195121951,21281,-8.04878048780488,-3,0.182926829268293,-24572,106.834782608696,3,0.0130434782608696,20675,-100.853658536585,
13762437,56680453.1555176,-13825,8.47639484978541,-3073,-1.88412017167382,-3904,2.39362354383814,4,-1344.4512195122,22049,-0.24390243902439,-3,0.182926829268293,-12284,53.4086956521739,6,0.0260869565217391,28867,-140.814634146341,
13500292,57184453.125,-12801,7.84855916615573,-2817,-1.7271612507664,-3952,2.42305334150828,132,-1375.67073170732,22561,-8.04878048780488,1,-0.0609756097560976,4101,-17.8304347826087,5,0.0217391304347826,195,-0.951219512195122,
14024579,57200453.0944824,-12545,7.69160024524831,-2305,-1.41324340895156,-3936,2.41324340895156,4,-1422.5,23329,-0.24390243902439,0,0,-4092,17.7913043478261,5,0.0217391304347826,20675,-100.853658536585,
13696901,57702453.1555176,-13569,8.31943592887799,-1281,-0.785407725321888,-4000,2.45248313917842,132,-1453.71951219512,23841,-8.04878048780488,-3,0.182926829268293,4101,-17.8304347826087,5,0.0217391304347826,-24381,118.931707317073,
13696901,57702453.1555176,-11777,7.22072348252606,-513,-0.314530962599632,-3968,2.43286327406499,4,-1500.54878048781,24609,-0.24390243902439,0,0,5,-0.0217391304347826,6,0.0260869565217391,195,-0.951219512195122,
13500294,58208453.1860352,-10497,6.43592887798896,768,0.470876762722256,-3808,2.33476394849785,132,-1531.76829268293,25121,-8.04878048780488,2,-0.121951219512195,-16380,71.2173913043478,6,0.0260869565217391,16579,-80.8731707317073,
13959043,58222453.0944824,-9473,5.80809319435929,2304,1.41263028816677,-3920,2.40343347639485,4,-1578.59756097561,25889,-0.24390243902439,10,-0.609756097560976,-8188,35.6,4,0.0173913043478261,-3902,19.0341463414634,
13827970,58730453.0639648,-10753,6.59288779889638,1792,1.09871244635193,-3952,2.42305334150828,132,-1609.81707317073,26401,-8.04878048780488,14,-0.853658536585366,-8188,35.6,4,0.0173913043478261,-16190,78.9756097560976,
13827971,58730453.0944824,-11009,6.7498467198038,1280,0.784794604537094,-3888,2.38381361128142,4,-1656.64634146341,27169,-0.24390243902439,6,-0.365853658536585,-32764,142.452173913043,4,0.0173913043478261,-28478,138.917073170732,
13500292,59232453.125,-11777,7.22072348252606,256,0.156958920907419,-3904,2.39362354383814,132,-1687.86585365854,27681,-8.04878048780488,3,-0.182926829268293,-32764,142.452173913043,5,0.0217391304347826,12482,-60.8878048780488,
13827971,59242453.0944824,-12545,7.69160024524831,0,0,-3904,2.39362354383814,4,-1734.69512195122,28449,-0.24390243902439,-4,0.24390243902439,-32764,142.452173913043,6,0.0260869565217391,24770,-120.829268292683,
13762437,59752453.1555176,-13825,8.47639484978541,-1281,-0.785407725321888,-3856,2.364193746168,132,-1765.91463414634,28961,-8.04878048780488,2,-0.121951219512195,-16380,71.2173913043478,6,0.0260869565217391,20674,-100.848780487805,
13631364,60260453.125,-14081,8.63335377069283,-2305,-1.41324340895156,-3872,2.37400367872471,4,-1812.74390243902,29729,-0.24390243902439,5,-0.304878048780488,-12284,53.4086956521739,3,0.0130434782608696,-20286,98.9560975609756,
13893507,60268453.0944824,-13825,8.47639484978541,-2305,-1.41324340895156,-3952,2.42305334150828,132,-1843.96341463415,30241,-8.04878048780488,21,-1.28048780487805,-4092,17.7913043478261,5,0.0217391304347826,-28478,138.917073170732,
13696901,60774453.1555176,-14849,9.10423053341508,-2049,-1.25628448804414,-4000,2.45248313917842,4,-1890.79268292683,31009,-0.24390243902439,23,-1.40243902439024,5,-0.0217391304347826,7,0.0304347826086957,-16190,78.9756097560976,
13434756,61278453.125,-14081,8.63335377069283,-1793,-1.09932556713673,-3968,2.43286327406499,132,-1922.01219512195,31521,-8.04878048780488,18,-1.09756097560976,-4092,17.7913043478261,4,0.0173913043478261,-20286,98.9560975609756,
14155651,61300453.0944824,-14849,9.10423053341508,-2049,-1.25628448804414,-3984,2.4426732066217,4,-1968.84146341463,32289,-0.24390243902439,14,-0.853658536585366,5,-0.0217391304347826,5,0.0217391304347826,195,-0.951219512195122,
13827973,61802453.1555176,-14849,9.10423053341508,-1793,-1.09932556713673,-3968,2.43286327406499,132,1996.03658536585,-32735,-8.04878048780488,5,-0.304878048780488,-12284,53.4086956521739,5,0.0217391304347826,4291,-20.9317073170732,
13827973,61802453.1555176,-14849,9.10423053341508,-2049,-1.25628448804414,-4000,2.45248313917842,4,1949.20731707317,-31967,-0.24390243902439,4,-0.24390243902439,4101,-17.8304347826087,3,0.0130434782608696,24771,-120.834146341463,
13893508,61804453.125,-14081,8.63335377069283,-2049,-1.25628448804414,-4016,2.46229307173513,132,1917.98780487805,-31455,-8.04878048780488,12,-0.731707317073171,5,-0.0217391304347826,7,0.0304347826086957,-28477,138.912195121951,
13434758,62302453.1860352,-14337,8.79031269160025,-513,-0.314530962599632,-4000,2.45248313917842,4,1871.15853658537,-30687,-0.24390243902439,18,-1.09756097560976,-20476,89.0260869565217,5,0.0217391304347826,24771,-120.834146341463,
13631363,62308453.0944824,-12289,7.5346413243409,-513,-0.314530962599632,-4016,2.46229307173513,132,1839.93902439024,-30175,-8.04878048780488,19,-1.15853658536585,-4092,17.7913043478261,3,0.0130434782608696,-28477,138.912195121951,
13762435,62312453.0944824,-11009,6.7498467198038,-257,-0.157572041692213,-4048,2.48191293684856,4,1793.10975609756,-29407,-0.24390243902439,14,-0.853658536585366,-4092,17.7913043478261,6,0.0260869565217391,-12093,58.990243902439,
13893507,62316453.0944824,-11521,7.06376456161864,-1537,-0.942366646229307,-3904,2.39362354383814,132,1761.89024390244,-28895,-8.04878048780488,11,-0.670731707317073,5,-0.0217391304347826,5,0.0217391304347826,16579,-80.8731707317073,
13893508,62316453.125,-10497,6.43592887798896,-3073,-1.88412017167382,-3824,2.34457388105457,4,1715.06097560976,-28127,-0.24390243902439,11,-0.670731707317073,-8188,35.6,4,0.0173913043478261,12483,-60.8926829268293,
13827972,62826453.125,-10497,6.43592887798896,-2561,-1.57020232985898,-3872,2.37400367872471,132,1683.84146341463,-27615,-8.04878048780488,18,-1.09756097560976,-4092,17.7913043478261,5,0.0217391304347826,20675,-100.853658536585,
13827971,63338453.0944824,-10497,6.43592887798896,-3841,-2.35499693439608,-3888,2.38381361128142,4,1637.01219512195,-26847,-0.24390243902439,14,-0.853658536585366,-8188,35.6,5,0.0217391304347826,-24381,118.931707317073,
13893506,63340453.0639648,-9473,5.80809319435929,-4609,-2.82587369711833,-3920,2.40343347639485,132,1605.79268292683,-26335,-8.04878048780488,10,-0.609756097560976,-8188,35.6,6,0.0260869565217391,-24381,118.931707317073,
13565829,63842453.1555176,-9217,5.65113427345187,-5633,-3.45370938074801,-3888,2.38381361128142,4,1558.96341463415,-25567,-0.24390243902439,7,-0.426829268292683,-20476,89.0260869565217,5,0.0217391304347826,24771,-120.834146341463,
14024579,63856453.0944824,-8193,5.0232985898222,-6145,-3.76762722256284,-3952,2.42305334150828,132,1527.74390243902,-25055,-8.04878048780488,12,-0.731707317073171,-12284,53.4086956521739,5,0.0217391304347826,24771,-120.834146341463,
13565827,64354453.0944824,-8193,5.0232985898222,-5889,-3.61066830165543,-3984,2.4426732066217,4,1480.91463414634,-24287,-0.24390243902439,28,-1.70731707317073,-20476,89.0260869565217,6,0.0260869565217391,16579,-80.8731707317073,
13631364,64356453.125,-7937,4.86633966891478,-6913,-4.2385039852851,-4032,2.47210300429185,132,1449.69512195122,-23775,-8.04878048780488,32,-1.95121951219512,-28668,124.64347826087,5,0.0217391304347826,4291,-20.9317073170732,
13500293,64864453.1555176,-7937,4.86633966891478,-7937,-4.86633966891478,-4080,2.50153280196199,4,1402.86585365854,-23007,-0.24390243902439,5,-0.304878048780488,-32764,142.452173913043,6,0.0260869565217391,4291,-20.9317073170732,
13762436,64872453.125,-8961,5.49417535254445,-7169,-4.39546290619252,-4032,2.47210300429185,132,1371.64634146341,-22495,-8.04878048780488,4,-0.24390243902439,-28668,124.64347826087,6,0.0260869565217391,-12094,58.9951219512195,
13762436,64872453.125,-10241,6.27896995708154,-6401,-3.92458614347026,-4048,2.48191293684856,4,1324.81707317073,-21727,-0.24390243902439,9,-0.548780487804878,-24572,106.834782608696,5,0.0217391304347826,-32574,158.89756097561,
13827972,64874453.125,-9985,6.12201103617413,-6145,-3.76762722256284,-4048,2.48191293684856,132,1293.59756097561,-21215,-8.04878048780488,11,-0.670731707317073,28676,-124.678260869565,5,0.0217391304347826,-32574,158.89756097561,
13959042,64878453.0639648,-10497,6.43592887798896,-5633,-3.45370938074801,-4144,2.54077253218884,4,1246.76829268293,-20447,-0.24390243902439,3,-0.182926829268293,16388,-71.2521739130435,3,0.0130434782608696,-24382,118.936585365854,
13500292,65376453.125,-11521,7.06376456161864,-5889,-3.61066830165543,-4160,2.55058246474555,132,1215.54878048781,-19935,-8.04878048780488,-7,0.426829268292683,24580,-106.869565217391,5,0.0217391304347826,-28478,138.917073170732,
14024578,65392453.0639648,-12289,7.5346413243409,-5121,-3.13979153893317,-4128,2.53096259963213,4,1168.71951219512,-19167,-0.24390243902439,-10,0.609756097560976,-28668,124.64347826087,6,0.0260869565217391,-16190,78.9756097560976,
13762435,65896453.0944824,-12545,7.69160024524831,-5377,-3.29675045984059,-4080,2.50153280196199,132,1137.5,-18655,-8.04878048780488,2,-0.121951219512195,24580,-106.869565217391,3,0.0130434782608696,-20286,98.9560975609756,
13696899,66406453.0944824,-13569,8.31943592887799,-6657,-4.08154506437768,-4016,2.46229307173513,4,1090.67073170732,-17887,-0.24390243902439,9,-0.548780487804878,8196,-35.6347826086957,7,0.0304347826086957,24770,-120.829268292683,
13500293,66912453.1555176,-12545,7.69160024524831,-6145,-3.76762722256284,-4032,2.47210300429185,132,1059.4512195122,-17375,-8.04878048780488,3,-0.182926829268293,20484,-89.0608695652174,8,0.0347826086956522,-16190,78.9756097560976,
13565829,66914453.1555176,-13569,8.31943592887799,-5377,-3.29675045984059,-4112,2.52115266707541,4,1012.62195121951,-16607,-0.24390243902439,1,-0.0609756097560976,-32764,142.452173913043,5,0.0217391304347826,195,-0.951219512195122,
13959043,66926453.0944824,-12801,7.84855916615573,-4353,-2.66891477621091,-4064,2.49172286940527,132,981.40243902439,-16095,-8.04878048780488,2,-0.121951219512195,12292,-53.4434782608696,7,0.0304347826086957,195,-0.951219512195122,
13696899,67430453.0944824,-12545,7.69160024524831,-3841,-2.35499693439608,-4048,2.48191293684856,4,934.573170731707,-15327,-0.24390243902439,14,-0.853658536585366,24580,-106.869565217391,7,0.0304347826086957,-3902,19.0341463414634,
13631365,67940453.1555176,-13569,8.31943592887799,-4353,-2.66891477621091,-4064,2.49172286940527,132,903.353658536586,-14815,-8.04878048780488,15,-0.914634146341463,-32764,142.452173913043,6,0.0260869565217391,-3902,19.0341463414634,
13631365,67940453.1555176,-14337,8.79031269160025,-4097,-2.51195585530349,-4112,2.52115266707541,4,856.524390243903,-14047,-0.24390243902439,16,-0.975609756097561,24580,-106.869565217391,5,0.0217391304347826,4291,-20.9317073170732,
13893507,67948453.0944824,-13825,8.47639484978541,-3585,-2.19803801348866,-4112,2.52115266707541,132,825.304878048781,-13535,-8.04878048780488,12,-0.731707317073171,8196,-35.6347826086957,1,0.00434782608695652,-12094,58.9951219512195,
13959043,67950453.0944824,-15873,9.73206621704476,-4353,-2.66891477621091,-4096,2.5113427345187,4,778.475609756098,-12767,-0.24390243902439,10,-0.609756097560976,28676,-124.678260869565,6,0.0260869565217391,4291,-20.9317073170732,
13696898,68454453.0639648,-14593,8.94727161250766,-4353,-2.66891477621091,-4048,2.48191293684856,132,747.256097560976,-12255,-8.04878048780488,14,-0.853658536585366,20484,-89.0608695652174,6,0.0260869565217391,-3902,19.0341463414634,
13565828,68962453.125,-15617,9.57510729613734,-4865,-2.98283261802575,-4112,2.52115266707541,4,700.426829268293,-11487,-0.24390243902439,9,-0.548780487804878,16388,-71.2521739130435,4,0.0173913043478261,16579,-80.8731707317073,
14024579,68976453.0944824,-15873,9.73206621704476,-4097,-2.51195585530349,-4112,2.52115266707541,132,669.207317073171,-10975,-8.04878048780488,1,-0.0609756097560976,20484,-89.0608695652174,7,0.0304347826086957,12483,-60.8926829268293,
13827972,69482453.125,-15361,9.41814837522992,-2817,-1.7271612507664,-4112,2.52115266707541,4,622.378048780488,-10207,-0.24390243902439,-1,0.0609756097560976,20484,-89.0608695652174,5,0.0217391304347826,20675,-100.853658536585,
13893506,69484453.0639648,-14593,8.94727161250766,-2049,-1.25628448804414,-4128,2.53096259963213,132,591.158536585366,-9695,-8.04878048780488,2,-0.121951219512195,20484,-89.0608695652174,7,0.0304347826086957,-32573,158.892682926829,
13565828,69986453.125,-14593,8.94727161250766,-1537,-0.942366646229307,-4176,2.56039239730227,4,544.329268292683,-8927,-0.24390243902439,0,0,16388,-71.2521739130435,5,0.0217391304347826,20675,-100.853658536585,
14090114,70002453.0639648,-13825,8.47639484978541,-2049,-1.25628448804414,-4192,2.57020232985898,132,513.109756097561,-8415,-8.04878048780488,-4,0.24390243902439,8196,-35.6347826086957,6,0.0260869565217391,16579,-80.8731707317073,
13827972,70506453.125,-13569,8.31943592887799,-2305,-1.41324340895156,-4128,2.53096259963213,4,466.280487804878,-7647,-0.24390243902439,-6,0.365853658536585,16388,-71.2521739130435,5,0.0217391304347826,28867,-140.814634146341,
13762435,71016453.0944824,-13313,8.16247700797057,-2049,-1.25628448804414,-4128,2.53096259963213,132,435.060975609756,-7135,-8.04878048780488,1,-0.0609756097560976,20484,-89.0608695652174,7,0.0304347826086957,16579,-80.8731707317073,
13631364,71524453.125,-13825,8.47639484978541,-1537,-0.942366646229307,-4176,2.56039239730227,4,388.231707317073,-6367,-0.24390243902439,9,-0.548780487804878,28676,-124.678260869565,6,0.0260869565217391,8387,-40.9121951219512,
13631364,71524453.125,-13313,8.16247700797057,-769,-0.471489883507051,-4240,2.59963212752912,132,357.012195121951,-5855,-8.04878048780488,0,0,-24572,106.834782608696,5,0.0217391304347826,12483,-60.8926829268293,
13893506,71532453.0639648,-12801,7.84855916615573,-513,-0.314530962599632,-4144,2.54077253218884,4,310.182926829268,-5087,-0.24390243902439,-3,0.182926829268293,28676,-124.678260869565,5,0.0217391304347826,28867,-140.814634146341,
13959042,71534453.0639648,-12545,7.69160024524831,-1,-0.000613120784794605,-4080,2.50153280196199,132,278.963414634146,-4575,-8.04878048780488,1,-0.0609756097560976,28676,-124.678260869565,6,0.0260869565217391,8387,-40.9121951219512,
13631363,72036453.0944824,-12289,7.5346413243409,1280,0.784794604537094,-4096,2.5113427345187,4,232.134146341463,-3807,-0.24390243902439,4,-0.24390243902439,-24572,106.834782608696,6,0.0260869565217391,28867,-140.814634146341,
13696900,72038453.125,-11265,6.90680564071122,2048,1.25567136725935,-4208,2.5800122624157,132,200.914634146341,-3295,-8.04878048780488,-5,0.304878048780488,-28668,124.64347826087,5,0.0217391304347826,8387,-40.9121951219512,
13762435,72040453.0944824,-11265,6.90680564071122,2560,1.56958920907419,-4128,2.53096259963213,4,154.085365853659,-2527,-0.24390243902439,-13,0.792682926829268,-32764,142.452173913043,4,0.0173913043478261,4291,-20.9317073170732,
14090116,72050453.125,-11777,7.22072348252606,1792,1.09871244635193,-4000,2.45248313917842,132,122.865853658537,-2015,-8.04878048780488,-5,0.304878048780488,24580,-106.869565217391,5,0.0217391304347826,-3902,19.0341463414634,
13893506,72556453.0639648,-13057,8.00551808706315,1280,0.784794604537094,-3984,2.4426732066217,4,76.0365853658537,-1247,-0.24390243902439,5,-0.304878048780488,28676,-124.678260869565,5,0.0217391304347826,-3902,19.0341463414634,
13762434,73064453.0639648,-14593,8.94727161250766,0,0,-4048,2.48191293684856,132,44.8170731707317,-735,-8.04878048780488,-2,0.121951219512195,16388,-71.2521739130435,4,0.0173913043478261,20675,-100.853658536585,
13959043,73070453.0944824,-13825,8.47639484978541,-513,-0.314530962599632,-4048,2.48191293684856,4,-2.07317073170732,34,-0.24390243902439,-13,0.792682926829268,-24572,106.834782608696,6,0.0260869565217391,4291,-20.9317073170732,
13696900,73574453.125,-13057,8.00551808706315,-257,-0.157572041692213,-3984,2.4426732066217,132,-33.2926829268293,546,-8.04878048780488,-6,0.365853658536585,-8188,35.6,6,0.0260869565217391,-12094,58.9951219512195,
13631362,74084453.0639648,-12545,7.69160024524831,1024,0.627835683629675,-4000,2.45248313917842,4,-80.1219512195122,1314,-0.24390243902439,2,-0.121951219512195,-20476,89.0260869565217,7,0.0304347826086957,4291,-20.9317073170732,
13762437,74088453.1555176,-12289,7.5346413243409,768,0.470876762722256,-4064,2.49172286940527,132,-111.341463414634,1826,-8.04878048780488,1,-0.0609756097560976,-28668,124.64347826087,2,0.00869565217391304,24771,-120.834146341463,
13827968,74090453.0029297,-13057,8.00551808706315,-1025,-0.62844880441447,-4048,2.48191293684856,4,-158.170731707317,2594,-0.24390243902439,-14,0.853658536585366,-16380,71.2173913043478,7,0.0304347826086957,12483,-60.8926829268293,
13500292,74592453.125,-13569,8.31943592887799,-1537,-0.942366646229307,-4032,2.47210300429185,132,-189.390243902439,3106,-8.04878048780488,-24,1.46341463414634,-24572,106.834782608696,5,0.0217391304347826,28867,-140.814634146341,
14024579,74608453.0944824,-12801,7.84855916615573,-2305,-1.41324340895156,-3952,2.42305334150828,4,-236.219512195122,3874,-0.24390243902439,-16,0.975609756097561,-12284,53.4086956521739,6,0.0260869565217391,12483,-60.8926829268293,
13696899,75110453.0944824,-11521,7.06376456161864,-1537,-0.942366646229307,-3968,2.43286327406499,132,-267.439024390244,4386,-8.04878048780488,0,0,-4092,17.7913043478261,6,0.0260869565217391,16579,-80.8731707317073,
14024578,75120453.0639648,-10753,6.59288779889638,-1537,-0.942366646229307,-4048,2.48191293684856,4,-314.268292682927,5154,-0.24390243902439,9,-0.548780487804878,-16380,71.2173913043478,6,0.0260869565217391,12483,-60.8926829268293,
13631363,75620453.0944824,-10497,6.43592887798896,-1537,-0.942366646229307,-4080,2.50153280196199,132,-345.487804878049,5666,-8.04878048780488,8,-0.487804878048781,-12284,53.4086956521739,3,0.0130434782608696,8387,-40.9121951219512,
13893507,75628453.0944824,-11265,6.90680564071122,-1537,-0.942366646229307,-4048,2.48191293684856,4,-392.317073170732,6434,-0.24390243902439,2,-0.121951219512195,-16380,71.2173913043478,6,0.0260869565217391,8387,-40.9121951219512,
13762435,76136453.0944824,-11265,6.90680564071122,-1793,-1.09932556713673,-4048,2.48191293684856,132,-423.536585365854,6946,-8.04878048780488,-11,0.670731707317073,-24572,106.834782608696,6,0.0260869565217391,194,-0.946341463414634,
13893507,76140453.0944824,-11777,7.22072348252606,-3585,-2.19803801348866,-4064,2.49172286940527,4,-470.365853658537,7714,-0.24390243902439,-17,1.03658536585366,-12284,53.4086956521739,5,0.0217391304347826,4291,-20.9317073170732,
13631364,76644453.125,-11265,6.90680564071122,-4097,-2.51195585530349,-4032,2.47210300429185,132,-501.585365853659,8226,-8.04878048780488,-8,0.487804878048781,-24572,106.834782608696,3,0.0130434782608696,195,-0.951219512195122,
13762434,76648453.0639648,-11265,6.90680564071122,-3585,-2.19803801348866,-3984,2.4426732066217,4,-548.414634146342,8994,-0.24390243902439,7,-0.426829268292683,-8188,35.6,7,0.0304347826086957,-12094,58.9951219512195,
13696899,77158453.0944824,-11777,7.22072348252606,-2561,-1.57020232985898,-4032,2.47210300429185,132,-579.634146341464,9506,-8.04878048780488,15,-0.914634146341463,-20476,89.0260869565217,5,0.0217391304347826,-24382,118.936585365854,
13762433,77160453.0334473,-12033,7.37768240343348,-2817,-1.7271612507664,-4064,2.49172286940527,4,-626.463414634146,10274,-0.24390243902439,4,-0.24390243902439,-16380,71.2173913043478,3,0.0130434782608696,-16190,78.9756097560976,
13959043,77166453.0944824,-13057,8.00551808706315,-3841,-2.35499693439608,-4064,2.49172286940527,132,-657.682926829268,10786,-8.04878048780488,-6,0.365853658536585,-20476,89.0260869565217,8,0.0347826086956522,28866,-140.809756097561,
13631363,77668453.0944824,-12801,7.84855916615573,-3585,-2.19803801348866,-4064,2.49172286940527,4,-704.512195121951,11554,-0.24390243902439,-12,0.731707317073171,-20476,89.0260869565217,6,0.0260869565217391,195,-0.951219512195122,
13500291,78176453.0944824,-13569,8.31943592887799,-4097,-2.51195585530349,-4032,2.47210300429185,132,-735.731707317073,12066,-8.04878048780488,-9,0.548780487804878,-24572,106.834782608696,7,0.0304347826086957,-12094,58.9951219512195,
13631364,78180453.125,-11521,7.06376456161864,-2817,-1.7271612507664,-4016,2.46229307173513,4,-782.560975609756,12834,-0.24390243902439,-1,0.0609756097560976,5,-0.0217391304347826,5,0.0217391304347826,195,-0.951219512195122,
13893508,78188453.125,-13057,8.00551808706315,-3073,-1.88412017167382,-3952,2.42305334150828,132,-813.780487804878,13346,-8.04878048780488,15,-0.914634146341463,-16380,71.2173913043478,6,0.0260869565217391,-7998,39.0146341463415,
13762434,78696453.0639648,-12545,7.69160024524831,-3073,-1.88412017167382,-4048,2.48191293684856,4,-860.609756097561,14114,-0.24390243902439,12,-0.731707317073171,20484,-89.0608695652174,6,0.0260869565217391,-28478,138.917073170732,
13500293,79200453.1555176,-14081,8.63335377069283,-3841,-2.35499693439608,-4096,2.5113427345187,132,-891.829268292683,14626,-8.04878048780488,-2,0.121951219512195,-32764,142.452173913043,5,0.0217391304347826,-12094,58.9951219512195,
13827972,79210453.125,-13825,8.47639484978541,-4865,-2.98283261802575,-4032,2.47210300429185,4,-938.658536585366,15394,-0.24390243902439,-4,0.24390243902439,-24572,106.834782608696,5,0.0217391304347826,8387,-40.9121951219512,
13762436,79720453.125,-12801,7.84855916615573,-3841,-2.35499693439608,-3968,2.43286327406499,132,-969.878048780488,15906,-8.04878048780488,9,-0.548780487804878,24580,-106.869565217391,4,0.0173913043478261,-28478,138.917073170732,
14090114,79730453.0639648,-13313,8.16247700797057,-2817,-1.7271612507664,-4112,2.52115266707541,4,-1016.70731707317,16674,-0.24390243902439,10,-0.609756097560976,-32764,142.452173913043,5,0.0217391304347826,-3902,19.0341463414634,
13959042,80238453.0639648,-12801,7.84855916615573,-3841,-2.35499693439608,-4192,2.57020232985898,132,-1047.92682926829,17186,-8.04878048780488,2,-0.121951219512195,-16380,71.2173913043478,4,0.0173913043478261,20675,-100.853658536585,
13696899,80742453.0944824,-12545,7.69160024524831,-4097,-2.51195585530349,-4112,2.52115266707541,4,-1094.75609756098,17954,-0.24390243902439,-10,0.609756097560976,20484,-89.0608695652174,6,0.0260869565217391,16579,-80.8731707317073,
13762436,80744453.125,-12801,7.84855916615573,-3329,-2.04107909258124,-4080,2.50153280196199,132,-1125.9756097561,18466,-8.04878048780488,3,-0.182926829268293,-20476,89.0260869565217,4,0.0173913043478261,12483,-60.8926829268293,
13893508,80748453.125,-11521,7.06376456161864,-1537,-0.942366646229307,-4160,2.55058246474555,4,-1172.80487804878,19234,-0.24390243902439,9,-0.548780487804878,-24572,106.834782608696,4,0.0173913043478261,24771,-120.834146341463,
13696899,81254453.0944824,-10241,6.27896995708154,-513,-0.314530962599632,-4224,2.58982219497241,132,-1204.0243902439,19746,-8.04878048780488,13,-0.792682926829268,28676,-124.678260869565,7,0.0304347826086957,-12093,58.990243902439,
13762435,81256453.0944824,-10241,6.27896995708154,-257,-0.157572041692213,-4160,2.55058246474555,4,-1250.85365853659,20514,-0.24390243902439,12,-0.731707317073171,24580,-106.869565217391,4,0.0173913043478261,20675,-100.853658536585,
13893507,81260453.0944824,-10241,6.27896995708154,768,0.470876762722256,-4176,2.56039239730227,132,-1282.07317073171,21026,-8.04878048780488,12,-0.731707317073171,20484,-89.0608695652174,4,0.0173913043478261,12483,-60.8926829268293,
13696900,81766453.125,-11009,6.7498467198038,512,0.313917841814838,-4272,2.61925199264255,4,-1328.90243902439,21794,-0.24390243902439,-1,0.0609756097560976,-32764,142.452173913043,6,0.0260869565217391,16579,-80.8731707317073,
13565828,82274453.125,-11009,6.7498467198038,768,0.470876762722256,-4144,2.54077253218884,132,-1360.12195121951,22306,-8.04878048780488,-5,0.304878048780488,24580,-106.869565217391,6,0.0260869565217391,4291,-20.9317073170732,
13893507,82284453.0944824,-10241,6.27896995708154,2048,1.25567136725935,-4128,2.53096259963213,4,-1406.9512195122,23074,-0.24390243902439,2,-0.121951219512195,16388,-71.2521739130435,5,0.0217391304347826,195,-0.951219512195122,
13565829,82786453.1555176,-11009,6.7498467198038,2560,1.56958920907419,-4064,2.49172286940527,132,-1438.17073170732,23586,-8.04878048780488,2,-0.121951219512195,20484,-89.0608695652174,6,0.0260869565217391,-7998,39.0146341463415,
13827969,82794453.0334473,-9473,5.80809319435929,1792,1.09871244635193,-4032,2.47210300429185,4,-1485,24354,-0.24390243902439,-3,0.182926829268293,20484,-89.0608695652174,3,0.0130434782608696,-12094,58.9951219512195,
13959043,82798453.0944824,-10753,6.59288779889638,2304,1.41263028816677,-4048,2.48191293684856,132,-1516.21951219512,24866,-8.04878048780488,-6,0.365853658536585,16388,-71.2521739130435,4,0.0173913043478261,24771,-120.834146341463,
13893508,83308453.125,-10241,6.27896995708154,1536,0.941753525444513,-3968,2.43286327406499,4,-1563.04878048781,25634,-0.24390243902439,-5,0.304878048780488,-32764,142.452173913043,5,0.0217391304347826,8387,-40.9121951219512,
13893507,83820453.0944824,-11265,6.90680564071122,1024,0.627835683629675,-3936,2.41324340895156,132,-1594.26829268293,26146,-8.04878048780488,8,-0.487804878048781,12292,-53.4434782608696,4,0.0173913043478261,8387,-40.9121951219512,
13959044,83822453.125,-11009,6.7498467198038,-1,-0.000613120784794605,-4016,2.46229307173513,4,-1641.09756097561,26914,-0.24390243902439,0,0,20484,-89.0608695652174,6,0.0260869565217391,12483,-60.8926829268293,
13893508,84332453.125,-10753,6.59288779889638,-1,-0.000613120784794605,-4032,2.47210300429185,132,-1672.31707317073,27426,-8.04878048780488,-2,0.121951219512195,24580,-106.869565217391,6,0.0260869565217391,8387,-40.9121951219512,
13893508,84332453.125,-10241,6.27896995708154,-1,-0.000613120784794605,-4000,2.45248313917842,4,-1719.14634146341,28194,-0.24390243902439,5,-0.304878048780488,-32764,142.452173913043,3,0.0130434782608696,12483,-60.8926829268293,
13762434,84840453.0639648,-9217,5.65113427345187,-1281,-0.785407725321888,-3984,2.4426732066217,132,-1750.36585365854,28706,-8.04878048780488,7,-0.426829268292683,-28668,124.64347826087,7,0.0304347826086957,195,-0.951219512195122,
13762435,84840453.0944824,-11009,6.7498467198038,-2049,-1.25628448804414,-4016,2.46229307173513,4,-1797.19512195122,29474,-0.24390243902439,7,-0.426829268292683,28676,-124.678260869565,6,0.0260869565217391,-16190,78.9756097560976,
13893506,84844453.0639648,-11521,7.06376456161864,-3329,-2.04107909258124,-4048,2.48191293684856,132,-1828.41463414634,29986,-8.04878048780488,-4,0.24390243902439,-32764,142.452173913043,6,0.0260869565217391,195,-0.951219512195122,
13959041,84846453.0334473,-12033,7.37768240343348,-3329,-2.04107909258124,-3984,2.4426732066217,4,-1875.24390243902,30754,-0.24390243902439,-2,0.121951219512195,24580,-106.869565217391,6,0.0260869565217391,4291,-20.9317073170732,
13762434,85352453.0639648,-10753,6.59288779889638,-4097,-2.51195585530349,-4032,2.47210300429185,132,-1906.46341463415,31266,-8.04878048780488,3,-0.182926829268293,-20476,89.0260869565217,8,0.0347826086956522,195,-0.951219512195122,
13827972,85354453.125,-11009,6.7498467198038,-3841,-2.35499693439608,-4000,2.45248313917842,4,-1953.29268292683,32034,-0.24390243902439,11,-0.670731707317073,-24572,106.834782608696,4,0.0173913043478261,-3902,19.0341463414634,
13565829,85858453.1555176,-10753,6.59288779889638,-4353,-2.66891477621091,-4064,2.49172286940527,132,-1984.51219512195,32546,-8.04878048780488,13,-0.792682926829268,-32764,142.452173913043,2,0.00869565217391304,4291,-20.9317073170732,
13827970,85866453.0639648,-11265,6.90680564071122,-5377,-3.29675045984059,-4096,2.5113427345187,4,1964.75609756098,-32222,-0.24390243902439,4,-0.24390243902439,24580,-106.869565217391,6,0.0260869565217391,-7998,39.0146341463415,
13631363,86372453.0944824,-10497,6.43592887798896,-4609,-2.82587369711833,-4064,2.49172286940527,132,1933.53658536585,-31710,-8.04878048780488,-1,0.0609756097560976,20484,-89.0608695652174,6,0.0260869565217391,-7998,39.0146341463415,
13959042,86382453.0639648,-10753,6.59288779889638,-4353,-2.66891477621091,-4016,2.46229307173513,4,1886.70731707317,-30942,-0.24390243902439,8,-0.487804878048781,24580,-106.869565217391,6,0.0260869565217391,12483,-60.8926829268293,
13565828,86882453.125,-11521,7.06376456161864,-4353,-2.66891477621091,-4032,2.47210300429185,132,1855.48780487805,-30430,-8.04878048780488,9,-0.548780487804878,16388,-71.2521739130435,7,0.0304347826086957,4291,-20.9317073170732,
13696900,86886453.125,-10497,6.43592887798896,-4609,-2.82587369711833,-4160,2.55058246474555,4,1808.65853658537,-29662,-0.24390243902439,1,-0.0609756097560976,24580,-106.869565217391,4,0.0173913043478261,8387,-40.9121951219512,
13893507,86892453.0944824,-11777,7.22072348252606,-5121,-3.13979153893317,-4080,2.50153280196199,132,1777.43902439024,-29150,-8.04878048780488,-9,0.548780487804878,24580,-106.869565217391,4,0.0173913043478261,195,-0.951219512195122,
14221185,86902453.0334473,-12033,7.37768240343348,-4609,-2.82587369711833,-4112,2.52115266707541,4,1730.60975609756,-28382,-0.24390243902439,-9,0.548780487804878,-28668,124.64347826087,5,0.0217391304347826,195,-0.951219512195122,
13959043,87406453.0944824,-11777,7.22072348252606,-3841,-2.35499693439608,-4064,2.49172286940527,132,1699.39024390244,-27870,-8.04878048780488,3,-0.182926829268293,-32764,142.452173913043,6,0.0260869565217391,16579,-80.8731707317073,
13893508,87916453.125,-11521,7.06376456161864,-3073,-1.88412017167382,-4112,2.52115266707541,4,1652.56097560976,-27102,-0.24390243902439,6,-0.365853658536585,12292,-53.4434782608696,5,0.0217391304347826,4291,-20.9317073170732,
13893508,87916453.125,-11009,6.7498467198038,-2561,-1.57020232985898,-4208,2.5800122624157,132,1621.34146341463,-26590,-8.04878048780488,1,-0.0609756097560976,20484,-89.0608695652174,5,0.0217391304347826,20675,-100.853658536585,
14090114,87922453.0639648,-10497,6.43592887798896,-3073,-1.88412017167382,-4096,2.5113427345187,4,1574.51219512195,-25822,-0.24390243902439,-6,0.365853658536585,20484,-89.0608695652174,5,0.0217391304347826,24771,-120.834146341463,
13762436,88424453.125,-9729,5.96505211526671,-3329,-2.04107909258124,-4096,2.5113427345187,132,1543.29268292683,-25310,-8.04878048780488,-4,0.24390243902439,8196,-35.6347826086957,4,0.0173913043478261,8387,-40.9121951219512,
13827971,88426453.0944824,-11521,7.06376456161864,-4353,-2.66891477621091,-4096,2.5113427345187,4,1496.46341463415,-24542,-0.24390243902439,1,-0.0609756097560976,4100,-17.8260869565217,5,0.0217391304347826,12483,-60.8926829268293,
13959042,88430453.0639648,-11265,6.90680564071122,-4097,-2.51195585530349,-4112,2.52115266707541,132,1465.24390243902,-24030,-8.04878048780488,-4,0.24390243902439,8196,-35.6347826086957,6,0.0260869565217391,12483,-60.8926829268293,
13631364,88932453.125,-10497,6.43592887798896,-4353,-2.66891477621091,-4096,2.5113427345187,4,1418.41463414634,-23262,-0.24390243902439,-5,0.304878048780488,16388,-71.2521739130435,5,0.0217391304347826,28867,-140.814634146341,
13827972,88938453.125,-8961,5.49417535254445,-3841,-2.35499693439608,-4096,2.5113427345187,132,1387.19512195122,-22750,-8.04878048780488,-1,0.0609756097560976,-32764,142.452173913043,3,0.0130434782608696,16579,-80.8731707317073,
13893506,88940453.0639648,-7681,4.70938074800736,-2561,-1.57020232985898,-4128,2.53096259963213,4,1340.36585365854,-21982,-0.24390243902439,2,-0.121951219512195,20484,-89.0608695652174,5,0.0217391304347826,24771,-120.834146341463,
13696899,89446453.0944824,-7937,4.86633966891478,-2817,-1.7271612507664,-4176,2.56039239730227,132,1309.14634146341,-21470,-8.04878048780488,-2,0.121951219512195,8196,-35.6347826086957,6,0.0260869565217391,28867,-140.814634146341,
13893506,89452453.0639648,-8705,5.33721643163703,-2817,-1.7271612507664,-4128,2.53096259963213,4,1262.31707317073,-20702,-0.24390243902439,-3,0.182926829268293,16388,-71.2521739130435,6,0.0260869565217391,20675,-100.853658536585,
14155651,89460453.0944824,-7937,4.86633966891478,-3841,-2.35499693439608,-4112,2.52115266707541,132,1231.09756097561,-20190,-8.04878048780488,-5,0.304878048780488,4,-0.0173913043478261,3,0.0130434782608696,4291,-20.9317073170732,
14024579,89968453.0944824,-8449,5.18025751072961,-3329,-2.04107909258124,-4176,2.56039239730227,4,1184.26829268293,-19422,-0.24390243902439,-4,0.24390243902439,4100,-17.8260869565217,5,0.0217391304347826,8387,-40.9121951219512,
13696899,90470453.0944824,-8705,5.33721643163703,-2305,-1.41324340895156,-4176,2.56039239730227,132,1153.04878048781,-18910,-8.04878048780488,-1,0.0609756097560976,12292,-53.4434782608696,6,0.0260869565217391,4291,-20.9317073170732,
13696898,90982453.0639648,-8705,5.33721643163703,-1281,-0.785407725321888,-4144,2.54077253218884,4,1106.21951219512,-18142,-0.24390243902439,0,0,8196,-35.6347826086957,8,0.0347826086956522,-3902,19.0341463414634,
13631363,91492453.0944824,-8193,5.0232985898222,-257,-0.157572041692213,-4128,2.53096259963213,132,1075,-17630,-8.04878048780488,0,0,20484,-89.0608695652174,5,0.0217391304347826,-12094,58.9951219512195,
13500292,92000453.125,-8193,5.0232985898222,-257,-0.157572041692213,-4144,2.54077253218884,4,1028.17073170732,-16862,-0.24390243902439,4,-0.24390243902439,8196,-35.6347826086957,6,0.0260869565217391,-28478,138.917073170732,
13959044,92014453.125,-10241,6.27896995708154,0,0,-4208,2.5800122624157,132,996.951219512195,-16350,-8.04878048780488,5,-0.304878048780488,8196,-35.6347826086957,5,0.0217391304347826,-16190,78.9756097560976,
13959043,92526453.0944824,-11265,6.90680564071122,-513,-0.314530962599632,-4144,2.54077253218884,4,950.121951219512,-15582,-0.24390243902439,-8,0.487804878048781,12292,-53.4434782608696,7,0.0304347826086957,-24382,118.936585365854,
13893506,93036453.0639648,-11777,7.22072348252606,-257,-0.157572041692213,-4096,2.5113427345187,132,918.90243902439,-15070,-8.04878048780488,-16,0.975609756097561,4,-0.0173913043478261,6,0.0260869565217391,-12094,58.9951219512195,
13762434,93544453.0639648,-11009,6.7498467198038,-769,-0.471489883507051,-4000,2.45248313917842,4,872.073170731707,-14302,-0.24390243902439,-10,0.609756097560976,4100,-17.8260869565217,6,0.0260869565217391,-7998,39.0146341463415,
13827971,93546453.0944824,-11521,7.06376456161864,-769,-0.471489883507051,-4064,2.49172286940527,132,840.853658536586,-13790,-8.04878048780488,-1,0.0609756097560976,-4093,17.795652173913,4,0.0173913043478261,195,-0.951219512195122,
13762435,94056453.0944824,-11265,6.90680564071122,-1281,-0.785407725321888,-4080,2.50153280196199,4,794.024390243903,-13022,-0.24390243902439,-2,0.121951219512195,-4093,17.795652173913,5,0.0217391304347826,195,-0.951219512195122,
14024580,94064453.125,-13057,8.00551808706315,-1281,-0.785407725321888,-4080,2.50153280196199,132,762.804878048781,-12510,-8.04878048780488,-6,0.365853658536585,-16381,71.2217391304348,6,0.0260869565217391,-3902,19.0341463414634,
14090114,94066453.0639648,-13057,8.00551808706315,-2305,-1.41324340895156,-4000,2.45248313917842,4,715.975609756098,-11742,-0.24390243902439,-6,0.365853658536585,-20477,89.0304347826087,4,0.0173913043478261,8387,-40.9121951219512,
13959043,94574453.0944824,-13313,8.16247700797057,-2817,-1.7271612507664,-4080,2.50153280196199,132,684.756097560976,-11230,-8.04878048780488,-7,0.426829268292683,-12285,53.4130434782609,7,0.0304347826086957,16579,-80.8731707317073,
13762435,95080453.0944824,-13057,8.00551808706315,-3329,-2.04107909258124,-4064,2.49172286940527,4,637.926829268293,-10462,-0.24390243902439,-7,0.426829268292683,12292,-53.4434782608696,7,0.0304347826086957,24771,-120.834146341463,
13696901,95590453.1555176,-11521,7.06376456161864,-2305,-1.41324340895156,-4128,2.53096259963213,132,606.707317073171,-9950,-8.04878048780488,-1,0.0609756097560976,8196,-35.6347826086957,5,0.0217391304347826,20675,-100.853658536585,
13893506,95596453.0639648,-11009,6.7498467198038,-2561,-1.57020232985898,-4144,2.54077253218884,4,559.878048780488,-9182,-0.24390243902439,0,0,4,-0.0173913043478261,5,0.0217391304347826,20675,-100.853658536585,
14090115,95602453.0944824,-12289,7.5346413243409,-1537,-0.942366646229307,-4048,2.48191293684856,132,528.658536585366,-8670,-8.04878048780488,-4,0.24390243902439,12292,-53.4434782608696,5,0.0217391304347826,-24381,118.931707317073,
13893505,96108453.0334473,-11009,6.7498467198038,-3841,-2.35499693439608,-4064,2.49172286940527,4,481.829268292683,-7902,-0.24390243902439,-11,0.670731707317073,16388,-71.2521739130435,5,0.0217391304347826,20675,-100.853658536585,
13631365,96612453.1555176,-10753,6.59288779889638,-2561,-1.57020232985898,-4080,2.50153280196199,132,450.609756097561,-7390,-8.04878048780488,-1,0.0609756097560976,12292,-53.4434782608696,5,0.0217391304347826,28867,-140.814634146341,
13696899,96614453.0944824,-9217,5.65113427345187,-1025,-0.62844880441447,-4048,2.48191293684856,4,403.780487804878,-6622,-0.24390243902439,-2,0.121951219512195,-4093,17.795652173913,7,0.0304347826086957,-24381,118.931707317073,
13631363,97124453.0944824,-7937,4.86633966891478,-513,-0.314530962599632,-4080,2.50153280196199,132,372.560975609756,-6110,-8.04878048780488,-4,0.24390243902439,-12285,53.4130434782609,5,0.0217391304347826,24771,-120.834146341463,
13827971,97130453.0944824,-7681,4.70938074800736,-769,-0.471489883507051,-4016,2.46229307173513,4,325.731707317073,-5342,-0.24390243902439,-1,0.0609756097560976,-8189,35.604347826087,6,0.0260869565217391,12483,-60.8926829268293,
13893507,97132453.0944824,-7169,4.39546290619252,-1281,-0.785407725321888,-4000,2.45248313917842,132,294.512195121951,-4830,-8.04878048780488,5,-0.304878048780488,-28669,124.647826086957,7,0.0304347826086957,8387,-40.9121951219512,
