Shimmer,Shimmer,Shimmer,Shimmer,Shimmer,Shimmer,Shimmer,Shimmer,Shimmer,Shimmer,Shimmer,Shimmer,Shimmer,Shimmer,Shimmer,Shimmer,Shimmer,Shimmer,Shimmer,Shimmer,
Timestamp,Timestamp,Wide Range Accelerometer X,Wide Range Accelerometer X,Wide Range Accelerometer Y,Wide Range Accelerometer Y,Wide Range Accelerometer Z,Wide Range Accelerometer Z,Gyroscope X,Gyroscope X,Gyroscope Y,Gyroscope Y,Gyroscope Z,Gyroscope Z,Magnetometer X,Magnetometer X,Magnetometer Y,Magnetometer Y,Magnetometer Z,Magnetometer Z,
RAW,CAL,RAW,CAL,RAW,CAL,RAW,CAL,RAW,CAL,RAW,CAL,RAW,CAL,RAW,CAL,RAW,CAL,RAW,CAL,
no units,mSecs,no units,m/(sec^2),no units,m/(sec^2),no units,m/(sec^2),no units,deg/sec,no units,deg/sec,no units,deg/sec,no units,local,no units,local,no units,local,
3641988,0,1696,-1.03985285101165,-15120,-9.27038626609442,-5616,3.4432863274065,52,2.13414634146341,-35,-3.17073170731707,-24,1.46341463414634,-63,0.273913043478261,34,0.147826086956522,92,-0.448780487804878,
3642628,19.53125,1728,-1.05947271612508,-15216,-9.3292458614347,-5584,3.42366646229307,19,2.92682926829268,-48,-1.15853658536585,-12,0.731707317073171,-65,0.282608695652174,36,0.156521739130435,91,-0.44390243902439,
3643268,39.0625,1616,-0.990803188228081,-15200,-9.31943592887799,-5616,3.4432863274065,-10,3.96341463414634,-65,0.609756097560976,-12,0.731707317073171,-66,0.28695652173913,35,0.152173913043478,89,-0.434146341463415,
3643908,58.59375,1744,-1.06928264868179,-15200,-9.31943592887799,-5584,3.42366646229307,-28,4.75609756097561,-78,1.70731707317073,-6,0.365853658536585,-64,0.278260869565217,34,0.147826086956522,92,-0.448780487804878,
3644548,78.125,1712,-1.04966278356836,-15056,-9.23114653586757,-5600,3.43347639484979,-38,5.18292682926829,-85,2.31707317073171,-3,0.182926829268293,-62,0.269565217391304,34,0.147826086956522,92,-0.448780487804878,
3645188,97.65625,1744,-1.06928264868179,-14944,-9.16247700797057,-5424,3.32556713672594,-36,5.30487804878049,-87,2.19512195121951,4,-0.24390243902439,-62,0.269565217391304,37,0.160869565217391,90,-0.439024390243902,
3645828,117.1875,1824,-1.11833231146536,-14960,-9.17228694052728,-5392,3.30594727161251,-32,5.0609756097561,-83,1.95121951219512,24,-1.46341463414634,-63,0.273913043478261,37,0.160869565217391,92,-0.448780487804878,
3646468,136.71875,1888,-1.15757204169221,-15040,-9.22133660331085,-5344,3.27651747394237,-36,4.57317073170732,-75,2.19512195121951,46,-2.80487804878049,-63,0.273913043478261,36,0.156521739130435,91,-0.44390243902439,
3647108,156.25,1936,-1.18700183936235,-15072,-9.24095646842428,-5248,3.21765787860208,-38,3.65853658536585,-60,2.31707317073171,62,-3.78048780487805,-63,0.273913043478261,35,0.152173913043478,92,-0.448780487804878,
3647748,175.78125,2096,-1.28510116492949,-15024,-9.21152667075414,-5248,3.21765787860208,-35,2.5609756097561,-42,2.13414634146341,66,-4.02439024390244,-61,0.265217391304348,36,0.156521739130435,92,-0.448780487804878,
3648388,195.3125,2256,-1.38320049049663,-14864,-9.113427345187,-5120,3.13917841814837,-27,1.70731707317073,-28,1.64634146341463,60,-3.65853658536585,-64,0.278260869565217,39,0.169565217391304,91,-0.44390243902439,
3649028,214.84375,2304,-1.41263028816677,-14736,-9.03494788473329,-5024,3.08031882280809,-8,0.792682926829268,-13,0.487804878048781,40,-2.4390243902439,-64,0.278260869565217,33,0.143478260869565,94,-0.458536585365854,
3649668,234.375,2416,-1.48129981606376,-14816,-9.08399754751686,-5072,3.10974862047823,5,-0.0609756097560976,1,-0.304878048780488,17,-1.03658536585366,-63,0.273913043478261,34,0.147826086956522,93,-0.453658536585366,
3650308,253.90625,2512,-1.54015941140405,-14848,-9.10361741263029,-5168,3.16860821581852,33,-0.914634146341463,15,-2.01219512195122,1,-0.0609756097560976,-61,0.265217391304348,34,0.147826086956522,92,-0.448780487804878,
3650948,273.4375,2544,-1.55977927651747,-14880,-9.12323727774372,-5248,3.21765787860208,54,-2.01219512195122,33,-3.29268292682927,-13,0.792682926829268,-60,0.260869565217391,34,0.147826086956522,93,-0.453658536585366,
3651588,292.96875,2528,-1.54996934396076,-15040,-9.22133660331085,-5392,3.30594727161251,82,-2.5,41,-5,-20,1.21951219512195,-63,0.273913043478261,41,0.178260869565217,92,-0.448780487804878,
3652228,312.5,2432,-1.49110974862048,-15024,-9.21152667075414,-5536,3.39423666462293,95,-2.37804878048781,39,-5.79268292682927,-25,1.52439024390244,-64,0.278260869565217,38,0.165217391304348,92,-0.448780487804878,
3652868,332.03125,2448,-1.50091968117719,-15088,-9.25076640098099,-5664,3.47271612507664,96,-1.76829268292683,29,-5.85365853658537,-31,1.89024390243902,-61,0.265217391304348,35,0.152173913043478,92,-0.448780487804878,
3653508,351.5625,2416,-1.48129981606376,-15072,-9.24095646842428,-5760,3.53157572041692,90,-0.914634146341463,15,-5.48780487804878,-41,2.5,-63,0.273913043478261,35,0.152173913043478,92,-0.448780487804878,
3654148,371.09375,2368,-1.45187001839362,-15104,-9.26057633353771,-5696,3.49233599019007,71,0.182926829268293,-3,-4.32926829268293,-54,3.29268292682927,-64,0.278260869565217,38,0.165217391304348,92,-0.448780487804878,
3654788,390.625,2352,-1.44206008583691,-15168,-9.29981606376456,-5600,3.43347639484979,59,1.15853658536585,-19,-3.59756097560976,-64,3.90243902439024,-62,0.269565217391304,38,0.165217391304348,91,-0.44390243902439,
3655428,410.15625,2432,-1.49110974862048,-15328,-9.3979153893317,-5680,3.48252605763335,50,1.82926829268293,-30,-3.04878048780488,-67,4.08536585365854,-63,0.273913043478261,37,0.160869565217391,90,-0.439024390243902,
3656068,429.6875,2368,-1.45187001839362,-15440,-9.46658491722869,-5536,3.39423666462293,52,2.25609756097561,-37,-3.17073170731707,-67,4.08536585365854,-63,0.273913043478261,42,0.182608695652174,88,-0.429268292682927,
3656708,449.21875,2448,-1.50091968117719,-15504,-9.50582464745555,-5408,3.31575720416922,55,2.6219512195122,-43,-3.35365853658537,-67,4.08536585365854,-61,0.265217391304348,39,0.169565217391304,91,-0.44390243902439,
3657348,468.75,2416,-1.48129981606376,-15472,-9.48620478234212,-5280,3.23727774371551,64,2.37804878048781,-39,-3.90243902439024,-67,4.08536585365854,-63,0.273913043478261,40,0.173913043478261,90,-0.439024390243902,
3657988,488.28125,2352,-1.44206008583691,-15456,-9.47639484978541,-5152,3.1587982832618,76,1.76829268292683,-29,-4.63414634146342,-78,4.75609756097561,-64,0.278260869565217,37,0.160869565217391,91,-0.44390243902439,
3658628,507.8125,2272,-1.39301042305334,-15280,-9.36848559166156,-5088,3.11955855303495,97,1.40243902439024,-23,-5.91463414634146,-88,5.36585365853659,-66,0.28695652173913,37,0.160869565217391,90,-0.439024390243902,
3659268,527.34375,2224,-1.3635806253832,-15184,-9.30962599632127,-5120,3.13917841814837,128,1.03658536585366,-17,-7.80487804878049,-98,5.97560975609756,-62,0.269565217391304,37,0.160869565217391,90,-0.439024390243902,
3659908,546.875,2112,-1.2949110974862,-15040,-9.22133660331085,-5168,3.16860821581852,159,0.731707317073171,-12,-9.69512195121951,-103,6.28048780487805,-66,0.28695652173913,42,0.182608695652174,88,-0.429268292682927,
3660548,566.40625,1952,-1.19681177191907,-15008,-9.20171673819742,-5296,3.24708767627223,168,0.975609756097561,-16,-10.2439024390244,-100,6.09756097560976,-63,0.273913043478261,35,0.152173913043478,91,-0.44390243902439,
3661188,585.9375,1776,-1.08890251379522,-14960,-9.17228694052728,-5376,3.29613733905579,152,1.64634146341463,-27,-9.26829268292683,-81,4.9390243902439,-63,0.273913043478261,39,0.169565217391304,89,-0.434146341463415,
3661828,605.46875,1712,-1.04966278356836,-15040,-9.22133660331085,-5328,3.26670754138565,116,2.6219512195122,-43,-7.07317073170732,-60,3.65853658536585,-63,0.273913043478261,40,0.173913043478261,89,-0.434146341463415,
3662468,625,1728,-1.05947271612508,-15104,-9.26057633353771,-5360,3.28632740649908,81,3.53658536585366,-58,-4.9390243902439,-42,2.5609756097561,-65,0.282608695652174,37,0.160869565217391,88,-0.429268292682927,
3663108,644.53125,1776,-1.08890251379522,-15248,-9.34886572654813,-5264,3.2274678111588,39,4.39024390243902,-72,-2.37804878048781,-27,1.64634146341463,-63,0.273913043478261,40,0.173913043478261,88,-0.429268292682927,
3663748,664.0625,1840,-1.12814224402207,-15376,-9.42734518700184,-5120,3.13917841814837,4,5,-82,-0.24390243902439,-27,1.64634146341463,-63,0.273913043478261,40,0.173913043478261,89,-0.434146341463415,
3664388,683.59375,1872,-1.1477621091355,-15488,-9.49601471489883,-5088,3.11955855303495,-26,5.60975609756098,-92,1.58536585365854,-23,1.40243902439024,-61,0.265217391304348,40,0.173913043478261,87,-0.424390243902439,
3665028,703.125,1936,-1.18700183936235,-15520,-9.51563458001226,-5056,3.09993868792152,-48,5.24390243902439,-86,2.92682926829268,-21,1.28048780487805,-61,0.265217391304348,39,0.169565217391304,89,-0.434146341463415,
3665668,722.65625,2016,-1.23605150214592,-15632,-9.58430410790926,-4960,3.04107909258124,-60,4.75609756097561,-78,3.65853658536585,-23,1.40243902439024,-62,0.269565217391304,39,0.169565217391304,91,-0.44390243902439,
3666308,742.1875,2096,-1.28510116492949,-15472,-9.48620478234212,-4880,2.99202942979767,-53,3.53658536585366,-58,3.23170731707317,-19,1.15853658536585,-65,0.282608695652174,39,0.169565217391304,88,-0.429268292682927,
3666948,761.71875,2144,-1.31453096259963,-15296,-9.37829552421827,-4768,2.92335990190067,-28,2.37804878048781,-39,1.70731707317073,-17,1.03658536585366,-61,0.265217391304348,36,0.156521739130435,91,-0.44390243902439,
3667588,781.25,2160,-1.32434089515635,-15104,-9.26057633353771,-4832,2.96259963212753,21,0.792682926829268,-13,-1.28048780487805,-7,0.426829268292683,-64,0.278260869565217,42,0.182608695652174,89,-0.434146341463415,
3668228,800.78125,2128,-1.30472103004292,-14880,-9.12323727774372,-4928,3.02145922746781,65,-0.365853658536585,6,-3.96341463414634,3,-0.182926829268293,-61,0.265217391304348,40,0.173913043478261,88,-0.429268292682927,
3668868,820.3125,1984,-1.2164316370325,-14784,-9.06437768240343,-5040,3.09012875536481,90,-0.914634146341463,15,-5.48780487804878,14,-0.853658536585366,-61,0.265217391304348,37,0.160869565217391,88,-0.429268292682927,
3669508,839.84375,1904,-1.16738197424893,-14832,-9.09380748007357,-5136,3.14898835070509,84,-0.731707317073171,12,-5.1219512195122,23,-1.40243902439024,-61,0.265217391304348,38,0.165217391304348,90,-0.439024390243902,
3670148,859.375,1904,-1.16738197424893,-15024,-9.21152667075414,-5168,3.16860821581852,53,-0.304878048780488,5,-3.23170731707317,35,-2.13414634146341,-60,0.260869565217391,39,0.169565217391304,89,-0.434146341463415,
3670788,878.90625,1824,-1.11833231146536,-15152,-9.29000613120785,-5216,3.19803801348866,8,0.487804878048781,-8,-0.487804878048781,44,-2.68292682926829,-63,0.273913043478261,43,0.18695652173913,89,-0.434146341463415,
3671428,898.4375,1984,-1.2164316370325,-15216,-9.3292458614347,-5280,3.23727774371551,-41,0.975609756097561,-16,2.5,53,-3.23170731707317,-63,0.273913043478261,35,0.152173913043478,91,-0.44390243902439,
3672068,917.96875,2128,-1.30472103004292,-15264,-9.35867565910484,-5312,3.25689760882894,-86,1.82926829268293,-30,5.24390243902439,55,-3.35365853658537,-62,0.269565217391304,37,0.160869565217391,91,-0.44390243902439,
3672708,937.5,2288,-1.40282035561006,-15264,-9.35867565910484,-5232,3.20784794604537,-105,2.07317073170732,-34,6.40243902439024,42,-2.5609756097561,-61,0.265217391304348,37,0.160869565217391,89,-0.434146341463415,
3673348,957.03125,2336,-1.4322501532802,-15184,-9.30962599632127,-5152,3.1587982832618,-91,2.5,-41,5.54878048780488,21,-1.28048780487805,-60,0.260869565217391,36,0.156521739130435,88,-0.429268292682927,
3673988,976.5625,2400,-1.47148988350705,-15232,-9.33905579399141,-5056,3.09993868792152,-80,2.31707317073171,-38,4.87804878048781,7,-0.426829268292683,-66,0.28695652173913,41,0.178260869565217,89,-0.434146341463415,
3674628,996.09375,2416,-1.48129981606376,-15248,-9.34886572654813,-5056,3.09993868792152,-75,1.76829268292683,-29,4.57317073170732,0,0,-63,0.273913043478261,40,0.173913043478261,90,-0.439024390243902,
3675268,1015.625,2416,-1.48129981606376,-15216,-9.3292458614347,-4944,3.03126916002452,-68,0.609756097560976,-10,4.14634146341463,1,-0.0609756097560976,-62,0.269565217391304,36,0.156521739130435,90,-0.439024390243902,
3675908,1035.15625,2464,-1.51072961373391,-15104,-9.26057633353771,-4864,2.98221949724096,-52,-0.609756097560976,10,3.17073170731707,5,-0.304878048780488,-64,0.278260869565217,41,0.178260869565217,88,-0.429268292682927,
3676548,1054.6875,2432,-1.49110974862048,-15056,-9.23114653586757,-4896,3.00183936235438,-21,-1.64634146341463,27,1.28048780487805,4,-0.24390243902439,-64,0.278260869565217,40,0.173913043478261,91,-0.44390243902439,
3677188,1074.21875,2416,-1.48129981606376,-15008,-9.20171673819742,-4976,3.05088902513795,9,-2.68292682926829,44,-0.548780487804878,0,0,-64,0.278260869565217,40,0.173913043478261,90,-0.439024390243902,
3677828,1093.75,2432,-1.49110974862048,-14960,-9.17228694052728,-5024,3.08031882280809,37,-3.10975609756098,51,-2.25609756097561,-10,0.609756097560976,-64,0.278260869565217,36,0.156521739130435,90,-0.439024390243902,
3678468,1113.28125,2432,-1.49110974862048,-14992,-9.19190680564071,-5056,3.09993868792152,61,-3.78048780487805,62,-3.71951219512195,-21,1.28048780487805,-63,0.273913043478261,37,0.160869565217391,90,-0.439024390243902,
3679108,1132.8125,2352,-1.44206008583691,-15120,-9.27038626609442,-5168,3.16860821581852,78,-3.17073170731707,52,-4.75609756097561,-21,1.28048780487805,-64,0.278260869565217,40,0.173913043478261,88,-0.429268292682927,
3679748,1152.34375,2192,-1.34396076026977,-15232,-9.33905579399141,-5264,3.2274678111588,80,-2.4390243902439,40,-4.87804878048781,-18,1.09756097560976,-66,0.28695652173913,44,0.191304347826087,87,-0.424390243902439,
3680388,1171.875,2160,-1.32434089515635,-15424,-9.45677498467198,-5280,3.23727774371551,60,-1.09756097560976,18,-3.65853658536585,-18,1.09756097560976,-63,0.273913043478261,38,0.165217391304348,89,-0.434146341463415,
3681028,1191.40625,2096,-1.28510116492949,-15520,-9.51563458001226,-5328,3.26670754138565,21,0.304878048780488,-5,-1.28048780487805,-25,1.52439024390244,-65,0.282608695652174,44,0.191304347826087,86,-0.419512195121951,
3681668,1210.9375,2080,-1.27529123237278,-15584,-9.55487431023912,-5264,3.2274678111588,-29,1.76829268292683,-29,1.76829268292683,-34,2.07317073170732,-63,0.273913043478261,43,0.18695652173913,87,-0.424390243902439,
3682308,1230.46875,2176,-1.33415082771306,-15552,-9.53525444512569,-5168,3.16860821581852,-64,2.86585365853659,-47,3.90243902439024,-44,2.68292682926829,-65,0.282608695652174,43,0.18695652173913,87,-0.424390243902439,
3682948,1250,2208,-1.35377069282649,-15552,-9.53525444512569,-5120,3.13917841814837,-80,3.96341463414634,-65,4.87804878048781,-50,3.04878048780488,-66,0.28695652173913,43,0.18695652173913,86,-0.419512195121951,
3683588,1269.53125,2128,-1.30472103004292,-15536,-9.52544451256898,-5040,3.09012875536481,-80,4.39024390243902,-72,4.87804878048781,-58,3.53658536585366,-66,0.28695652173913,39,0.169565217391304,87,-0.424390243902439,
3684228,1289.0625,2128,-1.30472103004292,-15424,-9.45677498467198,-4992,3.06069895769467,-80,4.39024390243902,-72,4.87804878048781,-59,3.59756097560976,-66,0.28695652173913,41,0.178260869565217,86,-0.419512195121951,
3684868,1308.59375,2112,-1.2949110974862,-15312,-9.38810545677498,-4976,3.05088902513795,-68,4.26829268292683,-70,4.14634146341463,-58,3.53658536585366,-67,0.291304347826087,39,0.169565217391304,85,-0.414634146341463,
3685508,1328.125,2144,-1.31453096259963,-15232,-9.33905579399141,-4896,3.00183936235438,-34,3.59756097560976,-59,2.07317073170732,-50,3.04878048780488,-67,0.291304347826087,40,0.173913043478261,87,-0.424390243902439,
3686148,1347.65625,2080,-1.27529123237278,-15168,-9.29981606376456,-4960,3.04107909258124,9,3.10975609756098,-51,-0.548780487804878,-39,2.37804878048781,-66,0.28695652173913,42,0.182608695652174,86,-0.419512195121951,
3686788,1367.1875,1920,-1.17719190680564,-15104,-9.26057633353771,-4976,3.05088902513795,28,3.35365853658537,-55,-1.70731707317073,-28,1.70731707317073,-66,0.28695652173913,40,0.173913043478261,86,-0.419512195121951,
3687428,1386.71875,1840,-1.12814224402207,-15200,-9.31943592887799,-4992,3.06069895769467,23,3.71951219512195,-61,-1.40243902439024,-18,1.09756097560976,-68,0.295652173913043,40,0.173913043478261,86,-0.419512195121951,
3688068,1406.25,1728,-1.05947271612508,-15264,-9.35867565910484,-4944,3.03126916002452,-7,4.51219512195122,-74,0.426829268292683,-8,0.487804878048781,-68,0.295652173913043,43,0.18695652173913,87,-0.424390243902439,
3688708,1425.78125,1824,-1.11833231146536,-15280,-9.36848559166156,-4960,3.04107909258124,-109,6.21951219512195,-102,6.64634146341464,13,-0.792682926829268,-68,0.295652173913043,44,0.191304347826087,86,-0.419512195121951,
3689348,1445.3125,1872,-1.1477621091355,-15408,-9.44696505211527,-4864,2.98221949724096,-142,6.52439024390244,-107,8.65853658536586,16,-0.975609756097561,-68,0.295652173913043,39,0.169565217391304,87,-0.424390243902439,
3689988,1464.84375,1968,-1.20662170447578,-15440,-9.46658491722869,-4864,2.98221949724096,-163,6.58536585365854,-108,9.9390243902439,18,-1.09756097560976,-66,0.28695652173913,39,0.169565217391304,87,-0.424390243902439,
3690628,1484.375,2128,-1.30472103004292,-15472,-9.48620478234212,-4784,2.93316983445739,-166,6.15853658536585,-101,10.1219512195122,14,-0.853658536585366,-66,0.28695652173913,42,0.182608695652174,85,-0.414634146341463,
3691268,1503.90625,2256,-1.38320049049663,-15424,-9.45677498467198,-4736,2.90374003678725,-152,5.18292682926829,-85,9.26829268292683,15,-0.914634146341463,-65,0.282608695652174,43,0.18695652173913,86,-0.419512195121951,
3691908,1523.4375,2288,-1.40282035561006,-15392,-9.43715511955855,-4640,2.84488044144697,-119,4.08536585365854,-67,7.25609756097561,15,-0.914634146341463,-66,0.28695652173913,40,0.173913043478261,88,-0.429268292682927,
3692548,1542.96875,2368,-1.45187001839362,-15312,-9.38810545677498,-4672,2.86450030656039,-77,2.80487804878049,-46,4.69512195121951,20,-1.21951219512195,-67,0.291304347826087,41,0.178260869565217,87,-0.424390243902439,
3693188,1562.5,2384,-1.46167995095034,-15312,-9.38810545677498,-4816,2.95278969957082,-37,1.76829268292683,-29,2.25609756097561,23,-1.40243902439024,-66,0.28695652173913,42,0.182608695652174,86,-0.419512195121951,
3693828,1582.03125,2320,-1.42244022072348,-15200,-9.31943592887799,-4768,2.92335990190067,-7,1.21951219512195,-20,0.426829268292683,32,-1.95121951219512,-66,0.28695652173913,42,0.182608695652174,87,-0.424390243902439,
3694468,1601.5625,2272,-1.39301042305334,-15184,-9.30962599632127,-4880,2.99202942979767,2,0.975609756097561,-16,-0.121951219512195,39,-2.37804878048781,-69,0.3,42,0.182608695652174,88,-0.429268292682927,
3695108,1621.09375,2112,-1.2949110974862,-15264,-9.35867565910484,-4960,3.04107909258124,-11,1.03658536585366,-17,0.670731707317073,40,-2.4390243902439,-70,0.304347826086957,44,0.191304347826087,86,-0.419512195121951,
3695748,1640.625,2208,-1.35377069282649,-15328,-9.3979153893317,-5104,3.12936848559166,-31,1.46341463414634,-24,1.89024390243902,39,-2.37804878048781,-66,0.28695652173913,40,0.173913043478261,87,-0.424390243902439,
3696388,1660.15625,2288,-1.40282035561006,-15344,-9.40772532188841,-5168,3.16860821581852,-40,1.82926829268293,-30,2.4390243902439,36,-2.19512195121951,-67,0.291304347826087,40,0.173913043478261,87,-0.424390243902439,
3697028,1679.6875,2272,-1.39301042305334,-15232,-9.33905579399141,-5184,3.17841814837523,-36,3.10975609756098,-51,2.19512195121951,29,-1.76829268292683,-68,0.295652173913043,43,0.18695652173913,87,-0.424390243902439,
3697668,1699.21875,2320,-1.42244022072348,-15328,-9.3979153893317,-5184,3.17841814837523,-40,4.08536585365854,-67,2.4390243902439,30,-1.82926829268293,-68,0.295652173913043,44,0.191304347826087,87,-0.424390243902439,
3698308,1718.75,2320,-1.42244022072348,-15440,-9.46658491722869,-5296,3.24708767627223,-61,5.18292682926829,-85,3.71951219512195,25,-1.52439024390244,-66,0.28695652173913,39,0.169565217391304,87,-0.424390243902439,
3698948,1738.28125,2256,-1.38320049049663,-15328,-9.3979153893317,-5264,3.2274678111588,-89,6.46341463414634,-106,5.42682926829268,17,-1.03658536585366,-67,0.291304347826087,45,0.195652173913043,87,-0.424390243902439,
3699588,1757.8125,2288,-1.40282035561006,-15264,-9.35867565910484,-5120,3.13917841814837,-114,7.01219512195122,-115,6.95121951219512,5,-0.304878048780488,-69,0.3,42,0.182608695652174,88,-0.429268292682927,
3700228,1777.34375,2352,-1.44206008583691,-15296,-9.37829552421827,-4992,3.06069895769467,-125,7.4390243902439,-122,7.6219512195122,1,-0.0609756097560976,-69,0.3,42,0.182608695652174,88,-0.429268292682927,
3700868,1796.875,2352,-1.44206008583691,-15360,-9.41753525444513,-4976,3.05088902513795,-125,7.19512195121951,-118,7.6219512195122,8,-0.487804878048781,-69,0.3,41,0.178260869565217,87,-0.424390243902439,
3701508,1816.40625,2400,-1.47148988350705,-15376,-9.42734518700184,-4896,3.00183936235438,-107,6.58536585365854,-108,6.52439024390244,17,-1.03658536585366,-68,0.295652173913043,42,0.182608695652174,87,-0.424390243902439,
3702148,1835.9375,2416,-1.48129981606376,-15312,-9.38810545677498,-4912,3.0116492949111,-79,5.67073170731707,-93,4.81707317073171,19,-1.15853658536585,-68,0.295652173913043,41,0.178260869565217,87,-0.424390243902439,
3702788,1855.46875,2384,-1.46167995095034,-15248,-9.34886572654813,-4816,2.95278969957082,-47,4.63414634146342,-76,2.86585365853659,13,-0.792682926829268,-67,0.291304347826087,43,0.18695652173913,89,-0.434146341463415,
3703428,1875,2352,-1.44206008583691,-15184,-9.30962599632127,-4704,2.88412017167382,-27,3.84146341463415,-63,1.64634146341463,6,-0.365853658536585,-67,0.291304347826087,43,0.18695652173913,87,-0.424390243902439,
3704068,1894.53125,2320,-1.42244022072348,-15104,-9.26057633353771,-4800,2.9429797670141,-9,2.98780487804878,-49,0.548780487804878,1,-0.0609756097560976,-67,0.291304347826087,42,0.182608695652174,87,-0.424390243902439,
3704708,1914.0625,2208,-1.35377069282649,-15024,-9.21152667075414,-4944,3.03126916002452,6,2.25609756097561,-37,-0.365853658536585,6,-0.365853658536585,-69,0.3,41,0.178260869565217,86,-0.419512195121951,
3705348,1933.59375,2176,-1.33415082771306,-15072,-9.24095646842428,-4992,3.06069895769467,14,2.07317073170732,-34,-0.853658536585366,15,-0.914634146341463,-70,0.304347826086957,40,0.173913043478261,87,-0.424390243902439,
3705988,1953.125,2112,-1.2949110974862,-15136,-9.28019619865113,-5040,3.09012875536481,14,2.25609756097561,-37,-0.853658536585366,28,-1.70731707317073,-69,0.3,39,0.169565217391304,88,-0.429268292682927,
3706628,1972.65625,2064,-1.26548129981606,-15136,-9.28019619865113,-5120,3.13917841814837,-4,2.68292682926829,-44,0.24390243902439,37,-2.25609756097561,-67,0.291304347826087,40,0.173913043478261,87,-0.424390243902439,
3707268,1992.1875,2096,-1.28510116492949,-15136,-9.28019619865113,-5184,3.17841814837523,-38,3.35365853658537,-55,2.31707317073171,39,-2.37804878048781,-70,0.304347826086957,40,0.173913043478261,87,-0.424390243902439,
3707908,2011.71875,2128,-1.30472103004292,-15136,-9.28019619865113,-5120,3.13917841814837,-67,3.78048780487805,-62,4.08536585365854,36,-2.19512195121951,-69,0.3,39,0.169565217391304,88,-0.429268292682927,
3708548,2031.25,2256,-1.38320049049663,-15200,-9.31943592887799,-5104,3.12936848559166,-77,3.71951219512195,-61,4.69512195121951,32,-1.95121951219512,-68,0.295652173913043,42,0.182608695652174,87,-0.424390243902439,
3709188,2050.78125,2336,-1.4322501532802,-15232,-9.33905579399141,-5088,3.11955855303495,-66,3.90243902439024,-64,4.02439024390244,32,-1.95121951219512,-67,0.291304347826087,38,0.165217391304348,87,-0.424390243902439,
3709828,2070.3125,2368,-1.45187001839362,-15232,-9.33905579399141,-5072,3.10974862047823,-36,3.53658536585366,-58,2.19512195121951,33,-2.01219512195122,-67,0.291304347826087,37,0.160869565217391,87,-0.424390243902439,
3710468,2089.84375,2400,-1.47148988350705,-15232,-9.33905579399141,-4976,3.05088902513795,-20,2.86585365853659,-47,1.21951219512195,33,-2.01219512195122,-70,0.304347826086957,44,0.191304347826087,89,-0.434146341463415,
3711108,2109.375,2352,-1.44206008583691,-15216,-9.3292458614347,-4944,3.03126916002452,-9,2.31707317073171,-38,0.548780487804878,31,-1.89024390243902,-70,0.304347826086957,45,0.195652173913043,88,-0.429268292682927,
3711748,2128.90625,2432,-1.49110974862048,-15200,-9.31943592887799,-4992,3.06069895769467,2,1.46341463414634,-24,-0.121951219512195,25,-1.52439024390244,-68,0.295652173913043,38,0.165217391304348,88,-0.429268292682927,
3712388,2148.4375,2432,-1.49110974862048,-15152,-9.29000613120785,-4880,2.99202942979767,20,0.792682926829268,-13,-1.21951219512195,20,-1.21951219512195,-68,0.295652173913043,39,0.169565217391304,89,-0.434146341463415,
3713028,2167.96875,2400,-1.47148988350705,-15120,-9.27038626609442,-4976,3.05088902513795,45,0.304878048780488,-5,-2.74390243902439,15,-0.914634146341463,-70,0.304347826086957,40,0.173913043478261,88,-0.429268292682927,
3713668,2187.5,2384,-1.46167995095034,-15120,-9.27038626609442,-5088,3.11955855303495,55,0.0609756097560976,-1,-3.35365853658537,9,-0.548780487804878,-69,0.3,43,0.18695652173913,88,-0.429268292682927,
3714308,2207.03125,2272,-1.39301042305334,-15136,-9.28019619865113,-5040,3.09012875536481,51,-0.24390243902439,4,-3.10975609756098,8,-0.487804878048781,-68,0.295652173913043,39,0.169565217391304,88,-0.429268292682927,
3714948,2226.5625,2176,-1.33415082771306,-15200,-9.31943592887799,-5104,3.12936848559166,39,0.121951219512195,-2,-2.37804878048781,3,-0.182926829268293,-69,0.3,39,0.169565217391304,88,-0.429268292682927,
3715588,2246.09375,2288,-1.40282035561006,-15264,-9.35867565910484,-5040,3.09012875536481,26,0.548780487804878,-9,-1.58536585365854,3,-0.182926829268293,-68,0.295652173913043,42,0.182608695652174,86,-0.419512195121951,
3716228,2265.625,2256,-1.38320049049663,-15264,-9.35867565910484,-5072,3.10974862047823,22,1.03658536585366,-17,-1.34146341463415,-2,0.121951219512195,-68,0.295652173913043,42,0.182608695652174,86,-0.419512195121951,
3716868,2285.15625,2208,-1.35377069282649,-15280,-9.36848559166156,-5104,3.12936848559166,6,1.95121951219512,-32,-0.365853658536585,-12,0.731707317073171,-70,0.304347826086957,40,0.173913043478261,88,-0.429268292682927,
3717508,2304.6875,2192,-1.34396076026977,-15280,-9.36848559166156,-5120,3.13917841814837,-16,2.31707317073171,-38,0.975609756097561,-21,1.28048780487805,-70,0.304347826086957,40,0.173913043478261,88,-0.429268292682927,
3718148,2324.21875,2192,-1.34396076026977,-15264,-9.35867565910484,-5088,3.11955855303495,-25,2.92682926829268,-48,1.52439024390244,-30,1.82926829268293,-67,0.291304347826087,42,0.182608695652174,87,-0.424390243902439,
3718788,2343.75,2304,-1.41263028816677,-15264,-9.35867565910484,-4992,3.06069895769467,-26,2.86585365853659,-47,1.58536585365854,-35,2.13414634146341,-68,0.295652173913043,41,0.178260869565217,86,-0.419512195121951,
3719428,2363.28125,2208,-1.35377069282649,-15264,-9.35867565910484,-4992,3.06069895769467,-5,3.04878048780488,-50,0.304878048780488,-33,2.01219512195122,-70,0.304347826086957,40,0.173913043478261,85,-0.414634146341463,
3720068,2382.8125,2128,-1.30472103004292,-15280,-9.36848559166156,-4912,3.0116492949111,-2,2.86585365853659,-47,0.121951219512195,-27,1.64634146341463,-71,0.308695652173913,39,0.169565217391304,87,-0.424390243902439,
3720708,2402.34375,2112,-1.2949110974862,-15232,-9.33905579399141,-4880,2.99202942979767,6,2.4390243902439,-40,-0.365853658536585,-20,1.21951219512195,-68,0.295652173913043,39,0.169565217391304,87,-0.424390243902439,
3721348,2421.875,2144,-1.31453096259963,-15200,-9.31943592887799,-4896,3.00183936235438,16,1.89024390243902,-31,-0.975609756097561,-18,1.09756097560976,-68,0.295652173913043,44,0.191304347826087,85,-0.414634146341463,
3721988,2441.40625,2112,-1.2949110974862,-15264,-9.35867565910484,-4848,2.97240956468424,31,1.64634146341463,-27,-1.89024390243902,-13,0.792682926829268,-69,0.3,45,0.195652173913043,88,-0.429268292682927,
3722628,2460.9375,2064,-1.26548129981606,-15264,-9.35867565910484,-4912,3.0116492949111,38,1.89024390243902,-31,-2.31707317073171,-11,0.670731707317073,-70,0.304347826086957,44,0.191304347826087,87,-0.424390243902439,
3723268,2480.46875,2064,-1.26548129981606,-15280,-9.36848559166156,-4976,3.05088902513795,33,2.25609756097561,-37,-2.01219512195122,-11,0.670731707317073,-68,0.295652173913043,40,0.173913043478261,86,-0.419512195121951,
3723908,2500,2096,-1.28510116492949,-15376,-9.42734518700184,-5040,3.09012875536481,21,2.4390243902439,-40,-1.28048780487805,-16,0.975609756097561,-70,0.304347826086957,40,0.173913043478261,87,-0.424390243902439,
3724548,2519.53125,2112,-1.2949110974862,-15376,-9.42734518700184,-4960,3.04107909258124,12,2.92682926829268,-48,-0.731707317073171,-15,0.914634146341463,-70,0.304347826086957,45,0.195652173913043,86,-0.419512195121951,
3725188,2539.0625,2112,-1.2949110974862,-15360,-9.41753525444513,-4992,3.06069895769467,5,3.41463414634146,-56,-0.304878048780488,-18,1.09756097560976,-69,0.3,42,0.182608695652174,85,-0.414634146341463,
3725828,2558.59375,2064,-1.26548129981606,-15328,-9.3979153893317,-4992,3.06069895769467,-6,3.90243902439024,-64,0.365853658536585,-19,1.15853658536585,-70,0.304347826086957,44,0.191304347826087,87,-0.424390243902439,
3726468,2578.125,2080,-1.27529123237278,-15264,-9.35867565910484,-4944,3.03126916002452,-15,3.90243902439024,-64,0.914634146341463,-16,0.975609756097561,-68,0.295652173913043,39,0.169565217391304,87,-0.424390243902439,
3727108,2597.65625,2112,-1.2949110974862,-15232,-9.33905579399141,-4800,2.9429797670141,-21,4.14634146341463,-68,1.28048780487805,-12,0.731707317073171,-68,0.295652173913043,42,0.182608695652174,86,-0.419512195121951,
3727748,2617.1875,2160,-1.32434089515635,-15312,-9.38810545677498,-4800,2.9429797670141,-24,3.78048780487805,-62,1.46341463414634,-12,0.731707317073171,-68,0.295652173913043,42,0.182608695652174,86,-0.419512195121951,
3728388,2636.71875,2160,-1.32434089515635,-15344,-9.40772532188841,-4880,2.99202942979767,-19,3.90243902439024,-64,1.15853658536585,-8,0.487804878048781,-68,0.295652173913043,41,0.178260869565217,88,-0.429268292682927,
3729028,2656.25,2208,-1.35377069282649,-15296,-9.37829552421827,-4736,2.90374003678725,-13,3.59756097560976,-59,0.792682926829268,-9,0.548780487804878,-70,0.304347826086957,39,0.169565217391304,87,-0.424390243902439,
3729668,2675.78125,2192,-1.34396076026977,-15280,-9.36848559166156,-4784,2.93316983445739,-8,3.35365853658537,-55,0.487804878048781,-7,0.426829268292683,-69,0.3,42,0.182608695652174,86,-0.419512195121951,
3730308,2695.3125,2192,-1.34396076026977,-15232,-9.33905579399141,-4880,2.99202942979767,-7,3.10975609756098,-51,0.426829268292683,-11,0.670731707317073,-68,0.295652173913043,41,0.178260869565217,87,-0.424390243902439,
3730948,2714.84375,2176,-1.33415082771306,-15232,-9.33905579399141,-4816,2.95278969957082,-4,3.04878048780488,-50,0.24390243902439,-11,0.670731707317073,-70,0.304347826086957,40,0.173913043478261,87,-0.424390243902439,
3731588,2734.375,2176,-1.33415082771306,-15280,-9.36848559166156,-4768,2.92335990190067,-2,2.80487804878049,-46,0.121951219512195,-12,0.731707317073171,-69,0.3,39,0.169565217391304,87,-0.424390243902439,
3732228,2753.90625,2192,-1.34396076026977,-15328,-9.3979153893317,-4848,2.97240956468424,-2,2.68292682926829,-44,0.121951219512195,-11,0.670731707317073,-67,0.291304347826087,40,0.173913043478261,86,-0.419512195121951,
3732868,2773.4375,2144,-1.31453096259963,-15296,-9.37829552421827,-4992,3.06069895769467,-6,2.68292682926829,-44,0.365853658536585,-9,0.548780487804878,-68,0.295652173913043,39,0.169565217391304,86,-0.419512195121951,
3733508,2792.96875,2176,-1.33415082771306,-15344,-9.40772532188841,-4976,3.05088902513795,-9,2.80487804878049,-46,0.548780487804878,-9,0.548780487804878,-69,0.3,42,0.182608695652174,87,-0.424390243902439,
3734148,2812.5,2192,-1.34396076026977,-15312,-9.38810545677498,-4928,3.02145922746781,-8,2.98780487804878,-49,0.487804878048781,-10,0.609756097560976,-70,0.304347826086957,43,0.18695652173913,87,-0.424390243902439,
3734788,2832.03125,2160,-1.32434089515635,-15280,-9.36848559166156,-4976,3.05088902513795,-9,3.41463414634146,-56,0.548780487804878,-13,0.792682926829268,-72,0.31304347826087,41,0.178260869565217,87,-0.424390243902439,
3735428,2851.5625,2160,-1.32434089515635,-15280,-9.36848559166156,-5024,3.08031882280809,-8,3.41463414634146,-56,0.487804878048781,-14,0.853658536585366,-70,0.304347826086957,39,0.169565217391304,87,-0.424390243902439,
3736068,2871.09375,2224,-1.3635806253832,-15296,-9.37829552421827,-5040,3.09012875536481,-6,3.47560975609756,-57,0.365853658536585,-10,0.609756097560976,-70,0.304347826086957,44,0.191304347826087,88,-0.429268292682927,
3736708,2890.625,2176,-1.33415082771306,-15264,-9.35867565910484,-5024,3.08031882280809,-3,3.65853658536585,-60,0.182926829268293,-4,0.24390243902439,-69,0.3,43,0.18695652173913,88,-0.429268292682927,
3737348,2910.15625,2176,-1.33415082771306,-15280,-9.36848559166156,-4992,3.06069895769467,3,3.65853658536585,-60,-0.182926829268293,-2,0.121951219512195,-68,0.295652173913043,41,0.178260869565217,88,-0.429268292682927,
3737988,2929.6875,2160,-1.32434089515635,-15280,-9.36848559166156,-5120,3.13917841814837,6,3.71951219512195,-61,-0.365853658536585,0,0,-69,0.3,43,0.18695652173913,86,-0.419512195121951,
3738628,2949.21875,2192,-1.34396076026977,-15264,-9.35867565910484,-5040,3.09012875536481,7,3.65853658536585,-60,-0.426829268292683,-1,0.0609756097560976,-72,0.31304347826087,46,0.2,86,-0.419512195121951,
3739268,2968.75,2192,-1.34396076026977,-15248,-9.34886572654813,-5024,3.08031882280809,14,3.53658536585366,-58,-0.853658536585366,-5,0.304878048780488,-68,0.295652173913043,39,0.169565217391304,88,-0.429268292682927,
3739908,2988.28125,2240,-1.37339055793991,-15216,-9.3292458614347,-5072,3.10974862047823,19,3.41463414634146,-56,-1.15853658536585,1,-0.0609756097560976,-69,0.3,45,0.195652173913043,87,-0.424390243902439,
3740548,3007.8125,2192,-1.34396076026977,-15328,-9.3979153893317,-5072,3.10974862047823,27,3.71951219512195,-61,-1.64634146341463,3,-0.182926829268293,-68,0.295652173913043,43,0.18695652173913,87,-0.424390243902439,
3741188,3027.34375,2240,-1.37339055793991,-15216,-9.3292458614347,-5056,3.09993868792152,30,3.65853658536585,-60,-1.82926829268293,1,-0.0609756097560976,-67,0.291304347826087,43,0.18695652173913,86,-0.419512195121951,
3741828,3046.875,2240,-1.37339055793991,-15280,-9.36848559166156,-5008,3.07050889025138,33,3.96341463414634,-65,-2.01219512195122,1,-0.0609756097560976,-70,0.304347826086957,39,0.169565217391304,87,-0.424390243902439,
3742468,3066.40625,2208,-1.35377069282649,-15360,-9.41753525444513,-5024,3.08031882280809,21,4.08536585365854,-67,-1.28048780487805,0,0,-70,0.304347826086957,40,0.173913043478261,88,-0.429268292682927,
3743108,3085.9375,2224,-1.3635806253832,-15280,-9.36848559166156,-5088,3.11955855303495,24,4.39024390243902,-72,-1.46341463414634,-6,0.365853658536585,-68,0.295652173913043,42,0.182608695652174,88,-0.429268292682927,
3743748,3105.46875,2208,-1.35377069282649,-15328,-9.3979153893317,-5056,3.09993868792152,23,4.69512195121951,-77,-1.40243902439024,-11,0.670731707317073,-67,0.291304347826087,41,0.178260869565217,87,-0.424390243902439,
3744388,3125,2224,-1.3635806253832,-15216,-9.3292458614347,-4992,3.06069895769467,20,4.75609756097561,-78,-1.21951219512195,-15,0.914634146341463,-68,0.295652173913043,38,0.165217391304348,89,-0.434146341463415,
3745028,3144.53125,2128,-1.30472103004292,-15232,-9.33905579399141,-4992,3.06069895769467,16,5.18292682926829,-85,-0.975609756097561,-17,1.03658536585366,-68,0.295652173913043,38,0.165217391304348,89,-0.434146341463415,
3745668,3164.0625,2096,-1.28510116492949,-15232,-9.33905579399141,-5056,3.09993868792152,7,5.0609756097561,-83,-0.426829268292683,-14,0.853658536585366,-67,0.291304347826087,39,0.169565217391304,87,-0.424390243902439,
3746308,3183.59375,2160,-1.32434089515635,-15280,-9.36848559166156,-5120,3.13917841814837,4,4.57317073170732,-75,-0.24390243902439,-10,0.609756097560976,-67,0.291304347826087,37,0.160869565217391,87,-0.424390243902439,
3746948,3203.125,2224,-1.3635806253832,-15280,-9.36848559166156,-5072,3.10974862047823,21,4.57317073170732,-75,-1.28048780487805,-6,0.365853658536585,-66,0.28695652173913,42,0.182608695652174,89,-0.434146341463415,
3747588,3222.65625,2192,-1.34396076026977,-15216,-9.3292458614347,-5056,3.09993868792152,38,4.57317073170732,-75,-2.31707317073171,-8,0.487804878048781,-67,0.291304347826087,42,0.182608695652174,90,-0.439024390243902,
3748228,3242.1875,2112,-1.2949110974862,-15168,-9.29981606376456,-4992,3.06069895769467,36,4.81707317073171,-79,-2.19512195121951,-8,0.487804878048781,-65,0.282608695652174,38,0.165217391304348,89,-0.434146341463415,
3748868,3261.71875,2112,-1.2949110974862,-15280,-9.36848559166156,-5104,3.12936848559166,15,4.81707317073171,-79,-0.914634146341463,-14,0.853658536585366,-66,0.28695652173913,37,0.160869565217391,89,-0.434146341463415,
3749508,3281.25,2192,-1.34396076026977,-15232,-9.33905579399141,-5120,3.13917841814837,4,4.63414634146342,-76,-0.24390243902439,-15,0.914634146341463,-67,0.291304347826087,40,0.173913043478261,90,-0.439024390243902,
3750148,3300.78125,2240,-1.37339055793991,-15216,-9.3292458614347,-5072,3.10974862047823,8,4.51219512195122,-74,-0.487804878048781,-16,0.975609756097561,-66,0.28695652173913,39,0.169565217391304,87,-0.424390243902439,
3750788,3320.3125,2240,-1.37339055793991,-15200,-9.31943592887799,-5072,3.10974862047823,13,4.20731707317073,-69,-0.792682926829268,-13,0.792682926829268,-68,0.295652173913043,37,0.160869565217391,89,-0.434146341463415,
3751428,3339.84375,2208,-1.35377069282649,-15120,-9.27038626609442,-5104,3.12936848559166,19,4.20731707317073,-69,-1.15853658536585,-15,0.914634146341463,-66,0.28695652173913,38,0.165217391304348,88,-0.429268292682927,
3752068,3359.375,2224,-1.3635806253832,-15136,-9.28019619865113,-5040,3.09012875536481,18,3.71951219512195,-61,-1.09756097560976,-14,0.853658536585366,-65,0.282608695652174,40,0.173913043478261,88,-0.429268292682927,
3752708,3378.90625,2208,-1.35377069282649,-15072,-9.24095646842428,-5072,3.10974862047823,12,3.41463414634146,-56,-0.731707317073171,-14,0.853658536585366,-65,0.282608695652174,40,0.173913043478261,87,-0.424390243902439,
3753348,3398.4375,2288,-1.40282035561006,-15072,-9.24095646842428,-5072,3.10974862047823,17,2.98780487804878,-49,-1.03658536585366,-16,0.975609756097561,-66,0.28695652173913,40,0.173913043478261,90,-0.439024390243902,
3753988,3417.96875,2416,-1.48129981606376,-15120,-9.27038626609442,-5008,3.07050889025138,18,2.25609756097561,-37,-1.09756097560976,-15,0.914634146341463,-67,0.291304347826087,39,0.169565217391304,88,-0.429268292682927,
3754628,3437.5,2480,-1.52053954629062,-15136,-9.28019619865113,-5040,3.09012875536481,29,1.76829268292683,-29,-1.76829268292683,-17,1.03658536585366,-67,0.291304347826087,40,0.173913043478261,89,-0.434146341463415,
3755268,3457.03125,2608,-1.59901900674433,-15168,-9.29981606376456,-5248,3.21765787860208,37,1.15853658536585,-19,-2.25609756097561,-22,1.34146341463415,-64,0.278260869565217,38,0.165217391304348,89,-0.434146341463415,
3755908,3476.5625,2832,-1.73635806253832,-15264,-9.35867565910484,-5472,3.35499693439608,35,0,0,-2.13414634146341,-40,2.4390243902439,-67,0.291304347826087,37,0.160869565217391,89,-0.434146341463415,
3756548,3496.09375,3216,-1.97179644389945,-15280,-9.36848559166156,-5808,3.56100551808706,50,-1.15853658536585,19,-3.04878048780488,-60,3.65853658536585,-66,0.28695652173913,39,0.169565217391304,89,-0.434146341463415,
3757188,3515.625,3760,-2.30533415082771,-15120,-9.27038626609442,-6128,3.75720416922134,130,-1.82926829268293,30,-7.92682926829268,-101,6.15853658536585,-65,0.282608695652174,36,0.156521739130435,88,-0.429268292682927,
3757828,3535.15625,4368,-2.67811158798283,-14848,-9.10361741263029,-6768,4.14960147148988,364,-1.82926829268293,30,-22.1951219512195,-140,8.53658536585366,-68,0.295652173913043,37,0.160869565217391,86,-0.419512195121951,
3758468,3554.6875,4352,-2.66830165542612,-14640,-8.97608828939301,-7856,4.81667688534641,737,-1.15853658536585,19,-44.9390243902439,-161,9.81707317073171,-67,0.291304347826087,41,0.178260869565217,88,-0.429268292682927,
3759108,3574.21875,3488,-2.13856529736358,-14864,-9.113427345187,-8720,5.34641324340895,1046,2.86585365853659,-47,-63.7804878048781,-153,9.32926829268293,-65,0.282608695652174,41,0.178260869565217,86,-0.419512195121951,
3759748,3593.75,2352,-1.44206008583691,-15040,-9.22133660331085,-9520,5.83690987124464,1068,9.87804878048781,-162,-65.1219512195122,-146,8.90243902439025,-63,0.273913043478261,36,0.156521739130435,86,-0.419512195121951,
3760388,3613.28125,1696,-1.03985285101165,-15376,-9.42734518700184,-10720,6.57265481299816,872,17.5609756097561,-288,-53.1707317073171,-134,8.17073170731707,-60,0.260869565217391,40,0.173913043478261,85,-0.414634146341463,
3761028,3632.8125,1824,-1.11833231146536,-15584,-9.55487431023912,-11744,7.20049049662784,609,27.5,-451,-37.1341463414634,-134,8.17073170731707,-59,0.256521739130435,37,0.160869565217391,87,-0.424390243902439,
3761668,3652.34375,2144,-1.31453096259963,-16064,-9.84917228694053,-12480,7.65174739423666,476,38.5365853658537,-632,-29.0243902439024,-122,7.4390243902439,-54,0.234782608695652,35,0.152173913043478,87,-0.424390243902439,
3762308,3671.875,2096,-1.28510116492949,-16256,-9.96689147762109,-12848,7.87737584304108,398,52.3780487804878,-859,-24.2682926829268,-100,6.09756097560976,-52,0.226086956521739,36,0.156521739130435,90,-0.439024390243902,
3762948,3691.40625,2240,-1.37339055793991,-16416,-10.0649908031882,-13296,8.15205395462906,301,64.7560975609756,-1062,-18.3536585365854,-112,6.82926829268293,-47,0.204347826086957,31,0.134782608695652,95,-0.463414634146341,
3763588,3710.9375,2256,-1.38320049049663,-16880,-10.3494788473329,-13696,8.3973022685469,205,76.3414634146341,-1252,-12.5,-129,7.86585365853659,-43,0.18695652173913,33,0.143478260869565,97,-0.473170731707317,
3764228,3730.46875,2528,-1.54996934396076,-17216,-10.5554874310239,-13728,8.41692213366033,109,87.8048780487805,-1440,-6.64634146341464,-169,10.3048780487805,-39,0.169565217391304,32,0.139130434782609,103,-0.502439024390244,
3764868,3750,3136,-1.92274678111588,-17424,-10.6830165542612,-13456,8.2501532801962,97,98.5365853658537,-1616,-5.91463414634146,-222,13.5365853658537,-42,0.182608695652174,31,0.134782608695652,105,-0.51219512195122,
3765508,3769.53125,3392,-2.0797057020233,-17600,-10.790925812385,-13488,8.26977314530963,216,107.378048780488,-1761,-13.1707317073171,-268,16.3414634146341,-39,0.169565217391304,26,0.11304347826087,115,-0.560975609756098,
3766148,3789.0625,3168,-1.94236664622931,-17680,-10.8399754751686,-13296,8.15205395462906,359,116.890243902439,-1917,-21.890243902439,-300,18.2926829268293,-37,0.160869565217391,26,0.11304347826087,115,-0.560975609756098,
3766788,3808.59375,3072,-1.88350705088903,-17552,-10.7614960147149,-13008,7.97547516860822,381,122.743902439024,-2013,-23.2317073170732,-330,20.1219512195122,-36,0.156521739130435,29,0.126086956521739,122,-0.595121951219512,
3767428,3828.125,2880,-1.76578786020846,-17232,-10.5652973635806,-13056,8.00490496627836,365,127.5,-2091,-22.2560975609756,-337,20.5487804878049,-35,0.152173913043478,24,0.104347826086957,123,-0.6,
3768068,3847.65625,2960,-1.81483752299203,-16768,-10.2808093194359,-12896,7.90680564071122,299,131.524390243902,-2157,-18.2317073170732,-313,19.0853658536585,-34,0.147826086956522,24,0.104347826086957,128,-0.624390243902439,
3768708,3867.1875,3344,-2.05027590435316,-16256,-9.96689147762109,-12672,7.76946658491723,240,133.536585365854,-2190,-14.6341463414634,-284,17.3170731707317,-33,0.143478260869565,22,0.0956521739130435,130,-0.634146341463415,
3769348,3886.71875,3296,-2.02084610668302,-15776,-9.67259350091968,-12816,7.85775597792765,287,135.243902439024,-2218,-17.5,-256,15.609756097561,-32,0.139130434782609,14,0.0608695652173913,136,-0.663414634146342,
3769988,3906.25,3056,-1.87369711833231,-15248,-9.34886572654813,-12656,7.75965665236051,312,137.378048780488,-2253,-19.0243902439024,-234,14.2682926829268,-33,0.143478260869565,16,0.0695652173913043,138,-0.673170731707317,
3770628,3925.78125,2992,-1.83445738810546,-14544,-8.91722869405273,-12352,7.57326793378295,295,138.292682926829,-2268,-17.9878048780488,-235,14.3292682926829,-31,0.134782608695652,12,0.0521739130434783,142,-0.692682926829268,
3771268,3945.3125,3152,-1.93255671367259,-14112,-8.65236051502146,-12480,7.65174739423666,249,136.951219512195,-2246,-15.1829268292683,-240,14.6341463414634,-31,0.134782608695652,5,0.0217391304347826,143,-0.697560975609756,
3771908,3964.84375,3328,-2.04046597179644,-13296,-8.15205395462906,-12272,7.52421827099939,239,136.463414634146,-2238,-14.5731707317073,-241,14.6951219512195,-32,0.139130434782609,7,0.0304347826086957,144,-0.702439024390244,
3772548,3984.375,3456,-2.11894543225015,-12576,-7.71060698957695,-11952,7.32801961986511,301,133.414634146341,-2188,-18.3536585365854,-234,14.2682926829268,-30,0.130434782608696,1,0.00434782608695652,147,-0.717073170731707,
3773188,4003.90625,3200,-1.96198651134273,-11776,-7.22011036174126,-11968,7.33782955242183,436,128.780487804878,-2112,-26.5853658536585,-269,16.4024390243902,-28,0.121739130434783,-4,-0.0173913043478261,148,-0.721951219512195,
3773828,4023.4375,2848,-1.74616799509503,-11088,-6.79828326180257,-12000,7.35744941753525,530,125.914634146341,-2065,-32.3170731707317,-250,15.2439024390244,-27,0.117391304347826,-6,-0.0260869565217391,149,-0.726829268292683,
3774468,4042.96875,2544,-1.55977927651747,-10352,-6.34702636419375,-12176,7.4653586756591,605,121.890243902439,-1999,-36.890243902439,-289,17.6219512195122,-29,0.126086956521739,-4,-0.0173913043478261,148,-0.721951219512195,
3775108,4062.5,2144,-1.31453096259963,-9216,-5.65052115266707,-12352,7.57326793378295,698,119.207317073171,-1955,-42.5609756097561,-309,18.8414634146341,-27,0.117391304347826,-9,-0.0391304347826087,150,-0.731707317073171,
3775748,4082.03125,1808,-1.10852237890864,-8512,-5.21888412017167,-12544,7.69098712446352,749,116.09756097561,-1904,-45.6707317073171,-303,18.4756097560976,-24,0.104347826086957,-14,-0.0608695652173913,152,-0.741463414634146,
3776388,4101.5625,1232,-0.755364806866953,-7632,-4.67933782955242,-12688,7.77927651747394,811,111.890243902439,-1835,-49.4512195121951,-260,15.8536585365854,-23,0.1,-17,-0.0739130434782609,150,-0.731707317073171,
3777028,4121.09375,720,-0.441446965052115,-6560,-4.02207234825261,-12592,7.72041692213366,826,110.426829268293,-1811,-50.3658536585366,-213,12.9878048780488,-20,0.0869565217391304,-18,-0.0782608695652174,151,-0.736585365853659,
3777668,4140.625,256,-0.156958920907419,-6368,-3.90435315757204,-12336,7.56345800122624,787,105.975609756098,-1738,-47.9878048780488,-143,8.71951219512195,-19,0.0826086956521739,-20,-0.0869565217391304,150,-0.731707317073171,
3778308,4160.15625,-144,0.088289393010423,-5760,-3.53157572041692,-12128,7.43592887798896,704,100.853658536585,-1654,-42.9268292682927,-111,6.76829268292683,-17,0.0739130434782609,-26,-0.11304347826087,151,-0.736585365853659,
3778948,4179.6875,-416,0.255058246474555,-5232,-3.20784794604537,-11968,7.33782955242183,639,95.9146341463415,-1573,-38.9634146341463,-81,4.9390243902439,-17,0.0739130434782609,-28,-0.121739130434783,150,-0.731707317073171,
3779588,4199.21875,-816,0.500306560392397,-4352,-2.66830165542612,-11840,7.25935009196812,598,91.7073170731707,-1504,-36.4634146341463,-74,4.51219512195122,-14,0.0608695652173913,-28,-0.121739130434783,148,-0.721951219512195,
3780228,4218.75,-384,0.235438381361128,-3776,-2.31514408338443,-11696,7.17106069895769,539,86.2804878048781,-1415,-32.8658536585366,-62,3.78048780487805,-12,0.0521739130434783,-35,-0.152173913043478,149,-0.726829268292683,
3780868,4238.28125,-224,0.137339055793991,-3184,-1.95217657878602,-11376,6.97486204782342,569,79.0853658536585,-1297,-34.6951219512195,-62,3.78048780487805,-12,0.0521739130434783,-32,-0.139130434782609,149,-0.726829268292683,
3781508,4257.8125,-864,0.529736358062538,-2464,-1.51072961373391,-11200,6.86695278969957,727,74.1463414634146,-1216,-44.3292682926829,-35,2.13414634146341,-12,0.0521739130434783,-35,-0.152173913043478,146,-0.712195121951219,
3782148,4277.34375,-1328,0.814224402207235,-1680,-1.03004291845494,-11104,6.80809319435929,762,62.8048780487805,-1030,-46.4634146341463,-22,1.34146341463415,-10,0.0434782608695652,-34,-0.147826086956522,145,-0.707317073170732,
3782788,4296.875,-1760,1.0790925812385,-1232,-0.755364806866953,-10832,6.64132434089516,665,57.2560975609756,-939,-40.5487804878049,-36,2.19512195121951,-7,0.0304347826086957,-42,-0.182608695652174,145,-0.707317073170732,
3783428,4316.40625,-2096,1.28510116492949,-784,-0.48068669527897,-10560,6.47455548743102,533,51.4634146341463,-844,-32.5,-50,3.04878048780488,-6,0.0260869565217391,-41,-0.178260869565217,143,-0.697560975609756,
3784068,4335.9375,-2080,1.27529123237278,-336,-0.206008583690987,-10256,6.28816676885346,412,44.9390243902439,-737,-25.1219512195122,-52,3.17073170731707,-3,0.0130434782608696,-43,-0.18695652173913,142,-0.692682926829268,
3784708,4355.46875,-2080,1.27529123237278,160,0.0980993255671367,-9808,6.01348865726548,300,37.1341463414634,-609,-18.2926829268293,-47,2.86585365853659,-4,0.0173913043478261,-39,-0.169565217391304,141,-0.68780487804878,
3785348,4375,-1952,1.19681177191907,640,0.392397302268547,-9840,6.03310852237891,241,28.109756097561,-461,-14.6951219512195,-37,2.25609756097561,-1,0.00434782608695652,-46,-0.2,142,-0.692682926829268,
3785988,4394.53125,-1872,1.1477621091355,976,0.598405885959534,-9936,6.09196811771919,245,19.8780487804878,-326,-14.9390243902439,-22,1.34146341463415,0,0,-43,-0.18695652173913,141,-0.68780487804878,
3786628,4414.0625,-1840,1.12814224402207,1280,0.784794604537094,-10208,6.25873697118332,272,11.3414634146341,-186,-16.5853658536585,-14,0.853658536585366,-1,0.00434782608695652,-45,-0.195652173913043,140,-0.682926829268293,
3787268,4433.59375,-2080,1.27529123237278,1600,0.980993255671367,-11120,6.817903126916,330,3.84146341463415,-63,-20.1219512195122,-5,0.304878048780488,-3,0.0130434782608696,-46,-0.2,141,-0.68780487804878,
3787908,4453.125,-2448,1.50091968117719,1712,1.04966278356836,-12064,7.39668914776211,325,-1.76829268292683,29,-19.8170731707317,-8,0.487804878048781,-2,0.00869565217391304,-48,-0.208695652173913,140,-0.682926829268293,
3788548,4472.65625,-2544,1.55977927651747,1504,0.922133660331085,-13216,8.10300429184549,290,-5.67073170731707,93,-17.6829268292683,0,0,1,-0.00434782608695652,-46,-0.2,139,-0.678048780487805,
3789188,4492.1875,-2848,1.74616799509503,1248,0.765174739423666,-14272,8.7504598405886,248,-6.58536585365854,108,-15.1219512195122,3,-0.182926829268293,1,-0.00434782608695652,-46,-0.2,138,-0.673170731707317,
3789828,4511.71875,-3152,1.93255671367259,1040,0.637645616186389,-14992,9.19190680564071,138,-5.79268292682927,95,-8.41463414634146,-2,0.121951219512195,-1,0.00434782608695652,-46,-0.2,137,-0.668292682926829,
3790468,4531.25,-3200,1.96198651134273,848,0.519926425505825,-15744,9.65297363580625,44,-4.9390243902439,81,-2.68292682926829,-11,0.670731707317073,0,0,-46,-0.2,139,-0.678048780487805,
3791108,4550.78125,-3088,1.89331698344574,784,0.48068669527897,-16192,9.92765174739424,-20,-3.23170731707317,53,1.21951219512195,-8,0.487804878048781,-2,0.00869565217391304,-42,-0.182608695652174,138,-0.673170731707317,
3791748,4570.3125,-3120,1.91293684855917,880,0.539546290619252,-16512,10.1238503985285,-55,-1.89024390243902,31,3.35365853658537,6,-0.365853658536585,1,-0.00434782608695652,-42,-0.182608695652174,138,-0.673170731707317,
3792388,4589.84375,-2896,1.77559779276517,912,0.559166155732679,-16784,10.2906192519926,-53,-1.52439024390244,25,3.23170731707317,20,-1.21951219512195,-1,0.00434782608695652,-42,-0.182608695652174,138,-0.673170731707317,
3793028,4609.375,-2768,1.69711833231147,864,0.529736358062538,-16880,10.3494788473329,25,-1.15853658536585,19,-1.52439024390244,42,-2.5609756097561,-1,0.00434782608695652,-40,-0.173913043478261,138,-0.673170731707317,
3793668,4628.90625,-2736,1.67749846719804,864,0.529736358062538,-17024,10.4377682403433,128,-0.304878048780488,5,-7.80487804878049,60,-3.65853658536585,-2,0.00869565217391304,-39,-0.169565217391304,137,-0.668292682926829,
3794308,4648.4375,-2848,1.74616799509503,832,0.510116492949111,-17040,10.4475781729001,219,0.487804878048781,-8,-13.3536585365854,71,-4.32926829268293,1,-0.00434782608695652,-47,-0.204347826086957,139,-0.678048780487805,
3794948,4667.96875,-3088,1.89331698344574,752,0.461066830165543,-16944,10.3887185775598,252,2.13414634146341,-35,-15.3658536585366,80,-4.87804878048781,-2,0.00869565217391304,-44,-0.191304347826087,137,-0.668292682926829,
3795588,4687.5,-3392,2.0797057020233,688,0.421827099938688,-16720,10.2513795217658,208,3.84146341463415,-63,-12.6829268292683,75,-4.57317073170732,0,0,-42,-0.182608695652174,136,-0.663414634146342,
3796228,4707.03125,-3568,2.18761496014715,704,0.431637032495402,-16512,10.1238503985285,133,4.87804878048781,-80,-8.10975609756098,61,-3.71951219512195,2,-0.00869565217391304,-45,-0.195652173913043,137,-0.668292682926829,
3796868,4726.5625,-3472,2.12875536480687,704,0.431637032495402,-16528,10.1336603310852,83,6.70731707317073,-110,-5.0609756097561,47,-2.86585365853659,1,-0.00434782608695652,-47,-0.204347826086957,138,-0.673170731707317,
3797508,4746.09375,-3392,2.0797057020233,784,0.48068669527897,-16400,10.0551808706315,62,7.6219512195122,-125,-3.78048780487805,40,-2.4390243902439,0,0,-42,-0.182608695652174,135,-0.658536585365854,
3798148,4765.625,-3312,2.03065603923973,880,0.539546290619252,-16240,9.95708154506438,60,8.41463414634146,-138,-3.65853658536585,46,-2.80487804878049,1,-0.00434782608695652,-43,-0.18695652173913,136,-0.663414634146342,
3798788,4785.15625,-3296,2.02084610668302,1104,0.676885346413243,-16032,9.8295524218271,63,8.17073170731707,-134,-3.84146341463415,57,-3.47560975609756,0,0,-43,-0.18695652173913,135,-0.658536585365854,
3799428,4804.6875,-3088,1.89331698344574,1088,0.66707541385653,-15952,9.78050275904353,77,8.04878048780488,-132,-4.69512195121951,67,-4.08536585365854,1,-0.00434782608695652,-46,-0.2,135,-0.658536585365854,
3800068,4824.21875,-3136,1.92274678111588,1136,0.696505211526671,-15776,9.67259350091968,75,7.68292682926829,-126,-4.57317073170732,66,-4.02439024390244,4,-0.0173913043478261,-45,-0.195652173913043,136,-0.663414634146342,
3800708,4843.75,-3088,1.89331698344574,1120,0.686695278969957,-15600,9.56468424279583,72,7.19512195121951,-118,-4.39024390243902,63,-3.84146341463415,2,-0.00869565217391304,-47,-0.204347826086957,135,-0.658536585365854,
3801348,4863.28125,-3056,1.87369711833231,1168,0.716125076640098,-15424,9.45677498467198,86,7.01219512195122,-115,-5.24390243902439,56,-3.41463414634146,1,-0.00434782608695652,-48,-0.208695652173913,137,-0.668292682926829,
3801988,4882.8125,-3136,1.92274678111588,1184,0.725935009196812,-15392,9.43715511955855,77,6.76829268292683,-111,-4.69512195121951,46,-2.80487804878049,2,-0.00869565217391304,-49,-0.21304347826087,136,-0.663414634146342,
3802628,4902.34375,-3184,1.95217657878602,1120,0.686695278969957,-15328,9.3979153893317,52,6.76829268292683,-111,-3.17073170731707,29,-1.76829268292683,2,-0.00869565217391304,-43,-0.18695652173913,136,-0.663414634146342,
3803268,4921.875,-3184,1.95217657878602,1232,0.755364806866953,-15392,9.43715511955855,30,6.09756097560976,-100,-1.82926829268293,14,-0.853658536585366,4,-0.0173913043478261,-49,-0.21304347826087,135,-0.658536585365854,
3803908,4941.40625,-3072,1.88350705088903,1248,0.765174739423666,-15440,9.46658491722869,41,6.21951219512195,-102,-2.5,9,-0.548780487804878,2,-0.00869565217391304,-45,-0.195652173913043,136,-0.663414634146342,
3804548,4960.9375,-3088,1.89331698344574,1232,0.755364806866953,-15456,9.47639484978541,44,5.73170731707317,-94,-2.68292682926829,9,-0.548780487804878,3,-0.0130434782608696,-46,-0.2,136,-0.663414634146342,
3805188,4980.46875,-3104,1.90312691600245,1280,0.784794604537094,-15488,9.49601471489883,37,5.36585365853659,-88,-2.25609756097561,2,-0.121951219512195,1,-0.00434782608695652,-45,-0.195652173913043,135,-0.658536585365854,
3805828,5000,-3136,1.92274678111588,1280,0.784794604537094,-15440,9.46658491722869,21,4.9390243902439,-81,-1.28048780487805,-10,0.609756097560976,2,-0.00869565217391304,-46,-0.2,136,-0.663414634146342,
3806468,5019.53125,-3296,2.02084610668302,1296,0.794604537093807,-15488,9.49601471489883,-9,4.69512195121951,-77,0.548780487804878,-20,1.21951219512195,2,-0.00869565217391304,-47,-0.204347826086957,136,-0.663414634146342,
3807108,5039.0625,-3056,1.87369711833231,1264,0.77498467198038,-15504,9.50582464745555,-5,4.45121951219512,-73,0.304878048780488,-33,2.01219512195122,4,-0.0173913043478261,-47,-0.204347826086957,135,-0.658536585365854,
3807748,5058.59375,-3136,1.92274678111588,1296,0.794604537093807,-15616,9.57449417535254,28,4.08536585365854,-67,-1.70731707317073,-35,2.13414634146341,4,-0.0173913043478261,-48,-0.208695652173913,134,-0.653658536585366,
3808388,5078.125,-3216,1.97179644389945,1440,0.88289393010423,-15552,9.53525444512569,42,3.96341463414634,-65,-2.5609756097561,-34,2.07317073170732,4,-0.0173913043478261,-47,-0.204347826086957,136,-0.663414634146342,
3809028,5097.65625,-3440,2.10913549969344,1456,0.892703862660944,-15600,9.56468424279583,35,3.59756097560976,-59,-2.13414634146341,-29,1.76829268292683,4,-0.0173913043478261,-45,-0.195652173913043,134,-0.653658536585366,
3809668,5117.1875,-3472,2.12875536480687,1520,0.931943592887799,-15632,9.58430410790926,26,2.98780487804878,-49,-1.58536585365854,-21,1.28048780487805,3,-0.0130434782608696,-44,-0.191304347826087,134,-0.653658536585366,
3810308,5136.71875,-3472,2.12875536480687,1536,0.941753525444513,-15648,9.59411404046597,32,2.68292682926829,-44,-1.95121951219512,-10,0.609756097560976,4,-0.0173913043478261,-49,-0.21304347826087,136,-0.663414634146342,
3810948,5156.25,-3536,2.16799509503372,1488,0.912323727774372,-15696,9.62354383813611,31,2.6219512195122,-43,-1.89024390243902,-4,0.24390243902439,3,-0.0130434782608696,-48,-0.208695652173913,135,-0.658536585365854,
3811588,5175.78125,-3584,2.19742489270386,1520,0.931943592887799,-15696,9.62354383813611,7,2.4390243902439,-40,-0.426829268292683,4,-0.24390243902439,3,-0.0130434782608696,-48,-0.208695652173913,136,-0.663414634146342,
3812228,5195.3125,-3568,2.18761496014715,1456,0.892703862660944,-15616,9.57449417535254,-7,2.25609756097561,-37,0.426829268292683,7,-0.426829268292683,0,0,-48,-0.208695652173913,135,-0.658536585365854,
3812868,5214.84375,-3552,2.17780502759044,1440,0.88289393010423,-15680,9.6137339055794,-18,2.13414634146341,-35,1.09756097560976,10,-0.609756097560976,2,-0.00869565217391304,-45,-0.195652173913043,135,-0.658536585365854,
3813508,5234.375,-3424,2.09932556713673,1392,0.853464132434089,-15760,9.66278356836297,-12,2.37804878048781,-39,0.731707317073171,17,-1.03658536585366,1,-0.00434782608695652,-43,-0.18695652173913,134,-0.653658536585366,
3814148,5253.90625,-3440,2.10913549969344,1328,0.814224402207235,-15904,9.75107296137339,-5,2.4390243902439,-40,0.304878048780488,19,-1.15853658536585,2,-0.00869565217391304,-44,-0.191304347826087,133,-0.648780487804878,
3814788,5273.4375,-3344,2.05027590435316,1344,0.824034334763949,-15872,9.73145309625996,-4,2.74390243902439,-45,0.24390243902439,17,-1.03658536585366,5,-0.0217391304347826,-49,-0.21304347826087,135,-0.658536585365854,
3815428,5292.96875,-3328,2.04046597179644,1312,0.804414469650521,-15872,9.73145309625996,-21,3.23170731707317,-53,1.28048780487805,12,-0.731707317073171,2,-0.00869565217391304,-44,-0.191304347826087,136,-0.663414634146342,
3816068,5312.5,-3248,1.99141630901288,1264,0.77498467198038,-15856,9.72164316370325,-26,3.53658536585366,-58,1.58536585365854,5,-0.304878048780488,4,-0.0173913043478261,-50,-0.217391304347826,135,-0.658536585365854,
3816708,5332.03125,-3136,1.92274678111588,1232,0.755364806866953,-15776,9.67259350091968,-13,3.84146341463415,-63,0.792682926829268,0,0,5,-0.0217391304347826,-51,-0.221739130434783,136,-0.663414634146342,
3817348,5351.5625,-3232,1.98160637645616,1376,0.843654199877376,-15696,9.62354383813611,-3,3.90243902439024,-64,0.182926829268293,-3,0.182926829268293,2,-0.00869565217391304,-45,-0.195652173913043,136,-0.663414634146342,
3817988,5371.09375,-3344,2.05027590435316,1392,0.853464132434089,-15712,9.63335377069283,-9,3.96341463414634,-65,0.548780487804878,-6,0.365853658536585,3,-0.0130434782608696,-46,-0.2,135,-0.658536585365854,
3818628,5390.625,-3264,2.00122624156959,1312,0.804414469650521,-15760,9.66278356836297,-12,3.65853658536585,-60,0.731707317073171,-10,0.609756097560976,3,-0.0130434782608696,-45,-0.195652173913043,135,-0.658536585365854,
3819268,5410.15625,-3264,2.00122624156959,1360,0.833844267320662,-15696,9.62354383813611,6,3.59756097560976,-59,-0.365853658536585,-12,0.731707317073171,2,-0.00869565217391304,-49,-0.21304347826087,135,-0.658536585365854,
3819908,5429.6875,-3376,2.06989576946658,1376,0.843654199877376,-15728,9.64316370324954,21,3.29268292682927,-54,-1.28048780487805,-15,0.914634146341463,1,-0.00434782608695652,-45,-0.195652173913043,134,-0.653658536585366,
3820548,5449.21875,-3408,2.08951563458001,1376,0.843654199877376,-15584,9.55487431023912,14,3.23170731707317,-53,-0.853658536585366,-17,1.03658536585366,4,-0.0173913043478261,-46,-0.2,135,-0.658536585365854,
3821188,5468.75,-3456,2.11894543225015,1376,0.843654199877376,-15584,9.55487431023912,18,2.80487804878049,-46,-1.09756097560976,-19,1.15853658536585,3,-0.0130434782608696,-49,-0.21304347826087,135,-0.658536585365854,
3821828,5488.28125,-3504,2.14837522992029,1360,0.833844267320662,-15520,9.51563458001226,26,2.74390243902439,-45,-1.58536585365854,-15,0.914634146341463,3,-0.0130434782608696,-49,-0.21304347826087,135,-0.658536585365854,
3822468,5507.8125,-3584,2.19742489270386,1360,0.833844267320662,-15488,9.49601471489883,21,2.5,-41,-1.28048780487805,-11,0.670731707317073,2,-0.00869565217391304,-45,-0.195652173913043,135,-0.658536585365854,
3823108,5527.34375,-3600,2.20723482526058,1392,0.853464132434089,-15520,9.51563458001226,-4,2.37804878048781,-39,0.24390243902439,-11,0.670731707317073,4,-0.0173913043478261,-47,-0.204347826086957,135,-0.658536585365854,
3823748,5546.875,-3536,2.16799509503372,1312,0.804414469650521,-15696,9.62354383813611,-15,2.25609756097561,-37,0.914634146341463,-8,0.487804878048781,2,-0.00869565217391304,-47,-0.204347826086957,134,-0.653658536585366,
3824388,5566.40625,-3440,2.10913549969344,1232,0.755364806866953,-15648,9.59411404046597,-11,2.19512195121951,-36,0.670731707317073,-4,0.24390243902439,2,-0.00869565217391304,-48,-0.208695652173913,133,-0.648780487804878,
3825028,5585.9375,-3408,2.08951563458001,1232,0.755364806866953,-15632,9.58430410790926,1,2.07317073170732,-34,-0.0609756097560976,4,-0.24390243902439,3,-0.0130434782608696,-48,-0.208695652173913,135,-0.658536585365854,
3825668,5605.46875,-3472,2.12875536480687,1280,0.784794604537094,-15712,9.63335377069283,3,2.13414634146341,-35,-0.182926829268293,7,-0.426829268292683,3,-0.0130434782608696,-45,-0.195652173913043,135,-0.658536585365854,
3826308,5625,-3488,2.13856529736358,1248,0.765174739423666,-15680,9.6137339055794,-6,2.01219512195122,-33,0.365853658536585,6,-0.365853658536585,3,-0.0130434782608696,-44,-0.191304347826087,135,-0.658536585365854,
3826948,5644.53125,-3472,2.12875536480687,1264,0.77498467198038,-15728,9.64316370324954,-8,2.07317073170732,-34,0.487804878048781,5,-0.304878048780488,3,-0.0130434782608696,-44,-0.191304347826087,135,-0.658536585365854,
3827588,5664.0625,-3440,2.10913549969344,1248,0.765174739423666,-15600,9.56468424279583,-7,2.25609756097561,-37,0.426829268292683,2,-0.121951219512195,-1,0.00434782608695652,-45,-0.195652173913043,135,-0.658536585365854,
3828228,5683.59375,-3440,2.10913549969344,1200,0.735744941753525,-15680,9.6137339055794,-4,1.95121951219512,-32,0.24390243902439,4,-0.24390243902439,2,-0.00869565217391304,-42,-0.182608695652174,133,-0.648780487804878,
3828868,5703.125,-3440,2.10913549969344,1296,0.794604537093807,-15712,9.63335377069283,4,2.01219512195122,-33,-0.24390243902439,1,-0.0609756097560976,2,-0.00869565217391304,-43,-0.18695652173913,135,-0.658536585365854,
3829508,5722.65625,-3456,2.11894543225015,1200,0.735744941753525,-15664,9.60392397302268,4,1.82926829268293,-30,-0.24390243902439,5,-0.304878048780488,3,-0.0130434782608696,-45,-0.195652173913043,136,-0.663414634146342,
3830148,5742.1875,-3504,2.14837522992029,1184,0.725935009196812,-15680,9.6137339055794,7,1.89024390243902,-31,-0.426829268292683,9,-0.548780487804878,3,-0.0130434782608696,-47,-0.204347826086957,135,-0.658536585365854,
3830788,5761.71875,-3472,2.12875536480687,1216,0.745554874310239,-15744,9.65297363580625,-10,1.95121951219512,-32,0.609756097560976,9,-0.548780487804878,5,-0.0217391304347826,-49,-0.21304347826087,137,-0.668292682926829,
3831428,5781.25,-3456,2.11894543225015,1248,0.765174739423666,-15744,9.65297363580625,-21,1.95121951219512,-32,1.28048780487805,7,-0.426829268292683,2,-0.00869565217391304,-45,-0.195652173913043,135,-0.658536585365854,
3832068,5800.78125,-3440,2.10913549969344,1200,0.735744941753525,-15728,9.64316370324954,-18,2.19512195121951,-36,1.09756097560976,8,-0.487804878048781,1,-0.00434782608695652,-45,-0.195652173913043,135,-0.658536585365854,
3832708,5820.3125,-3344,2.05027590435316,1200,0.735744941753525,-15728,9.64316370324954,-18,1.82926829268293,-30,1.09756097560976,7,-0.426829268292683,2,-0.00869565217391304,-44,-0.191304347826087,133,-0.648780487804878,
3833348,5839.84375,-3248,1.99141630901288,1200,0.735744941753525,-15824,9.70202329858982,-3,1.82926829268293,-30,0.182926829268293,3,-0.182926829268293,2,-0.00869565217391304,-45,-0.195652173913043,133,-0.648780487804878,
3833988,5859.375,-3328,2.04046597179644,1168,0.716125076640098,-15824,9.70202329858982,-3,2.13414634146341,-35,0.182926829268293,5,-0.304878048780488,1,-0.00434782608695652,-42,-0.182608695652174,135,-0.658536585365854,
3834628,5878.90625,-3328,2.04046597179644,1184,0.725935009196812,-15792,9.6824034334764,-13,2.37804878048781,-39,0.792682926829268,-1,0.0609756097560976,2,-0.00869565217391304,-43,-0.18695652173913,135,-0.658536585365854,
3835268,5898.4375,-3424,2.09932556713673,1136,0.696505211526671,-15776,9.67259350091968,-24,2.68292682926829,-44,1.46341463414634,-8,0.487804878048781,2,-0.00869565217391304,-46,-0.2,134,-0.653658536585366,
3835908,5917.96875,-3424,2.09932556713673,1136,0.696505211526671,-15760,9.66278356836297,-28,2.80487804878049,-46,1.70731707317073,-10,0.609756097560976,3,-0.0130434782608696,-49,-0.21304347826087,136,-0.663414634146342,
3836548,5937.5,-3376,2.06989576946658,1232,0.755364806866953,-15792,9.6824034334764,-23,2.74390243902439,-45,1.40243902439024,-6,0.365853658536585,4,-0.0173913043478261,-49,-0.21304347826087,136,-0.663414634146342,
3837188,5957.03125,-3296,2.02084610668302,1248,0.765174739423666,-15856,9.72164316370325,-11,2.68292682926829,-44,0.670731707317073,-4,0.24390243902439,1,-0.00434782608695652,-45,-0.195652173913043,133,-0.648780487804878,
3837828,5976.5625,-3328,2.04046597179644,1168,0.716125076640098,-15840,9.71183323114654,-4,2.6219512195122,-43,0.24390243902439,-2,0.121951219512195,2,-0.00869565217391304,-45,-0.195652173913043,135,-0.658536585365854,
3838468,5996.09375,-3392,2.0797057020233,1168,0.716125076640098,-15856,9.72164316370325,-7,2.92682926829268,-48,0.426829268292683,-3,0.182926829268293,3,-0.0130434782608696,-43,-0.18695652173913,136,-0.663414634146342,
3839108,6015.625,-3424,2.09932556713673,1072,0.657265481299816,-15824,9.70202329858982,-11,3.35365853658537,-55,0.670731707317073,-7,0.426829268292683,1,-0.00434782608695652,-50,-0.217391304347826,136,-0.663414634146342,
3839748,6035.15625,-3424,2.09932556713673,1056,0.647455548743102,-15776,9.67259350091968,-16,3.29268292682927,-54,0.975609756097561,-5,0.304878048780488,3,-0.0130434782608696,-49,-0.21304347826087,136,-0.663414634146342,
3840388,6054.6875,-3456,2.11894543225015,1072,0.657265481299816,-15728,9.64316370324954,-19,3.41463414634146,-56,1.15853658536585,-1,0.0609756097560976,3,-0.0130434782608696,-46,-0.2,136,-0.663414634146342,
3841028,6074.21875,-3408,2.08951563458001,1136,0.696505211526671,-15760,9.66278356836297,-19,3.65853658536585,-60,1.15853658536585,3,-0.182926829268293,4,-0.0173913043478261,-50,-0.217391304347826,136,-0.663414634146342,
3841668,6093.75,-3328,2.04046597179644,1232,0.755364806866953,-15776,9.67259350091968,-16,3.41463414634146,-56,0.975609756097561,3,-0.182926829268293,3,-0.0130434782608696,-43,-0.18695652173913,134,-0.653658536585366,
3842308,6113.28125,-3376,2.06989576946658,1120,0.686695278969957,-15696,9.62354383813611,-7,3.29268292682927,-54,0.426829268292683,5,-0.304878048780488,1,-0.00434782608695652,-46,-0.2,135,-0.658536585365854,
3842948,6132.8125,-3392,2.0797057020233,1152,0.706315144083384,-15776,9.67259350091968,-8,3.29268292682927,-54,0.487804878048781,2,-0.121951219512195,3,-0.0130434782608696,-47,-0.204347826086957,136,-0.663414634146342,
3843588,6152.34375,-3312,2.03065603923973,1168,0.716125076640098,-15808,9.69221336603311,-3,3.47560975609756,-57,0.182926829268293,6,-0.365853658536585,1,-0.00434782608695652,-45,-0.195652173913043,134,-0.653658536585366,
3844228,6171.875,-3328,2.04046597179644,1216,0.745554874310239,-15760,9.66278356836297,8,3.29268292682927,-54,-0.487804878048781,5,-0.304878048780488,2,-0.00869565217391304,-47,-0.204347826086957,135,-0.658536585365854,
3844868,6191.40625,-3360,2.06008583690987,1184,0.725935009196812,-15760,9.66278356836297,2,3.35365853658537,-55,-0.121951219512195,8,-0.487804878048781,1,-0.00434782608695652,-42,-0.182608695652174,135,-0.658536585365854,
3845508,6210.9375,-3328,2.04046597179644,1184,0.725935009196812,-15744,9.65297363580625,-6,3.17073170731707,-52,0.365853658536585,7,-0.426829268292683,3,-0.0130434782608696,-49,-0.21304347826087,135,-0.658536585365854,
3846148,6230.46875,-3376,2.06989576946658,1072,0.657265481299816,-15648,9.59411404046597,-1,3.23170731707317,-53,0.0609756097560976,10,-0.609756097560976,3,-0.0130434782608696,-50,-0.217391304347826,137,-0.668292682926829,
3846788,6250,-3376,2.06989576946658,1136,0.696505211526671,-15744,9.65297363580625,2,3.10975609756098,-51,-0.121951219512195,9,-0.548780487804878,3,-0.0130434782608696,-46,-0.2,136,-0.663414634146342,
3847428,6269.53125,-3312,2.03065603923973,1184,0.725935009196812,-15728,9.64316370324954,2,2.98780487804878,-49,-0.121951219512195,9,-0.548780487804878,2,-0.00869565217391304,-50,-0.217391304347826,136,-0.663414634146342,
3848068,6289.0625,-3344,2.05027590435316,1216,0.745554874310239,-15664,9.60392397302268,-6,2.92682926829268,-48,0.365853658536585,9,-0.548780487804878,4,-0.0173913043478261,-51,-0.221739130434783,136,-0.663414634146342,
3848708,6308.59375,-3344,2.05027590435316,1232,0.755364806866953,-15712,9.63335377069283,-6,2.68292682926829,-44,0.365853658536585,8,-0.487804878048781,2,-0.00869565217391304,-44,-0.191304347826087,135,-0.658536585365854,
3849348,6328.125,-3392,2.0797057020233,1184,0.725935009196812,-15728,9.64316370324954,2,2.6219512195122,-43,-0.121951219512195,10,-0.609756097560976,3,-0.0130434782608696,-47,-0.204347826086957,137,-0.668292682926829,
3849988,6347.65625,-3376,2.06989576946658,1248,0.765174739423666,-15760,9.66278356836297,8,2.6219512195122,-43,-0.487804878048781,12,-0.731707317073171,3,-0.0130434782608696,-45,-0.195652173913043,136,-0.663414634146342,
3850628,6367.1875,-3392,2.0797057020233,1216,0.745554874310239,-15728,9.64316370324954,10,2.19512195121951,-36,-0.609756097560976,18,-1.09756097560976,3,-0.0130434782608696,-43,-0.18695652173913,134,-0.653658536585366,
3851268,6386.71875,-3312,2.03065603923973,1232,0.755364806866953,-15664,9.60392397302268,7,2.19512195121951,-36,-0.426829268292683,18,-1.09756097560976,3,-0.0130434782608696,-48,-0.208695652173913,135,-0.658536585365854,
3851908,6406.25,-3264,2.00122624156959,1280,0.784794604537094,-15616,9.57449417535254,-2,2.25609756097561,-37,0.121951219512195,15,-0.914634146341463,1,-0.00434782608695652,-44,-0.191304347826087,135,-0.658536585365854,
3852548,6425.78125,-3312,2.03065603923973,1216,0.745554874310239,-15776,9.67259350091968,5,2.5,-41,-0.304878048780488,14,-0.853658536585366,2,-0.00869565217391304,-44,-0.191304347826087,134,-0.653658536585366,
3853188,6445.3125,-3264,2.00122624156959,1200,0.735744941753525,-15776,9.67259350091968,7,2.4390243902439,-40,-0.426829268292683,12,-0.731707317073171,4,-0.0173913043478261,-44,-0.191304347826087,135,-0.658536585365854,
3853828,6464.84375,-3232,1.98160637645616,1216,0.745554874310239,-15856,9.72164316370325,7,2.4390243902439,-40,-0.426829268292683,5,-0.304878048780488,1,-0.00434782608695652,-47,-0.204347826086957,135,-0.658536585365854,
3854468,6484.375,-3312,2.03065603923973,1152,0.706315144083384,-15920,9.7608828939301,0,2.92682926829268,-48,0,1,-0.0609756097560976,2,-0.00869565217391304,-46,-0.2,135,-0.658536585365854,
3855108,6503.90625,-3184,1.95217657878602,1168,0.716125076640098,-15872,9.73145309625996,-7,3.04878048780488,-50,0.426829268292683,-7,0.426829268292683,1,-0.00434782608695652,-47,-0.204347826086957,135,-0.658536585365854,
3855748,6523.4375,-3184,1.95217657878602,1088,0.66707541385653,-15840,9.71183323114654,-7,3.17073170731707,-52,0.426829268292683,-8,0.487804878048781,2,-0.00869565217391304,-51,-0.221739130434783,136,-0.663414634146342,
3856388,6542.96875,-3184,1.95217657878602,1168,0.716125076640098,-15888,9.74126302881668,-2,3.35365853658537,-55,0.121951219512195,-9,0.548780487804878,3,-0.0130434782608696,-49,-0.21304347826087,135,-0.658536585365854,
3857028,6562.5,-3184,1.95217657878602,1232,0.755364806866953,-15792,9.6824034334764,-5,3.47560975609756,-57,0.304878048780488,-11,0.670731707317073,2,-0.00869565217391304,-49,-0.21304347826087,136,-0.663414634146342,
3857668,6582.03125,-3200,1.96198651134273,1216,0.745554874310239,-15552,9.53525444512569,-2,3.41463414634146,-56,0.121951219512195,-14,0.853658536585366,3,-0.0130434782608696,-46,-0.2,134,-0.653658536585366,
3858308,6601.5625,-3216,1.97179644389945,1184,0.725935009196812,-15728,9.64316370324954,3,3.35365853658537,-55,-0.182926829268293,-15,0.914634146341463,0,0,-46,-0.2,137,-0.668292682926829,
3858948,6621.09375,-3216,1.97179644389945,1152,0.706315144083384,-15760,9.66278356836297,7,3.29268292682927,-54,-0.426829268292683,-16,0.975609756097561,2,-0.00869565217391304,-50,-0.217391304347826,135,-0.658536585365854,
3859588,6640.625,-3296,2.02084610668302,1120,0.686695278969957,-15696,9.62354383813611,9,3.23170731707317,-53,-0.548780487804878,-15,0.914634146341463,3,-0.0130434782608696,-46,-0.2,135,-0.658536585365854,
3860228,6660.15625,-3296,2.02084610668302,1232,0.755364806866953,-15680,9.6137339055794,0,2.86585365853659,-47,0,-16,0.975609756097561,3,-0.0130434782608696,-47,-0.204347826086957,137,-0.668292682926829,
3860868,6679.6875,-3264,2.00122624156959,1232,0.755364806866953,-15760,9.66278356836297,0,2.92682926829268,-48,0,-18,1.09756097560976,3,-0.0130434782608696,-46,-0.2,136,-0.663414634146342,
3861508,6699.21875,-3216,1.97179644389945,1280,0.784794604537094,-15760,9.66278356836297,15,3.10975609756098,-51,-0.914634146341463,-18,1.09756097560976,2,-0.00869565217391304,-43,-0.18695652173913,134,-0.653658536585366,
3862148,6718.75,-3264,2.00122624156959,1248,0.765174739423666,-15712,9.63335377069283,24,2.98780487804878,-49,-1.46341463414634,-18,1.09756097560976,4,-0.0173913043478261,-49,-0.21304347826087,136,-0.663414634146342,
3862788,6738.28125,-3408,2.08951563458001,1216,0.745554874310239,-15728,9.64316370324954,21,2.80487804878049,-46,-1.28048780487805,-17,1.03658536585366,3,-0.0130434782608696,-48,-0.208695652173913,134,-0.653658536585366,
3863428,6757.8125,-3360,2.06008583690987,1216,0.745554874310239,-15712,9.63335377069283,11,2.98780487804878,-49,-0.670731707317073,-20,1.21951219512195,1,-0.00434782608695652,-45,-0.195652173913043,135,-0.658536585365854,
3864068,6777.34375,-3376,2.06989576946658,1168,0.716125076640098,-15776,9.67259350091968,7,2.86585365853659,-47,-0.426829268292683,-17,1.03658536585366,4,-0.0173913043478261,-45,-0.195652173913043,134,-0.653658536585366,
3864708,6796.875,-3392,2.0797057020233,1200,0.735744941753525,-15712,9.63335377069283,12,2.68292682926829,-44,-0.731707317073171,-15,0.914634146341463,3,-0.0130434782608696,-44,-0.191304347826087,134,-0.653658536585366,
3865348,6816.40625,-3360,2.06008583690987,1200,0.735744941753525,-15712,9.63335377069283,18,2.68292682926829,-44,-1.09756097560976,-15,0.914634146341463,4,-0.0173913043478261,-46,-0.2,135,-0.658536585365854,
3865988,6835.9375,-3344,2.05027590435316,1216,0.745554874310239,-15776,9.67259350091968,11,2.92682926829268,-48,-0.670731707317073,-17,1.03658536585366,2,-0.00869565217391304,-43,-0.18695652173913,135,-0.658536585365854,
3866628,6855.46875,-3408,2.08951563458001,1216,0.745554874310239,-15728,9.64316370324954,22,2.68292682926829,-44,-1.34146341463415,-17,1.03658536585366,2,-0.00869565217391304,-46,-0.2,133,-0.648780487804878,
3867268,6875,-3408,2.08951563458001,1168,0.716125076640098,-15696,9.62354383813611,18,2.6219512195122,-43,-1.09756097560976,-17,1.03658536585366,1,-0.00434782608695652,-46,-0.2,135,-0.658536585365854,
3867908,6894.53125,-3440,2.10913549969344,1120,0.686695278969957,-15584,9.55487431023912,18,2.80487804878049,-46,-1.09756097560976,-13,0.792682926829268,3,-0.0130434782608696,-47,-0.204347826086957,135,-0.658536585365854,
3868548,6914.0625,-3488,2.13856529736358,1168,0.716125076640098,-15616,9.57449417535254,8,2.5609756097561,-42,-0.487804878048781,-12,0.731707317073171,5,-0.0217391304347826,-50,-0.217391304347826,135,-0.658536585365854,
3869188,6933.59375,-3488,2.13856529736358,1136,0.696505211526671,-15664,9.60392397302268,16,2.5609756097561,-42,-0.975609756097561,-11,0.670731707317073,3,-0.0130434782608696,-49,-0.21304347826087,136,-0.663414634146342,
3869828,6953.125,-3536,2.16799509503372,1168,0.716125076640098,-15728,9.64316370324954,18,2.68292682926829,-44,-1.09756097560976,-9,0.548780487804878,3,-0.0130434782608696,-44,-0.191304347826087,135,-0.658536585365854,
3870468,6972.65625,-3536,2.16799509503372,1184,0.725935009196812,-15728,9.64316370324954,17,2.5609756097561,-42,-1.03658536585366,-9,0.548780487804878,4,-0.0173913043478261,-44,-0.191304347826087,133,-0.648780487804878,
3871108,6992.1875,-3488,2.13856529736358,1232,0.755364806866953,-15712,9.63335377069283,10,2.5,-41,-0.609756097560976,-3,0.182926829268293,4,-0.0173913043478261,-46,-0.2,134,-0.653658536585366,
3871748,7011.71875,-3456,2.11894543225015,1120,0.686695278969957,-15680,9.6137339055794,4,2.19512195121951,-36,-0.24390243902439,-10,0.609756097560976,3,-0.0130434782608696,-46,-0.2,136,-0.663414634146342,
3872388,7031.25,-3440,2.10913549969344,1120,0.686695278969957,-15744,9.65297363580625,11,2.31707317073171,-38,-0.670731707317073,-7,0.426829268292683,2,-0.00869565217391304,-45,-0.195652173913043,136,-0.663414634146342,
3873028,7050.78125,-3424,2.09932556713673,1152,0.706315144083384,-15696,9.62354383813611,16,2.25609756097561,-37,-0.975609756097561,-6,0.365853658536585,5,-0.0217391304347826,-50,-0.217391304347826,137,-0.668292682926829,
3873668,7070.3125,-3424,2.09932556713673,1072,0.657265481299816,-15776,9.67259350091968,17,2.6219512195122,-43,-1.03658536585366,-8,0.487804878048781,3,-0.0130434782608696,-51,-0.221739130434783,135,-0.658536585365854,
3874308,7089.84375,-3488,2.13856529736358,1120,0.686695278969957,-15824,9.70202329858982,2,2.80487804878049,-46,-0.121951219512195,-11,0.670731707317073,3,-0.0130434782608696,-45,-0.195652173913043,135,-0.658536585365854,
3874948,7109.375,-3472,2.12875536480687,1168,0.716125076640098,-15760,9.66278356836297,0,2.80487804878049,-46,0,-7,0.426829268292683,4,-0.0173913043478261,-50,-0.217391304347826,136,-0.663414634146342,
3875588,7128.90625,-3488,2.13856529736358,1200,0.735744941753525,-15760,9.66278356836297,1,2.6219512195122,-43,-0.0609756097560976,-5,0.304878048780488,4,-0.0173913043478261,-45,-0.195652173913043,135,-0.658536585365854,
3876228,7148.4375,-3344,2.05027590435316,1088,0.66707541385653,-15792,9.6824034334764,11,2.98780487804878,-49,-0.670731707317073,-2,0.121951219512195,4,-0.0173913043478261,-46,-0.2,135,-0.658536585365854,
3876868,7167.96875,-3392,2.0797057020233,1072,0.657265481299816,-15840,9.71183323114654,11,3.04878048780488,-50,-0.670731707317073,-5,0.304878048780488,4,-0.0173913043478261,-46,-0.2,135,-0.658536585365854,
3877508,7187.5,-3504,2.14837522992029,1136,0.696505211526671,-15824,9.70202329858982,1,3.10975609756098,-51,-0.0609756097560976,-11,0.670731707317073,2,-0.00869565217391304,-48,-0.208695652173913,134,-0.653658536585366,
3878148,7207.03125,-3504,2.14837522992029,1120,0.686695278969957,-15808,9.69221336603311,4,3.10975609756098,-51,-0.24390243902439,-11,0.670731707317073,1,-0.00434782608695652,-43,-0.18695652173913,134,-0.653658536585366,
3878788,7226.5625,-3456,2.11894543225015,1168,0.716125076640098,-15760,9.66278356836297,11,3.35365853658537,-55,-0.670731707317073,-12,0.731707317073171,1,-0.00434782608695652,-43,-0.18695652173913,134,-0.653658536585366,
3879428,7246.09375,-3440,2.10913549969344,1184,0.725935009196812,-15808,9.69221336603311,18,3.47560975609756,-57,-1.09756097560976,-9,0.548780487804878,1,-0.00434782608695652,-44,-0.191304347826087,135,-0.658536585365854,
3880068,7265.625,-3488,2.13856529736358,1152,0.706315144083384,-15760,9.66278356836297,17,3.53658536585366,-58,-1.03658536585366,-13,0.792682926829268,4,-0.0173913043478261,-48,-0.208695652173913,135,-0.658536585365854,
3880708,7285.15625,-2000,1.22624156958921,7424,4.55180870631514,3664,-2.24647455548743,814,-58.6585365853659,962,-49.6341463414634,299,-18.2317073170732,5,-0.0217391304347826,-47,-0.204347826086957,134,-0.653658536585366,
3881348,7304.6875,-5328,3.26670754138565,-192,-0.117719190680564,-9408,5.76824034334764,773,-1.95121951219512,32,-47.1341463414634,18,-1.09756097560976,6,-0.0260869565217391,-48,-0.208695652173913,133,-0.648780487804878,
3881988,7324.21875,-6192,3.79644389944819,1296,0.794604537093807,-13440,8.24034334763948,-144,3.29268292682927,-54,8.78048780487805,-59,3.59756097560976,6,-0.0260869565217391,-47,-0.204347826086957,132,-0.64390243902439,
3882628,7343.75,-6272,3.84549356223176,1504,0.922133660331085,-15056,9.23114653586757,-612,3.35365853658537,-55,37.3170731707317,-38,2.31707317073171,5,-0.0217391304347826,-42,-0.182608695652174,132,-0.64390243902439,
3883268,7363.28125,-4784,2.93316983445739,992,0.608215818516248,-16256,9.96689147762109,-672,5.67073170731707,-93,40.9756097560976,-50,3.04878048780488,2,-0.00869565217391304,-48,-0.208695652173913,134,-0.653658536585366,
3883908,7382.8125,-2336,1.4322501532802,432,0.264868179031269,-16304,9.99632127529123,16,0.121951219512195,-2,-0.975609756097561,90,-5.48780487804878,4,-0.0173913043478261,-49,-0.21304347826087,135,-0.658536585365854,
3884548,7402.34375,-3824,2.34457388105457,672,0.412017167381974,-16880,10.3494788473329,55,0.914634146341463,-15,-3.35365853658537,76,-4.63414634146342,5,-0.0217391304347826,-48,-0.208695652173913,136,-0.663414634146342,
3885188,7421.875,-3952,2.42305334150828,624,0.382587369711833,-17152,10.5162477007971,3,3.23170731707317,-53,-0.182926829268293,59,-3.59756097560976,3,-0.0130434782608696,-46,-0.2,135,-0.658536585365854,
3885828,7441.40625,-4128,2.53096259963213,752,0.461066830165543,-17040,10.4475781729001,-110,4.14634146341463,-68,6.70731707317073,28,-1.70731707317073,4,-0.0173913043478261,-47,-0.204347826086957,133,-0.648780487804878,
3886468,7460.9375,-3776,2.31514408338443,640,0.392397302268547,-16736,10.2611894543225,-167,5.42682926829268,-89,10.1829268292683,5,-0.304878048780488,5,-0.0217391304347826,-47,-0.204347826086957,134,-0.653658536585366,
3887108,7480.46875,-3152,1.93255671367259,720,0.441446965052115,-16448,10.0846106683017,-28,6.64634146341464,-109,1.70731707317073,-6,0.365853658536585,5,-0.0217391304347826,-49,-0.21304347826087,135,-0.658536585365854,
3887748,7500,-3216,1.97179644389945,800,0.490496627835684,-16080,9.85898221949724,77,7.37804878048781,-121,-4.69512195121951,-11,0.670731707317073,3,-0.0130434782608696,-45,-0.195652173913043,134,-0.653658536585366,
3888388,7519.53125,-3520,2.15818516247701,864,0.529736358062538,-15920,9.7608828939301,58,7.5,-123,-3.53658536585366,-12,0.731707317073171,5,-0.0217391304347826,-45,-0.195652173913043,134,-0.653658536585366,
3889028,7539.0625,-3664,2.24647455548743,960,0.58859595340282,-15776,9.67259350091968,-5,7.31707317073171,-120,0.304878048780488,-14,0.853658536585366,2,-0.00869565217391304,-49,-0.21304347826087,135,-0.658536585365854,
3889668,7558.59375,-3584,2.19742489270386,960,0.58859595340282,-15600,9.56468424279583,-36,6.95121951219512,-114,2.19512195121951,-11,0.670731707317073,3,-0.0130434782608696,-48,-0.208695652173913,135,-0.658536585365854,
3890308,7578.125,-3408,2.08951563458001,1040,0.637645616186389,-15360,9.41753525444513,-22,6.70731707317073,-110,1.34146341463415,-11,0.670731707317073,3,-0.0130434782608696,-42,-0.182608695652174,135,-0.658536585365854,
3890948,7597.65625,-3312,2.03065603923973,1120,0.686695278969957,-15328,9.3979153893317,4,5.91463414634146,-97,-0.24390243902439,-9,0.548780487804878,5,-0.0217391304347826,-47,-0.204347826086957,134,-0.653658536585366,
3891588,7617.1875,-3296,2.02084610668302,1072,0.657265481299816,-15280,9.36848559166156,19,5.18292682926829,-85,-1.15853658536585,-14,0.853658536585366,3,-0.0130434782608696,-48,-0.208695652173913,135,-0.658536585365854,
3892228,7636.71875,14656,-8.98589822194972,-8592,-5.26793378295524,-16016,9.81974248927039,-4034,-508.170731707317,8334,245.975609756098,-605,36.890243902439,2,-0.00869565217391304,-46,-0.2,134,-0.653658536585366,
3892868,7656.25,1888,-1.15757204169221,-2624,-1.60882893930104,-7232,4.43408951563458,1166,-18.9634146341463,311,-71.0975609756098,-194,11.8292682926829,4,-0.0173913043478261,-45,-0.195652173913043,134,-0.653658536585366,
3893508,7675.78125,-7632,4.67933782955242,1536,0.941753525444513,-13232,8.11281422440221,394,4.02439024390244,-66,-24.0243902439024,49,-2.98780487804878,5,-0.0217391304347826,-48,-0.208695652173913,131,-0.639024390243902,
3894148,7695.3125,-7040,4.31637032495402,1216,0.745554874310239,-15088,9.25076640098099,-810,3.59756097560976,-59,49.390243902439,-121,7.37804878048781,4,-0.0173913043478261,-43,-0.18695652173913,132,-0.64390243902439,
3894788,7714.84375,-3696,2.26609442060086,960,0.58859595340282,-15584,9.55487431023912,-736,2.92682926829268,-48,44.8780487804878,-80,4.87804878048781,4,-0.0173913043478261,-44,-0.191304347826087,135,-0.658536585365854,
3895428,7734.375,-3088,1.89331698344574,960,0.58859595340282,-16224,9.94727161250766,-319,1.58536585365854,-26,19.4512195121951,-1,0.0609756097560976,5,-0.0217391304347826,-49,-0.21304347826087,135,-0.658536585365854,
3896068,7753.90625,-2880,1.76578786020846,80,0.0490496627835684,-16624,10.1925199264255,37,-4.87804878048781,80,-2.25609756097561,45,-2.74390243902439,4,-0.0173913043478261,-49,-0.21304347826087,135,-0.658536585365854,
3896708,7773.4375,-3744,2.295524218271,688,0.421827099938688,-17008,10.4279583077866,152,1.15853658536585,-19,-9.26829268292683,55,-3.35365853658537,4,-0.0173913043478261,-46,-0.2,135,-0.658536585365854,
3897348,7792.96875,-4336,2.6584917228694,672,0.412017167381974,-17072,10.4671980380135,8,2.80487804878049,-46,-0.487804878048781,24,-1.46341463414634,4,-0.0173913043478261,-46,-0.2,135,-0.658536585365854,
3897988,7812.5,-4128,2.53096259963213,720,0.441446965052115,-16832,10.3200490496628,-144,4.08536585365854,-67,8.78048780487805,-3,0.182926829268293,5,-0.0217391304347826,-48,-0.208695652173913,135,-0.658536585365854,
3898628,7832.03125,-3408,2.08951563458001,640,0.392397302268547,-16704,10.2415695892091,-108,5.79268292682927,-95,6.58536585365854,-11,0.670731707317073,4,-0.0173913043478261,-48,-0.208695652173913,134,-0.653658536585366,
3899268,7851.5625,-3216,1.97179644389945,752,0.461066830165543,-16304,9.99632127529123,31,7.19512195121951,-118,-1.89024390243902,-9,0.548780487804878,2,-0.00869565217391304,-40,-0.173913043478261,133,-0.648780487804878,
3899908,7871.09375,-3504,2.14837522992029,768,0.470876762722256,-16032,9.8295524218271,72,7.98780487804878,-131,-4.39024390243902,-9,0.548780487804878,4,-0.0173913043478261,-44,-0.191304347826087,134,-0.653658536585366,
3900548,7890.625,-3728,2.28571428571429,880,0.539546290619252,-15888,9.74126302881668,13,7.98780487804878,-131,-0.792682926829268,-15,0.914634146341463,4,-0.0173913043478261,-48,-0.208695652173913,136,-0.663414634146342,
3901188,7910.15625,-3648,2.23666462293072,944,0.578786020846107,-15584,9.55487431023912,-50,7.37804878048781,-121,3.04878048780488,-16,0.975609756097561,3,-0.0130434782608696,-48,-0.208695652173913,135,-0.658536585365854,
3901828,7929.6875,-3440,2.10913549969344,992,0.608215818516248,-15376,9.42734518700184,-61,6.76829268292683,-111,3.71951219512195,-15,0.914634146341463,6,-0.0260869565217391,-46,-0.2,135,-0.658536585365854,
3902468,7949.21875,-3328,2.04046597179644,1088,0.66707541385653,-15248,9.34886572654813,-25,6.28048780487805,-103,1.52439024390244,-9,0.548780487804878,5,-0.0217391304347826,-48,-0.208695652173913,135,-0.658536585365854,
3903108,7968.75,-3280,2.0110361741263,1072,0.657265481299816,-15184,9.30962599632127,-1,5.36585365853659,-88,0.0609756097560976,-7,0.426829268292683,3,-0.0130434782608696,-48,-0.208695652173913,136,-0.663414634146342,
3903748,7988.28125,-3408,2.08951563458001,1008,0.618025751072961,-15168,9.29981606376456,20,4.20731707317073,-69,-1.21951219512195,-7,0.426829268292683,1,-0.00434782608695652,-48,-0.208695652173913,135,-0.658536585365854,
3904388,8007.8125,-3408,2.08951563458001,1040,0.637645616186389,-15200,9.31943592887799,25,3.59756097560976,-59,-1.52439024390244,-6,0.365853658536585,2,-0.00869565217391304,-50,-0.217391304347826,133,-0.648780487804878,
3905028,8027.34375,-15232,9.33905579399141,16848,10.3298589822195,-15904,9.75107296137339,-1413,62.9878048780488,-1033,86.1585365853659,-1158,70.609756097561,3,-0.0130434782608696,-44,-0.191304347826087,135,-0.658536585365854,
3905668,8046.875,-5840,3.58062538320049,288,0.176578786020846,-15344,9.40772532188841,958,-14.5121951219512,238,-58.4146341463415,-85,5.18292682926829,5,-0.0217391304347826,-43,-0.18695652173913,135,-0.658536585365854,
3906308,8066.40625,-7600,4.65971796443899,1296,0.794604537093807,-15216,9.3292458614347,249,-8.17073170731707,134,-15.1829268292683,-9,0.548780487804878,5,-0.0217391304347826,-44,-0.191304347826087,134,-0.653658536585366,
3906948,8085.9375,-6128,3.75720416922134,640,0.392397302268547,-15472,9.48620478234212,-503,2.5609756097561,-42,30.6707317073171,-85,5.18292682926829,6,-0.0260869565217391,-44,-0.191304347826087,131,-0.639024390243902,
3907588,8105.46875,-4288,2.62906192519926,960,0.58859595340282,-15888,9.74126302881668,-680,2.74390243902439,-45,41.4634146341463,-57,3.47560975609756,3,-0.0130434782608696,-48,-0.208695652173913,135,-0.658536585365854,
3908228,8125,-3248,1.99141630901288,736,0.451256897608829,-16528,10.1336603310852,-443,2.31707317073171,-38,27.0121951219512,-2,0.121951219512195,3,-0.0130434782608696,-43,-0.18695652173913,135,-0.658536585365854,
3908868,8144.53125,-2192,1.34396076026977,576,0.353157572041692,-16752,10.2709993868792,-38,-0.24390243902439,4,2.31707317073171,17,-1.03658536585366,3,-0.0130434782608696,-45,-0.195652173913043,136,-0.663414634146342,
3909508,8164.0625,-3952,2.42305334150828,384,0.235438381361128,-17440,10.6928264868179,320,-0.853658536585366,14,-19.5121951219512,99,-6.03658536585366,5,-0.0217391304347826,-47,-0.204347826086957,135,-0.658536585365854,
3910148,8183.59375,-4512,2.76640098099326,384,0.235438381361128,-17504,10.7320662170448,61,1.40243902439024,-23,-3.71951219512195,59,-3.59756097560976,5,-0.0217391304347826,-45,-0.195652173913043,134,-0.653658536585366,
3910788,8203.125,-4128,2.53096259963213,416,0.255058246474555,-17152,10.5162477007971,-105,3.47560975609756,-57,6.40243902439024,26,-1.58536585365854,5,-0.0217391304347826,-45,-0.195652173913043,135,-0.658536585365854,
3911428,8222.65625,-3600,2.20723482526058,416,0.255058246474555,-16768,10.2808093194359,-156,5.24390243902439,-86,9.51219512195122,8,-0.487804878048781,2,-0.00869565217391304,-47,-0.204347826086957,136,-0.663414634146342,
3912068,8242.1875,-3120,1.91293684855917,560,0.343347639484979,-16432,10.0748007357449,-72,7.13414634146342,-117,4.39024390243902,-2,0.121951219512195,2,-0.00869565217391304,-48,-0.208695652173913,136,-0.663414634146342,
3912708,8261.71875,-3232,1.98160637645616,640,0.392397302268547,-16160,9.90803188228081,31,7.86585365853659,-129,-1.89024390243902,-2,0.121951219512195,3,-0.0130434782608696,-46,-0.2,135,-0.658536585365854,
3913348,8281.25,-3568,2.18761496014715,768,0.470876762722256,-15888,9.74126302881668,39,7.98780487804878,-131,-2.37804878048781,-2,0.121951219512195,2,-0.00869565217391304,-42,-0.182608695652174,135,-0.658536585365854,
3913988,8300.78125,-3568,2.18761496014715,800,0.490496627835684,-15632,9.58430410790926,-19,7.68292682926829,-126,1.15853658536585,-6,0.365853658536585,3,-0.0130434782608696,-49,-0.21304347826087,136,-0.663414634146342,
3914628,8320.3125,-3344,2.05027590435316,864,0.529736358062538,-15520,9.51563458001226,-45,6.82926829268293,-112,2.74390243902439,-7,0.426829268292683,3,-0.0130434782608696,-48,-0.208695652173913,137,-0.668292682926829,
3915268,8339.84375,-3232,1.98160637645616,896,0.549356223175966,-15472,9.48620478234212,-15,6.40243902439024,-105,0.914634146341463,2,-0.121951219512195,5,-0.0217391304347826,-49,-0.21304347826087,135,-0.658536585365854,
3915908,8359.375,-3232,1.98160637645616,928,0.568976088289393,-15392,9.43715511955855,18,5.79268292682927,-95,-1.09756097560976,3,-0.182926829268293,5,-0.0217391304347826,-49,-0.21304347826087,135,-0.658536585365854,
3916548,8378.90625,-3264,2.00122624156959,896,0.549356223175966,-15440,9.46658491722869,34,5.18292682926829,-85,-2.07317073170732,6,-0.365853658536585,3,-0.0130434782608696,-44,-0.191304347826087,136,-0.663414634146342,
3917188,8398.4375,-3312,2.03065603923973,880,0.539546290619252,-15360,9.41753525444513,34,4.69512195121951,-77,-2.07317073170732,1,-0.0609756097560976,2,-0.00869565217391304,-46,-0.2,136,-0.663414634146342,
3917828,8417.96875,-3264,2.00122624156959,880,0.539546290619252,-15424,9.45677498467198,25,4.14634146341463,-68,-1.52439024390244,-1,0.0609756097560976,4,-0.0173913043478261,-48,-0.208695652173913,136,-0.663414634146342,
3918468,8437.5,-3312,2.03065603923973,880,0.539546290619252,-15488,9.49601471489883,20,3.84146341463415,-63,-1.21951219512195,-3,0.182926829268293,4,-0.0173913043478261,-49,-0.21304347826087,136,-0.663414634146342,
3919108,8457.03125,-3328,2.04046597179644,864,0.529736358062538,-15632,9.58430410790926,11,3.71951219512195,-61,-0.670731707317073,-5,0.304878048780488,3,-0.0130434782608696,-47,-0.204347826086957,135,-0.658536585365854,
3919748,8476.5625,-3312,2.03065603923973,896,0.549356223175966,-15632,9.58430410790926,12,3.53658536585366,-58,-0.731707317073171,-7,0.426829268292683,3,-0.0130434782608696,-47,-0.204347826086957,134,-0.653658536585366,
3920388,8496.09375,-3424,2.09932556713673,912,0.559166155732679,-15696,9.62354383813611,18,3.41463414634146,-56,-1.09756097560976,-15,0.914634146341463,4,-0.0173913043478261,-49,-0.21304347826087,136,-0.663414634146342,
3921028,8515.625,-3536,2.16799509503372,896,0.549356223175966,-15744,9.65297363580625,22,3.29268292682927,-54,-1.34146341463415,-20,1.21951219512195,4,-0.0173913043478261,-48,-0.208695652173913,135,-0.658536585365854,
3921668,8535.15625,-3568,2.18761496014715,912,0.559166155732679,-15776,9.67259350091968,22,3.04878048780488,-50,-1.34146341463415,-26,1.58536585365854,5,-0.0217391304347826,-45,-0.195652173913043,135,-0.658536585365854,
3922308,8554.6875,-3584,2.19742489270386,944,0.578786020846107,-15696,9.62354383813611,21,3.53658536585366,-58,-1.28048780487805,-28,1.70731707317073,3,-0.0130434782608696,-44,-0.191304347826087,133,-0.648780487804878,
3922948,8574.21875,-3680,2.25628448804414,944,0.578786020846107,-15824,9.70202329858982,24,3.65853658536585,-60,-1.46341463414634,-22,1.34146341463415,1,-0.00434782608695652,-46,-0.2,135,-0.658536585365854,
3923588,8593.75,-3728,2.28571428571429,880,0.539546290619252,-15728,9.64316370324954,16,3.59756097560976,-59,-0.975609756097561,-13,0.792682926829268,0,0,-46,-0.2,135,-0.658536585365854,
3924228,8613.28125,-3744,2.295524218271,992,0.608215818516248,-15744,9.65297363580625,-4,3.78048780487805,-62,0.24390243902439,-9,0.548780487804878,4,-0.0173913043478261,-48,-0.208695652173913,135,-0.658536585365854,
3924868,8632.8125,-3648,2.23666462293072,1008,0.618025751072961,-15792,9.6824034334764,-6,3.53658536585366,-58,0.365853658536585,-9,0.548780487804878,5,-0.0217391304347826,-49,-0.21304347826087,134,-0.653658536585366,
3925508,8652.34375,-3584,2.19742489270386,976,0.598405885959534,-15808,9.69221336603311,14,3.59756097560976,-59,-0.853658536585366,-5,0.304878048780488,1,-0.00434782608695652,-42,-0.182608695652174,136,-0.663414634146342,
3926148,8671.875,480,-0.29429797670141,13168,8.07357449417535,-24208,14.8424279583078,-747,-6.95121951219512,114,45.5487804878049,-2240,136.585365853659,3,-0.0130434782608696,-40,-0.173913043478261,133,-0.648780487804878,
3926788,8691.40625,-2208,1.35377069282649,-2960,-1.81483752299203,-15984,9.80012262415696,1115,-14.5731707317073,239,-67.9878048780488,-286,17.4390243902439,6,-0.0260869565217391,-47,-0.204347826086957,132,-0.64390243902439,
3927428,8710.9375,-7232,4.43408951563458,944,0.578786020846107,-15296,9.37829552421827,323,2.25609756097561,-37,-19.6951219512195,-11,0.670731707317073,7,-0.0304347826086957,-43,-0.18695652173913,130,-0.634146341463415,
3928068,8730.46875,-8080,4.9540159411404,1088,0.66707541385653,-15616,9.57449417535254,-750,8.90243902439025,-146,45.7317073170732,-66,4.02439024390244,6,-0.0260869565217391,-44,-0.191304347826087,133,-0.648780487804878,
3928708,8750,-5616,3.4432863274065,1056,0.647455548743102,-16080,9.85898221949724,-1261,10.9146341463415,-179,76.890243902439,-75,4.57317073170732,0,0,-41,-0.178260869565217,133,-0.648780487804878,
3929348,8769.53125,-384,0.235438381361128,1280,0.784794604537094,-16064,9.84917228694053,-762,-4.45121951219512,73,46.4634146341463,-139,8.47560975609756,1,-0.00434782608695652,-42,-0.182608695652174,135,-0.658536585365854,
3929988,8789.0625,-2272,1.39301042305334,-176,-0.10790925812385,-16640,10.2023298589822,451,-3.96341463414634,65,-27.5,135,-8.23170731707317,4,-0.0173913043478261,-48,-0.208695652173913,136,-0.663414634146342,
3930628,8808.59375,-4144,2.54077253218884,400,0.245248313917842,-17184,10.5358675659105,336,0.670731707317073,-11,-20.4878048780488,91,-5.54878048780488,5,-0.0217391304347826,-46,-0.2,134,-0.653658536585366,
3931268,8828.125,-4480,2.74678111587983,416,0.255058246474555,-17008,10.4279583077866,162,2.25609756097561,-37,-9.87804878048781,60,-3.65853658536585,2,-0.00869565217391304,-44,-0.191304347826087,133,-0.648780487804878,
3931908,8847.65625,-4800,2.9429797670141,432,0.264868179031269,-16800,10.3004291845494,-136,3.04878048780488,-50,8.29268292682927,20,-1.21951219512195,5,-0.0217391304347826,-48,-0.208695652173913,135,-0.658536585365854,
3932548,8867.1875,-3616,2.21704475781729,416,0.255058246474555,-16560,10.1532801961987,-245,5.30487804878049,-87,14.9390243902439,0,0,6,-0.0260869565217391,-46,-0.2,135,-0.658536585365854,
3933188,8886.71875,-3008,1.84426732066217,512,0.313917841814838,-16352,10.0257510729614,-38,6.95121951219512,-114,2.31707317073171,2,-0.121951219512195,5,-0.0217391304347826,-44,-0.191304347826087,135,-0.658536585365854,
3933828,8906.25,-3392,2.0797057020233,672,0.412017167381974,-16064,9.84917228694053,95,7.5,-123,-5.79268292682927,12,-0.731707317073171,3,-0.0130434782608696,-44,-0.191304347826087,133,-0.648780487804878,
3934468,8925.78125,-3728,2.28571428571429,784,0.48068669527897,-15776,9.67259350091968,62,7.19512195121951,-118,-3.78048780487805,15,-0.914634146341463,2,-0.00869565217391304,-48,-0.208695652173913,136,-0.663414634146342,
3935108,8945.3125,-3648,2.23666462293072,768,0.470876762722256,-15536,9.52544451256898,-36,6.46341463414634,-106,2.19512195121951,14,-0.853658536585366,-1,0.00434782608695652,-48,-0.208695652173913,136,-0.663414634146342,
3935748,8964.84375,-3456,2.11894543225015,832,0.510116492949111,-15344,9.40772532188841,-70,6.03658536585366,-99,4.26829268292683,18,-1.09756097560976,3,-0.0130434782608696,-42,-0.182608695652174,133,-0.648780487804878,
3936388,8984.375,-3264,2.00122624156959,832,0.510116492949111,-15232,9.33905579399141,-54,5.54878048780488,-91,3.29268292682927,17,-1.03658536585366,2,-0.00869565217391304,-44,-0.191304347826087,134,-0.653658536585366,
3937028,9003.90625,-3200,1.96198651134273,912,0.559166155732679,-15216,9.3292458614347,-21,4.63414634146342,-76,1.28048780487805,17,-1.03658536585366,1,-0.00434782608695652,-41,-0.178260869565217,135,-0.658536585365854,
3937668,9023.4375,-3200,1.96198651134273,960,0.58859595340282,-15200,9.31943592887799,14,3.84146341463415,-63,-0.853658536585366,12,-0.731707317073171,0,0,-43,-0.18695652173913,133,-0.648780487804878,
3938308,9042.96875,-3232,1.98160637645616,992,0.608215818516248,-15296,9.37829552421827,27,2.74390243902439,-45,-1.64634146341463,7,-0.426829268292683,4,-0.0173913043478261,-44,-0.191304347826087,133,-0.648780487804878,
3938948,9062.5,-3296,2.02084610668302,944,0.578786020846107,-15424,9.45677498467198,34,2.19512195121951,-36,-2.07317073170732,5,-0.304878048780488,0,0,-44,-0.191304347826087,134,-0.653658536585366,
3939588,9082.03125,-3360,2.06008583690987,928,0.568976088289393,-15632,9.58430410790926,21,2.31707317073171,-38,-1.28048780487805,8,-0.487804878048781,0,0,-43,-0.18695652173913,133,-0.648780487804878,
3940228,9101.5625,-3392,2.0797057020233,880,0.539546290619252,-15664,9.60392397302268,-7,2.37804878048781,-39,0.426829268292683,2,-0.121951219512195,3,-0.0130434782608696,-42,-0.182608695652174,134,-0.653658536585366,
3940868,9121.09375,-3408,2.08951563458001,800,0.490496627835684,-15728,9.64316370324954,-25,2.5,-41,1.52439024390244,-7,0.426829268292683,3,-0.0130434782608696,-49,-0.21304347826087,135,-0.658536585365854,
3941508,9140.625,-3264,2.00122624156959,752,0.461066830165543,-15824,9.70202329858982,-22,2.5609756097561,-42,1.34146341463415,-18,1.09756097560976,1,-0.00434782608695652,-44,-0.191304347826087,134,-0.653658536585366,
3942148,9160.15625,-3328,2.04046597179644,800,0.490496627835684,-15888,9.74126302881668,-4,2.86585365853659,-47,0.24390243902439,-23,1.40243902439024,5,-0.0217391304347826,-47,-0.204347826086957,134,-0.653658536585366,
3942788,9179.6875,-3456,2.11894543225015,752,0.461066830165543,-15824,9.70202329858982,8,3.23170731707317,-53,-0.487804878048781,-31,1.89024390243902,1,-0.00434782608695652,-40,-0.173913043478261,134,-0.653658536585366,
3943428,9199.21875,-3552,2.17780502759044,880,0.539546290619252,-15856,9.72164316370325,3,3.47560975609756,-57,-0.182926829268293,-34,2.07317073170732,2,-0.00869565217391304,-39,-0.169565217391304,134,-0.653658536585366,
3944068,9218.75,-3520,2.15818516247701,864,0.529736358062538,-15888,9.74126302881668,0,3.53658536585366,-58,0,-34,2.07317073170732,2,-0.00869565217391304,-40,-0.173913043478261,133,-0.648780487804878,
3944708,9238.28125,-3600,2.20723482526058,800,0.490496627835684,-15904,9.75107296137339,12,3.84146341463415,-63,-0.731707317073171,-31,1.89024390243902,3,-0.0130434782608696,-44,-0.191304347826087,132,-0.64390243902439,
3945348,9257.8125,-3584,2.19742489270386,896,0.549356223175966,-15824,9.70202329858982,16,3.78048780487805,-62,-0.975609756097561,-29,1.76829268292683,2,-0.00869565217391304,-42,-0.182608695652174,134,-0.653658536585366,
3945988,9277.34375,-3600,2.20723482526058,864,0.529736358062538,-15776,9.67259350091968,8,4.20731707317073,-69,-0.487804878048781,-25,1.52439024390244,2,-0.00869565217391304,-41,-0.178260869565217,133,-0.648780487804878,
3946628,9296.875,-3648,2.23666462293072,816,0.500306560392397,-15696,9.62354383813611,1,4.20731707317073,-69,-0.0609756097560976,-21,1.28048780487805,2,-0.00869565217391304,-42,-0.182608695652174,134,-0.653658536585366,
3947268,9316.40625,-3600,2.20723482526058,832,0.510116492949111,-15632,9.58430410790926,-2,4.02439024390244,-66,0.121951219512195,-23,1.40243902439024,5,-0.0217391304347826,-48,-0.208695652173913,134,-0.653658536585366,
3947908,9335.9375,-3568,2.18761496014715,816,0.500306560392397,-15536,9.52544451256898,6,3.90243902439024,-64,-0.365853658536585,-18,1.09756097560976,3,-0.0130434782608696,-49,-0.21304347826087,135,-0.658536585365854,
3948548,9355.46875,-3600,2.20723482526058,848,0.519926425505825,-15488,9.49601471489883,14,3.84146341463415,-63,-0.853658536585366,-16,0.975609756097561,4,-0.0173913043478261,-44,-0.191304347826087,134,-0.653658536585366,
3949188,9375,-3584,2.19742489270386,816,0.500306560392397,-15584,9.55487431023912,8,3.41463414634146,-56,-0.487804878048781,-13,0.792682926829268,3,-0.0130434782608696,-47,-0.204347826086957,135,-0.658536585365854,
3949828,9394.53125,-3568,2.18761496014715,832,0.510116492949111,-15552,9.53525444512569,-3,3.35365853658537,-55,0.182926829268293,-13,0.792682926829268,3,-0.0130434782608696,-44,-0.191304347826087,134,-0.653658536585366,
3950468,9414.0625,-3520,2.15818516247701,848,0.519926425505825,-15504,9.50582464745555,3,2.98780487804878,-49,-0.182926829268293,-10,0.609756097560976,-1,0.00434782608695652,-43,-0.18695652173913,133,-0.648780487804878,
3951108,9433.59375,-3568,2.18761496014715,912,0.559166155732679,-15520,9.51563458001226,3,2.6219512195122,-43,-0.182926829268293,-9,0.548780487804878,3,-0.0130434782608696,-46,-0.2,135,-0.658536585365854,
3951748,9453.125,-3568,2.18761496014715,992,0.608215818516248,-15536,9.52544451256898,13,2.07317073170732,-34,-0.792682926829268,-6,0.365853658536585,4,-0.0173913043478261,-50,-0.217391304347826,136,-0.663414634146342,
3952388,9472.65625,-3552,2.17780502759044,944,0.578786020846107,-15536,9.52544451256898,14,1.82926829268293,-30,-0.853658536585366,-12,0.731707317073171,1,-0.00434782608695652,-44,-0.191304347826087,134,-0.653658536585366,
3953028,9492.1875,-3600,2.20723482526058,912,0.559166155732679,-15648,9.59411404046597,20,1.58536585365854,-26,-1.21951219512195,-9,0.548780487804878,4,-0.0173913043478261,-45,-0.195652173913043,136,-0.663414634146342,
3953668,9511.71875,-3568,2.18761496014715,864,0.529736358062538,-15696,9.62354383813611,18,1.46341463414634,-24,-1.09756097560976,-5,0.304878048780488,3,-0.0130434782608696,-42,-0.182608695652174,134,-0.653658536585366,
3954308,9531.25,-3680,2.25628448804414,848,0.519926425505825,-15760,9.66278356836297,10,1.58536585365854,-26,-0.609756097560976,-5,0.304878048780488,5,-0.0217391304347826,-50,-0.217391304347826,136,-0.663414634146342,
3954948,9550.78125,-3696,2.26609442060086,816,0.500306560392397,-15808,9.69221336603311,-2,1.70731707317073,-28,0.121951219512195,-5,0.304878048780488,1,-0.00434782608695652,-42,-0.182608695652174,134,-0.653658536585366,
3955588,9570.3125,-3712,2.27590435315757,816,0.500306560392397,-15792,9.6824034334764,-6,1.95121951219512,-32,0.365853658536585,-7,0.426829268292683,3,-0.0130434782608696,-44,-0.191304347826087,133,-0.648780487804878,
3956228,9589.84375,-3744,2.295524218271,784,0.48068669527897,-15840,9.71183323114654,-8,2.19512195121951,-36,0.487804878048781,-6,0.365853658536585,3,-0.0130434782608696,-43,-0.18695652173913,133,-0.648780487804878,
3956868,9609.375,-3664,2.24647455548743,784,0.48068669527897,-15840,9.71183323114654,-8,2.37804878048781,-39,0.487804878048781,-5,0.304878048780488,2,-0.00869565217391304,-41,-0.178260869565217,134,-0.653658536585366,
3957508,9628.90625,-3680,2.25628448804414,800,0.490496627835684,-15872,9.73145309625996,-2,2.5,-41,0.121951219512195,-3,0.182926829268293,1,-0.00434782608695652,-47,-0.204347826086957,134,-0.653658536585366,
3958148,9648.4375,-3680,2.25628448804414,768,0.470876762722256,-15840,9.71183323114654,-2,2.68292682926829,-44,0.121951219512195,1,-0.0609756097560976,0,0,-41,-0.178260869565217,134,-0.653658536585366,
3958788,9667.96875,-3664,2.24647455548743,816,0.500306560392397,-15776,9.67259350091968,-5,2.98780487804878,-49,0.304878048780488,-4,0.24390243902439,2,-0.00869565217391304,-43,-0.18695652173913,133,-0.648780487804878,
3959428,9687.5,-3584,2.19742489270386,848,0.519926425505825,-15792,9.6824034334764,-12,3.29268292682927,-54,0.731707317073171,-6,0.365853658536585,2,-0.00869565217391304,-45,-0.195652173913043,136,-0.663414634146342,
3960068,9707.03125,-3600,2.20723482526058,768,0.470876762722256,-15728,9.64316370324954,-5,3.41463414634146,-56,0.304878048780488,-11,0.670731707317073,2,-0.00869565217391304,-42,-0.182608695652174,131,-0.639024390243902,
3960708,9726.5625,-3600,2.20723482526058,896,0.549356223175966,-15712,9.63335377069283,2,3.71951219512195,-61,-0.121951219512195,-6,0.365853658536585,4,-0.0173913043478261,-48,-0.208695652173913,135,-0.658536585365854,
3961348,9746.09375,-3616,2.21704475781729,880,0.539546290619252,-15664,9.60392397302268,8,3.35365853658537,-55,-0.487804878048781,-6,0.365853658536585,1,-0.00434782608695652,-44,-0.191304347826087,134,-0.653658536585366,
3961988,9765.625,-3600,2.20723482526058,768,0.470876762722256,-15712,9.63335377069283,8,3.41463414634146,-56,-0.487804878048781,-3,0.182926829268293,3,-0.0130434782608696,-45,-0.195652173913043,135,-0.658536585365854,
3962628,9785.15625,-3568,2.18761496014715,800,0.490496627835684,-15552,9.53525444512569,4,3.47560975609756,-57,-0.24390243902439,-3,0.182926829268293,1,-0.00434782608695652,-44,-0.191304347826087,135,-0.658536585365854,
3963268,9804.6875,-3584,2.19742489270386,864,0.529736358062538,-15616,9.57449417535254,-13,3.47560975609756,-57,0.792682926829268,-8,0.487804878048781,0,0,-39,-0.169565217391304,132,-0.64390243902439,
3963908,9824.21875,-3520,2.15818516247701,848,0.519926425505825,-15664,9.60392397302268,-18,3.29268292682927,-54,1.09756097560976,-4,0.24390243902439,1,-0.00434782608695652,-39,-0.169565217391304,134,-0.653658536585366,
3964548,9843.75,-3568,2.18761496014715,816,0.500306560392397,-15616,9.57449417535254,-10,3.10975609756098,-51,0.609756097560976,-3,0.182926829268293,3,-0.0130434782608696,-42,-0.182608695652174,133,-0.648780487804878,
3965188,9863.28125,-3584,2.19742489270386,832,0.510116492949111,-15696,9.62354383813611,3,2.86585365853659,-47,-0.182926829268293,1,-0.0609756097560976,2,-0.00869565217391304,-44,-0.191304347826087,133,-0.648780487804878,
3965828,9882.8125,-3712,2.27590435315757,800,0.490496627835684,-15632,9.58430410790926,-2,2.68292682926829,-44,0.121951219512195,-2,0.121951219512195,0,0,-43,-0.18695652173913,134,-0.653658536585366,
3966468,9902.34375,-3696,2.26609442060086,768,0.470876762722256,-15680,9.6137339055794,-10,2.92682926829268,-48,0.609756097560976,-1,0.0609756097560976,1,-0.00434782608695652,-42,-0.182608695652174,135,-0.658536585365854,
3967108,9921.875,-3680,2.25628448804414,752,0.461066830165543,-15776,9.67259350091968,-12,3.23170731707317,-53,0.731707317073171,1,-0.0609756097560976,5,-0.0217391304347826,-44,-0.191304347826087,135,-0.658536585365854,
3967748,9941.40625,-3600,2.20723482526058,800,0.490496627835684,-15728,9.64316370324954,-7,3.29268292682927,-54,0.426829268292683,3,-0.182926829268293,1,-0.00434782608695652,-44,-0.191304347826087,133,-0.648780487804878,
3968388,9960.9375,-3632,2.226854690374,800,0.490496627835684,-15776,9.67259350091968,-5,3.17073170731707,-52,0.304878048780488,1,-0.0609756097560976,2,-0.00869565217391304,-48,-0.208695652173913,135,-0.658536585365854,
3969028,9980.46875,-3600,2.20723482526058,704,0.431637032495402,-15872,9.73145309625996,-7,3.17073170731707,-52,0.426829268292683,4,-0.24390243902439,2,-0.00869565217391304,-43,-0.18695652173913,133,-0.648780487804878,
3969668,10000,-3632,2.226854690374,720,0.441446965052115,-15824,9.70202329858982,-6,3.41463414634146,-56,0.365853658536585,10,-0.609756097560976,1,-0.00434782608695652,-43,-0.18695652173913,134,-0.653658536585366,
3970308,10019.53125,-3632,2.226854690374,784,0.48068669527897,-15840,9.71183323114654,-1,3.35365853658537,-55,0.0609756097560976,16,-0.975609756097561,3,-0.0130434782608696,-44,-0.191304347826087,132,-0.64390243902439,
3970948,10039.0625,-3680,2.25628448804414,752,0.461066830165543,-15856,9.72164316370325,-4,3.35365853658537,-55,0.24390243902439,17,-1.03658536585366,1,-0.00434782608695652,-43,-0.18695652173913,133,-0.648780487804878,
3971588,10058.59375,-3696,2.26609442060086,784,0.48068669527897,-15888,9.74126302881668,-5,3.78048780487805,-62,0.304878048780488,16,-0.975609756097561,2,-0.00869565217391304,-41,-0.178260869565217,135,-0.658536585365854,
3972228,10078.125,-3680,2.25628448804414,800,0.490496627835684,-15808,9.69221336603311,-6,3.90243902439024,-64,0.365853658536585,17,-1.03658536585366,3,-0.0130434782608696,-48,-0.208695652173913,135,-0.658536585365854,
3972868,10097.65625,-3648,2.23666462293072,768,0.470876762722256,-15728,9.64316370324954,-1,4.26829268292683,-70,0.0609756097560976,19,-1.15853658536585,4,-0.0173913043478261,-46,-0.2,133,-0.648780487804878,
3973508,10117.1875,-3616,2.21704475781729,816,0.500306560392397,-15760,9.66278356836297,-7,4.08536585365854,-67,0.426829268292683,23,-1.40243902439024,3,-0.0130434782608696,-41,-0.178260869565217,133,-0.648780487804878,
3974148,10136.71875,-3616,2.21704475781729,784,0.48068669527897,-15744,9.65297363580625,-12,4.14634146341463,-68,0.731707317073171,24,-1.46341463414634,1,-0.00434782608695652,-43,-0.18695652173913,133,-0.648780487804878,
3974788,10156.25,-3536,2.16799509503372,832,0.510116492949111,-15808,9.69221336603311,-7,4.08536585365854,-67,0.426829268292683,30,-1.82926829268293,4,-0.0173913043478261,-47,-0.204347826086957,134,-0.653658536585366,
3975428,10175.78125,-3600,2.20723482526058,864,0.529736358062538,-15776,9.67259350091968,0,4.20731707317073,-69,0,25,-1.52439024390244,4,-0.0173913043478261,-49,-0.21304347826087,136,-0.663414634146342,
3976068,10195.3125,-3504,2.14837522992029,864,0.529736358062538,-15744,9.65297363580625,5,4.20731707317073,-69,-0.304878048780488,26,-1.58536585365854,3,-0.0130434782608696,-41,-0.178260869565217,134,-0.653658536585366,
3976708,10214.84375,-3584,2.19742489270386,864,0.529736358062538,-15872,9.73145309625996,6,3.96341463414634,-65,-0.365853658536585,28,-1.70731707317073,3,-0.0130434782608696,-43,-0.18695652173913,134,-0.653658536585366,
3977348,10234.375,-3584,2.19742489270386,928,0.568976088289393,-15840,9.71183323114654,-2,4.08536585365854,-67,0.121951219512195,30,-1.82926829268293,5,-0.0217391304347826,-46,-0.2,133,-0.648780487804878,
3977988,10253.90625,-3568,2.18761496014715,880,0.539546290619252,-15776,9.67259350091968,-8,4.32926829268293,-71,0.487804878048781,34,-2.07317073170732,2,-0.00869565217391304,-42,-0.182608695652174,133,-0.648780487804878,
3978628,10273.4375,-3536,2.16799509503372,944,0.578786020846107,-15792,9.6824034334764,-12,4.26829268292683,-70,0.731707317073171,34,-2.07317073170732,2,-0.00869565217391304,-42,-0.182608695652174,135,-0.658536585365854,
3979268,10292.96875,-3472,2.12875536480687,976,0.598405885959534,-15760,9.66278356836297,-13,4.32926829268293,-71,0.792682926829268,34,-2.07317073170732,2,-0.00869565217391304,-48,-0.208695652173913,136,-0.663414634146342,
3979908,10312.5,-3472,2.12875536480687,1008,0.618025751072961,-15744,9.65297363580625,-22,4.57317073170732,-75,1.34146341463415,30,-1.82926829268293,2,-0.00869565217391304,-48,-0.208695652173913,134,-0.653658536585366,
3980548,10332.03125,-3440,2.10913549969344,1008,0.618025751072961,-15680,9.6137339055794,-28,4.63414634146342,-76,1.70731707317073,27,-1.64634146341463,5,-0.0217391304347826,-49,-0.21304347826087,135,-0.658536585365854,
3981188,10351.5625,-3536,2.16799509503372,992,0.608215818516248,-15552,9.53525444512569,-61,5.18292682926829,-85,3.71951219512195,24,-1.46341463414634,0,0,-45,-0.195652173913043,134,-0.653658536585366,
3981828,10371.09375,-3616,2.21704475781729,1168,0.716125076640098,-15264,9.35867565910484,-168,6.09756097560976,-100,10.2439024390244,12,-0.731707317073171,2,-0.00869565217391304,-45,-0.195652173913043,134,-0.653658536585366,
3982468,10390.625,-3408,2.08951563458001,1248,0.765174739423666,-14976,9.182096873084,-285,6.15853658536585,-101,17.3780487804878,2,-0.121951219512195,2,-0.00869565217391304,-47,-0.204347826086957,136,-0.663414634146342,
3983108,10410.15625,-2896,1.77559779276517,1424,0.873083997547517,-14896,9.13304721030043,-363,5.42682926829268,-89,22.1341463414634,-4,0.24390243902439,3,-0.0130434782608696,-51,-0.221739130434783,137,-0.668292682926829,
3983748,10429.6875,-2288,1.40282035561006,1392,0.853464132434089,-14656,8.98589822194972,-381,4.57317073170732,-75,23.2317073170732,-6,0.365853658536585,2,-0.00869565217391304,-46,-0.2,136,-0.663414634146342,
3984388,10449.21875,-1856,1.13795217657879,1504,0.922133660331085,-14208,8.71122011036174,-439,4.02439024390244,-66,26.7682926829268,-21,1.28048780487805,1,-0.00434782608695652,-46,-0.2,139,-0.678048780487805,
3985028,10468.75,-1120,0.686695278969957,1280,0.784794604537094,-13456,8.2501532801962,-551,3.59756097560976,-59,33.5975609756098,-58,3.53658536585366,-1,0.00434782608695652,-48,-0.208695652173913,139,-0.678048780487805,
3985668,10488.28125,-352,0.215818516247701,1056,0.647455548743102,-11904,7.29858982219497,-830,2.5,-41,50.609756097561,-133,8.10975609756098,-1,0.00434782608695652,-50,-0.217391304347826,140,-0.682926829268293,
3986308,10507.8125,656,-0.402207234825261,1104,0.676885346413243,-9840,6.03310852237891,-1336,-3.17073170731707,52,81.4634146341463,-244,14.8780487804878,-4,0.0173913043478261,-44,-0.191304347826087,139,-0.678048780487805,
3986948,10527.34375,2368,-1.45187001839362,1248,0.765174739423666,-8320,5.10116492949111,-1876,-14.2682926829268,234,114.390243902439,-390,23.780487804878,-4,0.0173913043478261,-46,-0.2,142,-0.692682926829268,
3987588,10546.875,4928,-3.02145922746781,1184,0.725935009196812,-7648,4.68914776210914,-2152,-28.5365853658537,468,131.219512195122,-539,32.8658536585366,-9,0.0391304347826087,-43,-0.18695652173913,146,-0.712195121951219,
3988228,10566.40625,7424,-4.55180870631514,912,0.559166155732679,-7504,4.60085836909871,-2090,-42.5609756097561,698,127.439024390244,-719,43.8414634146341,-11,0.0478260869565217,-41,-0.178260869565217,148,-0.721951219512195,
3988868,10585.9375,9040,-5.54261189454322,272,0.166768853464132,-8000,4.90496627835684,-1690,-55,902,103.048780487805,-901,54.9390243902439,-18,0.0782608695652174,-39,-0.169565217391304,150,-0.731707317073171,
3989508,10605.46875,9504,-5.82709993868792,-160,-0.0980993255671367,-8144,4.99325567136726,-1210,-64.9390243902439,1065,73.780487804878,-1084,66.0975609756098,-20,0.0869565217391304,-37,-0.160869565217391,153,-0.746341463414634,
3990148,10625,9488,-5.81729000613121,-976,-0.598405885959534,-8720,5.34641324340895,-841,-75.5487804878049,1239,51.2804878048781,-1296,79.0243902439024,-23,0.1,-28,-0.121739130434783,154,-0.751219512195122,
3990788,10644.53125,8816,-5.40527283874923,-1824,-1.11833231146536,-9680,5.93500919681177,-708,-84.6951219512195,1389,43.1707317073171,-1522,92.8048780487805,-23,0.1,-30,-0.130434782608696,155,-0.75609756097561,
3991428,10664.0625,8688,-5.32679337829552,-2880,-1.76578786020846,-10848,6.65113427345187,-715,-91.6463414634146,1503,43.5975609756098,-1707,104.085365853659,-26,0.11304347826087,-25,-0.108695652173913,153,-0.746341463414634,
3992068,10683.59375,8992,-5.51318209687308,-4064,-2.49172286940527,-11376,6.97486204782342,-700,-98.6585365853659,1618,42.6829268292683,-1830,111.585365853659,-26,0.11304347826087,-17,-0.0739130434782609,155,-0.75609756097561,
