Sample, Time, ACCX, ACCY, ACCZ, MAGX, MAGY, MAGZ, GYRX, GYRY, GYRZ
0,38577.817000,-5.384,-17.202,-244.139,64.867,-318.477,-377.363,-2.500,1.760,15.780
1,38577.844000,-4.405,-16.190,-246.116,64.851,-320.414,-375.392,-0.500,-0.240,14.780
2,38577.882000,-6.363,-16.190,-245.127,63.793,-317.505,-372.423,0.500,-9.240,10.780
3,38577.896000,-5.384,-17.202,-244.139,62.842,-320.399,-372.403,1.500,-5.240,12.780
4,38577.909000,-6.363,-17.202,-245.127,60.901,-318.444,-374.340,-0.500,-5.240,11.780
5,38577.924000,-6.363,-17.202,-246.116,59.914,-317.468,-374.323,0.500,-5.240,10.780
6,38577.953000,-6.363,-15.178,-245.127,60.884,-318.445,-373.355,4.500,-7.240,8.780
7,38577.976000,-7.342,-16.190,-246.116,65.777,-318.490,-373.441,5.500,-7.240,7.780
8,38577.991000,-7.342,-16.190,-244.139,62.841,-316.527,-374.376,6.500,-1.240,8.780
9,38578.14000,-7.342,-16.190,-244.139,55.974,-316.466,-373.270,9.500,-4.240,9.780
10,38578.34000,-6.363,-18.213,-243.151,64.816,-322.351,-372.435,10.500,0.760,6.780
11,38578.51000,-7.342,-17.202,-243.151,64.868,-322.348,-375.390,10.500,-4.240,1.780
12,38578.78000,-8.321,-17.202,-242.162,64.764,-318.483,-371.455,6.500,-11.240,-4.220
13,38578.84000,-9.300,-18.213,-242.162,66.825,-320.430,-376.411,6.500,-10.240,-10.220
14,38578.129000,-6.363,-18.213,-243.151,59.923,-318.435,-374.322,7.500,5.760,-3.220
15,38578.159000,-7.342,-18.213,-242.162,59.915,-319.404,-373.337,5.500,-7.240,-4.220
16,38578.159000,-6.363,-17.202,-243.151,64.808,-321.384,-372.436,2.500,-11.240,-6.220
17,38578.173000,-8.321,-17.202,-242.162,59.005,-319.391,-377.258,1.500,-5.240,-6.220
18,38578.196000,-6.363,-17.202,-242.162,66.790,-318.497,-375.428,-0.500,6.760,-4.220
19,38578.213000,-4.405,-19.225,-243.151,60.928,-319.411,-375.323,-7.500,-0.240,-7.220
20,38578.231000,-5.384,-18.213,-240.185,61.872,-319.421,-373.371,-13.500,-13.240,-10.220
21,38578.253000,-7.342,-17.202,-242.162,67.786,-320.440,-375.444,-17.500,-14.240,-15.220
22,38578.276000,-6.363,-19.225,-242.162,57.014,-319.375,-375.254,-24.500,-4.240,-12.220
23,38578.299000,-6.363,-17.202,-243.151,64.824,-319.447,-374.408,-21.500,-9.240,-11.220
24,38578.316000,-7.342,-19.225,-243.151,57.974,-317.449,-375.273,-19.500,-3.240,-11.220
25,38578.333000,-4.405,-18.213,-243.151,57.931,-316.484,-373.305,-19.500,17.760,-10.220
26,38578.361000,-3.426,-16.190,-244.139,61.828,-318.456,-371.403,-26.500,-1.240,-11.220
27,38578.378000,-4.405,-17.202,-243.151,61.837,-319.423,-371.402,-32.500,-16.240,-8.220
28,38578.401000,-7.342,-17.202,-243.151,59.905,-316.501,-374.324,-32.500,0.760,-9.220
29,38578.416000,-4.405,-16.190,-245.127,57.957,-317.450,-374.289,-29.500,7.760,-7.220
30,38578.429000,-4.405,-17.202,-245.127,64.833,-318.479,-375.394,-30.500,-3.240,-9.220
31,38578.459000,-5.384,-16.190,-245.127,62.814,-315.561,-373.392,-32.500,-11.240,-7.220
32,38578.482000,-7.342,-16.190,-246.116,58.035,-318.414,-378.227,-27.500,-3.240,-7.220
33,38578.504000,-6.363,-16.190,-246.116,55.948,-315.499,-372.286,-25.500,3.760,-4.220
34,38578.527000,-2.447,-14.166,-244.139,64.816,-320.416,-373.422,-27.500,-6.240,-2.220
35,38578.546000,-6.363,-15.178,-246.116,58.918,-317.460,-373.321,-23.500,-14.240,-6.220
36,38578.583000,-5.384,-15.178,-246.116,58.971,-319.393,-375.289,-19.500,4.760,-1.220
37,38578.583000,-4.405,-14.166,-244.139,56.996,-317.440,-375.256,-18.500,4.760,5.780
38,38578.606000,-3.426,-14.166,-244.139,60.963,-321.345,-376.306,-19.500,-3.240,2.780
39,38578.631000,-4.405,-15.178,-243.151,54.970,-317.426,-371.282,-21.500,3.760,6.780
40,38578.647000,-4.405,-15.178,-244.139,53.064,-315.470,-375.189,-20.500,2.760,8.780
41,38578.664000,-3.426,-15.178,-245.127,62.928,-320.394,-377.327,-19.500,-10.240,7.780
42,38578.687000,-5.384,-13.154,-245.127,59.940,-316.499,-376.294,-17.500,-12.240,6.780
43,38578.707000,-6.363,-15.178,-246.116,58.000,-314.544,-378.231,-16.500,3.760,4.780
44,38578.724000,-5.384,-15.178,-243.151,57.013,-317.439,-376.241,-16.500,11.760,6.780
45,38578.747000,-4.405,-14.166,-242.162,53.117,-319.339,-376.170,-20.500,6.760,9.780
46,38578.774000,-4.405,-13.154,-243.151,54.025,-315.480,-374.221,-24.500,-10.240,7.780
47,38578.792000,-5.384,-14.166,-243.151,54.077,-315.477,-377.176,-28.500,-8.240,4.780
48,38578.817000,-6.363,-13.154,-244.139,56.009,-318.400,-374.253,-28.500,-4.240,1.780
49,38578.837000,-5.384,-14.166,-245.127,59.905,-316.501,-374.324,-29.500,-4.240,1.780
50,38578.857000,-5.384,-13.154,-246.116,58.027,-319.382,-377.241,-28.500,-8.240,0.780
51,38578.874000,-5.384,-13.154,-248.093,52.077,-316.429,-374.186,-25.500,-9.240,-0.220
52,38578.897000,-4.405,-12.142,-247.104,52.190,-319.327,-379.107,-22.500,-1.240,-0.220
53,38578.915000,-5.384,-12.142,-248.093,56.026,-316.463,-376.225,-18.500,-7.240,-0.220
54,38578.930000,-5.384,-12.142,-246.116,57.074,-316.468,-380.181,-14.500,-4.240,0.780
55,38578.954000,-4.405,-12.142,-248.093,51.161,-321.257,-375.148,-11.500,-8.240,-1.220
56,38578.977000,-5.384,-13.154,-246.116,49.220,-319.302,-377.085,-7.500,-14.240,-0.220
57,38579.9000,-6.363,-13.154,-246.116,53.142,-316.433,-379.127,-6.500,-15.240,-1.220
58,38579.28000,-5.384,-12.142,-245.127,59.014,-320.358,-377.257,-2.500,-9.240,-1.220
59,38579.47000,-5.384,-13.154,-244.139,51.193,-313.511,-381.065,-2.500,-9.240,-2.220
60,38579.59000,-5.384,-12.142,-244.139,55.109,-319.354,-378.174,-2.500,-12.240,-2.220
61,38579.88000,-5.384,-12.142,-244.139,58.988,-319.392,-376.274,-1.500,-12.240,-3.220
62,38579.106000,-7.342,-13.154,-245.127,51.124,-315.451,-376.139,-1.500,-13.240,-5.220
63,38579.122000,-5.384,-13.154,-244.139,54.034,-314.511,-375.207,-5.500,-0.240,-2.220
64,38579.148000,-6.363,-12.142,-244.139,56.079,-320.332,-377.205,-6.500,-14.240,-3.220
65,38579.167000,-8.321,-14.166,-242.162,58.987,-317.456,-377.260,-6.500,-12.240,-6.220
66,38579.179000,-6.363,-12.142,-242.162,56.987,-318.409,-374.270,-14.500,0.760,-9.220
67,38579.207000,-5.384,-12.142,-242.162,52.138,-317.394,-377.139,-19.500,-9.240,-14.220
68,38579.227000,-8.321,-12.142,-243.151,54.009,-317.416,-372.250,-25.500,-29.240,-15.220
69,38579.247000,-7.342,-11.130,-242.162,54.104,-320.315,-376.186,-28.500,-10.240,-15.220
70,38579.271000,-4.405,-11.130,-244.139,58.027,-321.318,-376.254,-27.500,-6.240,-14.220
71,38579.288000,-4.405,-11.130,-246.116,56.052,-319.365,-376.222,-25.500,-22.240,-10.220
72,38579.316000,-5.384,-11.130,-246.116,56.036,-321.302,-374.250,-22.500,-23.240,-6.220
73,38579.331000,-7.342,-11.130,-247.104,53.074,-318.373,-374.201,-21.500,-8.240,-3.220
74,38579.348000,-4.405,-11.130,-246.116,50.146,-317.378,-375.135,-19.500,-6.240,-2.220
75,38579.371000,-4.405,-11.130,-245.127,52.164,-318.360,-378.123,-16.500,-24.240,-4.220
76,38579.388000,-6.363,-10.119,-248.093,55.065,-318.389,-376.205,-13.500,-28.240,-5.220
77,38579.402000,-7.342,-10.119,-246.116,55.091,-319.355,-377.189,-8.500,-9.240,-4.220
78,38579.416000,-5.384,-10.119,-247.104,48.121,-319.300,-370.175,-4.500,6.760,-2.220
79,38579.445000,-4.405,-9.107,-244.139,52.156,-319.329,-377.137,-1.500,-5.240,-4.220
80,38579.457000,-7.342,-11.130,-246.116,51.082,-318.357,-372.197,-1.500,-12.240,-2.220
81,38579.484000,-6.363,-9.107,-246.116,49.177,-318.336,-375.117,-0.500,-6.240,1.780
82,38579.507000,105.239,-99.162,-245.127,45.256,-325.077,-371.102,448.500,-504.240,484.780
83,38579.529000,-0.489,-101.186,-193.730,52.982,-330.961,-362.371,-92.500,-1359.240,-182.220
84,38579.552000,-155.166,-45.534,-287.629,53.026,-335.798,-362.367,10.500,-81.240,-92.220
85,38579.577000,-55.312,-4.047,-273.792,53.016,-330.959,-364.341,10.500,649.760,30.780
86,38579.601000,25.943,-4.047,-257.977,45.325,-323.137,-376.027,16.500,819.760,8.780
87,38579.613000,14.195,-3.036,-257.977,47.212,-321.223,-373.110,-349.500,372.760,-166.220
88,38579.637000,7.342,44.522,-259.954,43.366,-317.312,-378.953,-68.500,13.760,-96.220
89,38579.654000,-15.174,-14.166,-267.861,41.366,-318.264,-375.963,-25.500,-171.240,-85.220
90,38579.677000,-23.985,-3.036,-273.792,49.186,-321.240,-374.129,0.500,43.760,-65.220
91,38579.704000,1.468,0.000,-262.919,50.190,-320.279,-376.117,41.500,123.760,-15.220
92,38579.719000,9.300,-3.036,-255.012,44.275,-317.325,-375.031,57.500,2.760,-19.220
93,38579.748000,2.447,-3.036,-252.046,47.185,-316.385,-374.099,65.500,-45.240,-21.220
94,38579.757000,-4.405,-4.047,-245.127,50.146,-317.378,-375.135,76.500,-65.240,-21.220
95,38579.779000,-5.384,-6.071,-242.162,54.122,-322.250,-376.184,72.500,-40.240,-15.220
96,38579.802000,-4.405,-7.083,-239.197,48.217,-322.198,-374.111,62.500,-15.240,-4.220
97,38579.824000,-4.405,-7.083,-238.208,50.182,-321.248,-375.131,49.500,-0.240,6.780
98,38579.842000,-4.405,-10.119,-237.220,53.100,-321.275,-374.198,38.500,11.760,10.780
99,38579.859000,-1.468,-10.119,-236.232,51.143,-321.257,-374.164,26.500,-0.240,9.780
100,38579.882000,-2.447,-10.119,-238.208,51.999,-315.466,-370.248,18.500,-25.240,9.780
101,38579.912000,-3.426,-10.119,-238.208,56.079,-322.267,-376.219,11.500,-38.240,13.780
102,38579.929000,-5.384,-9.107,-239.197,56.970,-318.410,-373.286,7.500,-41.240,16.780
103,38579.949000,-5.384,-9.107,-241.174,54.114,-323.218,-375.198,0.500,-46.240,22.780
104,38579.967000,-6.363,-8.095,-245.127,50.156,-320.281,-374.147,-6.500,-58.240,25.780
105,38579.993000,-11.258,-8.095,-245.127,50.165,-323.184,-373.160,1.500,-50.240,27.780
106,38580.8000,-14.195,-10.119,-244.139,52.162,-310.617,-382.070,-1146.500,1431.760,-566.220
107,38580.33000,-13.216,-408.791,-144.309,42.247,-341.508,-358.231,-456.500,-1886.240,389.780
108,38580.52000,-121.881,-39.462,-252.046,43.150,-350.233,-349.377,-29.500,-936.240,-148.220
109,38580.61000,-165.935,-13.154,-287.629,47.182,-338.647,-362.260,-5.500,1083.760,86.780
110,38580.74000,-41.606,-9.107,-258.965,44.243,-327.005,-368.128,22.500,1404.760,7.780
111,38580.107000,43.564,12.142,-250.069,40.363,-321.161,-372.989,39.500,881.760,5.780
112,38580.126000,53.354,-7.083,-242.162,45.282,-324.107,-373.072,-156.500,-192.240,-50.220
113,38580.158000,-35.732,19.225,-267.861,45.204,-325.080,-368.147,-49.500,-353.240,-117.220
114,38580.196000,-50.417,0.000,-277.745,48.225,-321.230,-375.096,2.500,63.760,-45.220
115,38580.221000,-18.111,-2.024,-265.884,41.315,-322.139,-371.035,21.500,225.760,-33.220
116,38580.223000,5.384,2.024,-254.023,43.420,-323.116,-378.947,46.500,41.760,-31.220
117,38580.229000,1.468,-1.012,-249.081,47.212,-323.159,-372.123,54.500,-107.240,-44.220
118,38580.252000,-11.258,-2.024,-247.104,44.260,-323.133,-371.086,66.500,-76.240,-35.220
119,38580.274000,-13.216,-2.024,-246.116,48.156,-323.169,-370.171,68.500,-30.240,-28.220
120,38580.292000,-6.363,-4.047,-239.197,53.101,-323.211,-373.212,59.500,3.760,-23.220
121,38580.315000,-9.300,-5.059,-237.220,53.083,-321.276,-373.214,48.500,3.760,-16.220
122,38580.333000,-9.300,-5.059,-236.232,49.152,-321.242,-372.160,36.500,27.760,-10.220
123,38580.354000,-7.342,-8.095,-236.232,46.234,-323.150,-372.106,27.500,43.760,-6.220
124,38580.372000,-4.405,-7.083,-238.208,55.014,-322.263,-371.278,19.500,38.760,-8.220
125,38580.399000,-5.384,-6.071,-240.185,52.148,-322.233,-375.165,14.500,11.760,-12.220
126,38580.422000,-7.342,-6.071,-243.151,56.062,-324.204,-374.247,8.500,-15.240,-7.220
127,38580.446000,227.610,7.083,-252.046,53.092,-322.244,-373.213,-583.500,225.760,-24.220
128,38580.464000,6.363,-93.091,-188.788,48.900,-350.293,-342.587,109.500,-2508.240,997.780
129,38580.479000,-208.031,-20.237,-285.652,42.087,-357.972,-340.489,-124.500,-2020.240,-279.220
130,38580.502000,-120.902,-11.130,-269.838,43.107,-353.139,-345.435,32.500,127.760,5.780
131,38580.522000,-25.943,0.000,-259.954,44.144,-344.433,-353.339,-5.500,1275.760,5.780
132,38580.544000,10.279,-12.142,-257.977,50.107,-331.899,-365.273,4.500,1172.760,-45.220
133,38580.559000,22.027,-14.166,-258.965,38.415,-325.982,-370.980,-55.500,555.760,-101.220
134,38580.582000,-22.027,9.107,-267.861,43.317,-326.994,-371.065,-290.500,7.760,-211.220
135,38580.602000,-28.880,35.415,-272.803,47.239,-324.125,-373.107,-3.500,113.760,-124.220
136,38580.624000,-1.468,-8.095,-263.907,46.224,-318.311,-374.080,38.500,199.760,-53.220
137,38580.647000,9.300,2.024,-255.012,50.139,-322.218,-372.176,40.500,167.760,-72.220
138,38580.666000,0.489,0.000,-250.069,45.290,-321.203,-375.045,61.500,-14.240,-54.220
139,38580.704000,-7.342,-4.047,-247.104,50.165,-323.184,-373.160,69.500,-93.240,-45.220
140,38580.704000,-8.321,-3.036,-244.139,52.061,-320.302,-371.228,74.500,-48.240,-31.220
141,38580.729000,-5.384,-3.036,-238.208,55.014,-322.263,-371.278,68.500,-7.240,-20.220
142,38580.738000,-4.405,-4.047,-239.197,55.048,-320.326,-374.234,52.500,-14.240,-11.220
143,38580.763000,-10.279,-6.071,-236.232,53.014,-321.280,-369.274,46.500,-0.240,-1.220
144,38580.785000,-10.279,-7.083,-236.232,55.031,-320.327,-373.249,35.500,61.760,1.780
145,38580.805000,-5.384,-7.083,-236.232,51.065,-320.294,-370.226,30.500,75.760,-0.220
146,38580.825000,-1.468,-8.095,-238.208,52.105,-323.203,-372.209,15.500,50.760,-0.220
147,38580.851000,-4.405,-9.107,-239.197,53.022,-318.376,-371.247,4.500,10.760,-0.220
148,38580.873000,-5.384,-8.095,-240.185,52.147,-320.297,-376.151,-4.500,-23.240,3.780
149,38580.888000,488.015,516.047,6.919,39.427,-320.181,-375.927,-1131.500,-6.240,156.780
150,38580.911000,106.218,-205.407,-158.147,46.912,-367.699,-331.703,-575.500,-3567.240,437.780
151,38580.927000,-347.044,-8.095,-290.595,40.803,-383.146,-309.919,-94.500,-2317.240,-540.220
152,38580.953000,-209.989,5.059,-286.641,38.871,-378.287,-313.828,-103.500,1093.760,99.780
153,38580.973000,-88.597,-6.071,-274.780,42.139,-357.969,-343.443,-28.500,2040.760,-47.220
154,38580.996000,-42.585,-27.320,-278.734,41.243,-342.469,-356.243,-29.500,2278.760,-77.220
155,38581.15000,45.522,-8.095,-239.197,40.371,-320.192,-373.974,-350.500,2051.760,-89.220
156,38581.42000,73.912,69.818,-237.220,34.500,-320.139,-373.871,-78.500,587.760,-144.220
157,38581.58000,-13.216,-7.083,-275.768,35.522,-323.049,-374.870,-7.500,-425.240,-97.220
158,38581.87000,-51.396,-2.024,-282.687,43.334,-326.993,-372.050,2.500,11.760,-77.220
159,38581.101000,-6.363,8.095,-264.896,43.341,-320.217,-375.996,46.500,270.760,-18.220
160,38581.123000,11.258,1.012,-249.081,41.435,-318.260,-379.902,58.500,70.760,-31.220
161,38581.141000,6.363,1.012,-245.127,45.289,-319.267,-376.031,65.500,-142.240,-39.220
162,38581.162000,-10.279,0.000,-246.116,47.212,-323.159,-372.123,74.500,-190.240,-53.220
163,38581.174000,-16.153,0.000,-246.116,44.276,-321.196,-373.058,71.500,-133.240,-51.220
164,38581.197000,-14.195,-1.012,-245.127,48.191,-323.168,-372.140,69.500,-48.240,-40.220
165,38581.219000,-12.237,-1.012,-244.139,49.169,-323.176,-372.158,62.500,-23.240,-35.220
166,38581.239000,-12.237,1.012,-247.104,48.165,-322.201,-371.156,56.500,-11.240,-29.220
167,38581.262000,-13.216,-1.012,-250.069,46.242,-322.181,-373.091,56.500,-4.240,-35.220
168,38581.284000,-15.174,-2.024,-250.069,49.169,-321.241,-373.144,63.500,36.760,-34.220
169,38581.299000,-9.300,-6.071,-251.058,52.062,-324.173,-369.254,66.500,-1.240,-40.220
170,38581.322000,-9.300,-8.095,-251.058,49.143,-322.210,-371.174,73.500,-62.240,-54.220
171,38581.344000,-9.300,-13.154,-248.093,51.066,-324.165,-368.252,77.500,-80.240,-58.220
172,38581.363000,-3.426,-16.190,-241.174,56.972,-324.217,-370.326,71.500,-100.240,-65.220
173,38581.392000,-2.447,-21.249,-234.255,59.873,-324.246,-368.408,62.500,-72.240,-71.220
174,38581.401000,1.468,-24.285,-224.371,54.071,-324.188,-372.243,37.500,51.760,-58.220
175,38581.447000,3.426,-29.344,-204.602,55.984,-321.305,-371.296,-12.500,242.760,-22.220
176,38581.463000,8.321,-31.368,-180.880,52.086,-315.461,-375.172,-115.500,511.760,44.780
177,38581.465000,36.711,-25.296,-167.042,57.046,-309.694,-382.157,-247.500,631.760,120.780
178,38581.500000,64.122,-17.202,-165.066,52.220,-299.967,-390.943,-363.500,484.760,158.780
179,38581.502000,71.954,-12.142,-165.066,42.452,-299.877,-391.755,-492.500,429.760,244.780
180,38581.526000,73.912,-1.012,-170.996,30.726,-293.962,-395.492,-542.500,474.760,284.780
181,38581.548000,57.270,2.024,-180.880,24.862,-287.133,-399.334,-625.500,892.760,419.780
182,38581.568000,60.207,9.107,-187.799,3.443,-266.605,-415.715,-730.500,1641.760,651.780
183,38581.591000,95.449,14.166,-176.927,-17.997,-234.463,-437.031,-862.500,2119.760,894.780
184,38581.608000,157.124,23.273,-167.042,-22.018,-222.819,-436.974,-985.500,1852.760,1005.780
185,38581.636000,178.662,39.462,-162.100,-49.343,-202.240,-451.281,-1128.500,1259.760,1070.780
186,38581.656000,165.935,52.617,-166.054,-65.113,-193.393,-449.044,-1283.500,878.760,1175.780
187,38581.673000,146.356,66.783,-165.066,-91.605,-181.542,-450.558,-1436.500,617.760,1259.780
188,38581.693000,148.314,86.008,-164.077,-109.305,-177.515,-447.296,-1501.500,426.760,1321.780
189,38581.712000,131.671,113.328,-164.077,-142.729,-179.157,-436.858,-1612.500,-215.240,1322.780
190,38581.733000,107.197,129.518,-179.892,-159.492,-181.917,-427.698,-1720.500,-737.240,1326.780
191,38581.768000,80.765,132.553,-193.730,-194.855,-189.347,-415.251,-1783.500,-991.240,1389.780
192,38581.785000,74.891,144.696,-189.776,-223.584,-195.884,-391.108,-1809.500,-1071.240,1447.780
193,38581.802000,74.891,158.862,-179.892,-245.301,-195.699,-379.895,-1839.500,-1130.240,1477.780
194,38581.818000,90.554,173.028,-176.927,-272.073,-202.255,-355.786,-1900.500,-1319.240,1492.780
195,38581.835000,71.954,187.194,-193.730,-287.918,-207.930,-341.717,-1922.500,-1819.240,1501.780
196,38581.861000,45.522,202.372,-199.660,-319.781,-215.420,-305.704,-1894.500,-2107.240,1569.780
197,38581.876000,24.964,225.644,-191.753,-323.884,-223.138,-290.856,-1859.500,-2102.240,1601.780
198,38581.906000,9.300,241.834,-199.660,-359.698,-222.851,-256.751,-1786.500,-1940.240,1679.780
199,38581.918000,-21.048,247.905,-202.625,-388.752,-209.080,-224.751,-1658.500,-1677.240,1776.780
200,38581.941000,-22.027,249.929,-190.764,-397.837,-203.209,-211.799,-1527.500,-1131.240,1885.780
201,38581.963000,11.258,253.976,-194.718,-422.945,-181.729,-185.784,-1482.500,-655.240,2010.780
202,38581.981000,21.048,259.036,-190.764,-433.979,-170.999,-175.757,-1438.500,-643.240,2073.780
203,38582.3000,17.132,260.047,-185.822,-445.362,-148.674,-151.955,-1416.500,-773.240,2147.780
204,38582.21000,17.132,271.178,-184.834,-463.369,-132.082,-137.873,-1399.500,-863.240,2286.780
205,38582.41000,21.048,288.379,-188.788,-472.865,-105.907,-112.140,-1371.500,-918.240,2466.780
206,38582.54000,24.964,296.474,-199.660,-480.022,-87.472,-104.159,-1329.500,-948.240,2532.780
207,38582.76000,12.237,286.356,-213.498,-486.541,-56.482,-83.407,-1187.500,-1022.240,2563.780
208,38582.101000,-9.300,256.000,-221.405,-491.086,-23.574,-64.660,-985.500,-910.240,2457.780
209,38582.121000,-22.027,231.715,-222.394,-498.234,-6.106,-56.679,-807.500,-614.240,2282.780
210,38582.148000,-18.111,216.538,-226.347,-496.778,21.917,-42.955,-675.500,-322.240,2006.780
211,38582.163000,-7.342,213.502,-227.336,-496.910,32.557,-40.996,-547.500,-227.240,1685.780
212,38582.186000,-20.069,198.324,-226.347,-500.127,51.926,-35.055,-362.500,-246.240,1319.780
213,38582.223000,-15.174,190.229,-215.475,-489.470,59.565,-33.284,-238.500,-157.240,934.780
214,38582.226000,-1.468,185.170,-214.486,-491.532,67.320,-31.287,-190.500,-137.240,567.780
215,38582.238000,20.069,188.206,-200.649,-492.582,73.133,-30.291,-72.500,-73.240,417.780
216,38582.266000,30.837,183.146,-188.788,-495.473,70.258,-31.221,17.500,-214.240,108.780
217,38582.283000,32.795,175.051,-179.892,-494.434,69.285,-34.192,97.500,-301.240,-183.220
218,38582.306000,35.732,171.004,-165.066,-490.511,68.282,-34.260,144.500,-264.240,-431.220
219,38582.323000,35.732,177.075,-166.054,-492.319,59.597,-38.156,161.500,-218.240,-656.220
220,38582.347000,37.690,184.158,-170.008,-499.027,49.988,-40.979,194.500,-128.240,-849.220
221,38582.363000,31.816,191.241,-179.892,-498.807,33.546,-44.901,236.500,-77.240,-1035.220
222,38582.389000,18.111,201.360,-191.753,-493.633,16.095,-51.864,327.500,-10.240,-1258.220
223,38582.412000,-2.447,215.526,-201.637,-500.349,3.582,-52.715,380.500,35.760,-1384.220
224,38582.435000,-3.426,231.715,-209.544,-498.042,-15.774,-62.577,482.500,123.760,-1612.220
225,38582.457000,-3.426,254.988,-214.486,-493.881,-33.218,-67.553,615.500,9.760,-1837.220
226,38582.480000,-19.090,273.202,-208.556,-488.453,-65.173,-81.394,725.500,-91.240,-2025.220
227,38582.500000,-26.922,277.249,-210.533,-489.246,-77.737,-85.303,751.500,-129.240,-2188.220
228,38582.519000,-29.859,279.273,-217.452,-478.924,-115.544,-96.270,765.500,-185.240,-2358.220
229,38582.534000,-32.795,291.415,-221.405,-469.872,-127.225,-104.292,804.500,-284.240,-2510.220
230,38582.552000,-47.480,287.368,-224.371,-454.580,-166.040,-119.284,845.500,-390.240,-2626.220
231,38582.573000,-66.080,275.225,-230.301,-440.360,-207.755,-127.363,838.500,-378.240,-2763.220
232,38582.599000,-67.059,282.308,-239.197,-428.336,-227.204,-133.459,835.500,-333.240,-2824.220
233,38582.617000,-66.080,291.415,-247.104,-396.547,-266.178,-140.867,889.500,-316.240,-2938.220
234,38582.649000,-80.765,291.415,-250.069,-384.515,-284.659,-147.950,988.500,-273.240,-2992.220
235,38582.687000,-98.386,290.403,-250.069,-347.792,-316.899,-161.360,1100.500,-59.240,-2984.220
236,38582.704000,-96.428,281.296,-248.093,-327.898,-335.449,-170.550,1161.500,225.760,-2995.220
237,38582.706000,-64.122,271.178,-256.988,-286.371,-359.996,-183.069,1216.500,227.760,-3042.220
238,38582.718000,-53.354,260.047,-254.023,-237.968,-387.508,-195.707,1268.500,33.760,-3098.220
239,38582.745000,-61.185,245.881,-250.069,-217.191,-403.168,-200.979,1292.500,-94.240,-3141.220
240,38582.788000,-58.249,234.751,-246.116,-171.908,-420.017,-208.651,1298.500,-106.240,-3162.220
241,38582.792000,-53.354,221.597,-247.104,-139.503,-430.951,-210.196,1332.500,-171.240,-3167.220
242,38582.800000,-52.375,206.419,-245.127,-86.584,-442.074,-210.135,1382.500,-229.240,-3149.220
243,38582.823000,-47.480,192.253,-233.266,-57.158,-450.080,-210.646,1390.500,-224.240,-3089.220
244,38582.846000,-39.648,168.980,-229.313,-1.452,-454.462,-205.720,1394.500,-302.240,-3004.220
245,38582.866000,-32.795,147.731,-220.417,28.865,-458.611,-203.298,1396.500,-401.240,-2909.220
246,38582.888000,-39.648,123.447,-215.475,79.512,-454.247,-193.370,1373.500,-482.240,-2807.220
247,38582.906000,-42.585,104.221,-211.521,135.943,-448.006,-179.609,1355.500,-428.240,-2749.220
248,38582.926000,-35.732,90.055,-203.614,161.244,-444.373,-174.155,1352.500,-361.240,-2730.220
249,38582.953000,-33.774,66.783,-200.649,210.772,-432.266,-160.278,1341.500,-305.240,-2692.220
250,38582.972000,-11.258,44.522,-193.730,230.055,-425.684,-147.829,1318.500,-327.240,-2557.220
251,38582.999000,-2.447,13.154,-178.903,281.408,-406.826,-130.055,1269.500,-679.240,-2410.220
252,38583.13000,-19.090,-14.166,-168.031,300.638,-396.376,-116.625,1187.500,-907.240,-2295.220
253,38583.27000,-18.111,-31.368,-160.124,329.348,-381.193,-88.602,1085.500,-1068.240,-2221.220
254,38583.56000,-18.111,-46.545,-161.112,363.877,-360.259,-60.688,1008.500,-1216.240,-2186.220
255,38583.71000,-35.732,-63.747,-158.147,381.113,-343.986,-48.214,928.500,-1064.240,-2130.220
256,38583.88000,-43.564,-76.901,-149.251,411.832,-324.946,-25.153,839.500,-737.240,-2078.220
257,38583.113000,-11.258,-104.221,-137.390,422.263,-309.576,-14.527,765.500,-585.240,-1980.220
258,38583.136000,15.174,-115.352,-124.541,439.331,-278.794,-0.098,725.500,-494.240,-1920.220
259,38583.152000,22.027,-129.518,-121.575,452.724,-264.417,9.493,648.500,-465.240,-1767.220
260,38583.173000,28.880,-141.660,-110.703,470.798,-240.418,25.881,595.500,-526.240,-1630.220
261,38583.196000,36.711,-158.862,-102.795,471.497,-226.892,34.713,534.500,-472.240,-1458.220
262,38583.229000,44.543,-163.921,-100.819,480.965,-207.640,42.398,448.500,-431.240,-1285.220
263,38583.248000,42.585,-178.087,-99.830,491.344,-192.273,55.979,371.500,-332.240,-1086.220
264,38583.267000,46.501,-188.206,-99.830,501.975,-181.732,57.747,271.500,-173.240,-874.220
265,38583.276000,38.669,-198.324,-105.761,496.880,-167.180,61.758,187.500,-95.240,-696.220
266,38583.298000,34.753,-201.360,-111.691,503.685,-164.341,62.619,155.500,-23.240,-535.220
267,38583.321000,26.922,-206.419,-121.575,508.488,-152.776,61.536,106.500,62.760,-462.220
268,38583.343000,23.006,-206.419,-125.529,503.543,-150.798,63.590,66.500,58.760,-344.220
269,38583.360000,18.111,-207.431,-132.448,511.258,-146.037,67.386,35.500,35.760,-253.220
270,38583.381000,-0.489,-209.455,-138.378,503.446,-142.093,64.566,19.500,24.760,-174.220
271,38583.403000,4.405,-206.419,-140.355,511.256,-140.229,64.426,0.500,159.760,-111.220
272,38583.423000,5.384,-207.431,-143.320,511.221,-136.360,64.422,-12.500,151.760,-47.220
273,38583.453000,1.468,-201.360,-142.332,504.416,-141.134,64.548,-10.500,117.760,-4.220
274,38583.468000,-0.489,-200.348,-144.309,507.412,-142.125,61.543,-6.500,178.760,47.780
275,38583.488000,4.405,-202.372,-138.378,508.382,-143.103,62.511,-9.500,222.760,82.780
276,38583.508000,18.111,-201.360,-132.448,504.511,-142.097,59.625,-29.500,262.760,167.780
277,38583.526000,18.111,-200.348,-129.483,504.660,-150.800,55.695,-51.500,192.760,236.780
278,38583.551000,32.795,-198.324,-122.564,506.653,-156.623,56.651,-87.500,220.760,329.780
279,38583.573000,45.522,-197.312,-117.622,505.823,-161.445,50.764,-136.500,214.760,449.780
280,38583.593000,62.164,-191.241,-114.656,497.192,-169.098,45.019,-205.500,283.760,590.780
281,38583.613000,71.954,-179.099,-111.691,492.546,-186.462,40.200,-263.500,338.760,800.780
282,38583.633000,62.164,-169.992,-113.668,493.630,-194.208,38.221,-323.500,413.760,1013.780
283,38583.662000,44.543,-160.885,-125.529,480.351,-211.482,23.709,-372.500,683.760,1267.780
284,38583.681000,46.501,-168.980,-136.402,472.751,-224.949,17.952,-409.500,892.760,1404.780
285,38583.683000,56.291,-151.779,-150.239,461.630,-250.941,-3.478,-512.500,1034.760,1595.780
286,38583.709000,47.480,-132.553,-149.251,445.565,-278.827,-20.882,-547.500,920.760,1717.780
287,38583.732000,43.564,-125.470,-146.286,428.163,-288.334,-27.454,-584.500,717.760,1826.780
288,38583.758000,32.795,-115.352,-160.124,407.188,-316.176,-43.786,-639.500,410.760,1908.780
289,38583.779000,-17.132,-107.257,-174.950,395.666,-328.640,-49.474,-626.500,367.760,2017.780
290,38583.800000,-33.774,-93.091,-165.066,371.790,-354.518,-68.710,-658.500,703.760,2114.780
291,38583.815000,-26.922,-75.889,-163.089,348.524,-363.003,-76.164,-722.500,786.760,2122.780
292,38583.831000,-24.964,-69.818,-172.973,315.885,-389.767,-97.214,-746.500,720.760,2155.780
293,38583.851000,-54.333,-66.783,-184.834,283.070,-404.925,-114.336,-770.500,615.760,2179.780
294,38583.874000,-66.080,-56.664,-177.915,265.745,-413.460,-125.832,-789.500,779.760,2177.780
295,38583.906000,-52.375,-36.427,-176.927,228.081,-427.603,-145.823,-857.500,936.760,2189.780
296,38583.907000,-32.795,-4.047,-185.822,213.612,-431.330,-155.407,-948.500,718.760,2244.780
297,38583.928000,-51.396,14.166,-199.660,169.929,-442.525,-168.404,-963.500,343.760,2340.780
298,38583.950000,-92.512,14.166,-218.440,142.732,-450.975,-174.804,-938.500,386.760,2411.780
299,38583.976000,-105.239,17.202,-230.301,98.025,-453.453,-189.761,-908.500,713.760,2421.780
300,38583.996000,-72.933,44.522,-225.359,81.486,-454.264,-194.390,-907.500,799.760,2378.780
301,38584.21000,-42.585,74.877,-234.255,40.649,-451.940,-209.421,-938.500,602.760,2382.780
302,38584.34000,-86.639,73.866,-259.954,-7.254,-452.469,-210.542,-928.500,126.760,2419.780
303,38584.61000,-113.071,70.830,-264.896,-29.672,-454.195,-214.081,-865.500,308.760,2417.780
304,38584.88000,-85.660,81.960,-256.000,-74.746,-443.143,-215.266,-821.500,565.760,2400.780
305,38584.103000,-52.375,110.292,-254.023,-96.188,-437.135,-222.769,-820.500,167.760,2468.780
306,38584.136000,-82.723,119.399,-256.000,-134.603,-426.155,-213.242,-761.500,-235.240,2532.780
307,38584.169000,-102.302,125.470,-238.208,-154.216,-426.948,-209.941,-726.500,-61.240,2462.780
308,38584.169000,-112.092,126.482,-246.116,-189.609,-412.118,-207.363,-722.500,251.760,2425.780
309,38584.181000,-76.849,120.411,-241.174,-228.044,-393.396,-200.798,-770.500,225.760,2549.780
310,38584.201000,-59.228,131.542,-230.301,-253.609,-379.621,-200.362,-749.500,-2.240,2551.780
311,38584.223000,-105.239,147.731,-226.347,-288.129,-358.999,-194.853,-675.500,-99.240,2531.780
312,38584.247000,-108.176,143.684,-223.382,-296.125,-346.355,-191.773,-678.500,344.760,2514.780
313,38584.266000,-69.017,150.767,-227.336,-334.561,-319.890,-189.155,-776.500,349.760,2496.780
314,38584.287000,-49.438,172.016,-221.405,-344.540,-306.261,-185.057,-817.500,149.760,2487.780
315,38584.304000,-53.354,190.229,-218.440,-373.338,-278.926,-174.735,-851.500,56.760,2411.780
316,38584.327000,-74.891,198.324,-220.417,-387.275,-260.424,-170.572,-897.500,402.760,2265.780
317,38584.341000,-63.143,191.241,-215.475,-412.150,-236.027,-159.331,-1055.500,608.760,2219.780
318,38584.355000,-19.090,204.395,-234.255,-435.096,-204.875,-150.102,-1083.500,417.760,2202.780
319,38584.386000,-22.027,240.822,-237.220,-436.303,-191.328,-144.189,-964.500,-44.240,2138.780
320,38584.417000,-62.164,249.929,-230.301,-455.351,-162.148,-133.058,-846.500,24.760,2036.780
321,38584.431000,-65.101,235.763,-234.255,-465.443,-145.622,-124.038,-877.500,220.760,2060.780
322,38584.466000,-30.837,243.858,-254.023,-472.757,-121.388,-110.155,-736.500,-187.240,2070.780
323,38584.474000,-53.354,251.953,-245.127,-471.047,-103.997,-105.283,-518.500,-331.240,1965.780
324,38584.492000,-89.576,234.751,-235.243,-486.042,-78.716,-100.125,-396.500,48.760,1780.780
325,38584.510000,-44.543,209.455,-240.185,-491.218,-55.458,-96.123,-344.500,154.760,1619.780
326,38584.532000,-39.648,201.360,-234.255,-487.523,-42.923,-90.296,-326.500,-135.240,1476.780
327,38584.555000,-54.333,203.383,-234.255,-491.649,-25.477,-87.291,-314.500,-281.240,1378.780
328,38584.578000,-87.618,185.170,-231.290,-491.753,-23.547,-82.369,-229.500,-392.240,1122.780
329,38584.605000,-77.828,161.897,-228.324,-496.761,-10.926,-82.295,-134.500,-231.240,793.780
330,38584.624000,-38.669,172.016,-227.336,-488.051,-6.172,-79.501,-91.500,-136.240,454.780
331,38584.639000,-40.627,183.146,-223.382,-491.957,-3.233,-81.404,-11.500,-455.240,134.780
332,38584.657000,-56.291,184.158,-224.371,-737.505,-8.740,-76.069,39.500,-587.240,-108.220
333,38584.679000,-65.101,184.158,-222.394,-496.787,-11.896,-80.324,102.500,-434.240,-326.220
334,38584.702000,-63.143,186.182,-219.429,-491.762,-22.580,-82.370,167.500,-234.240,-564.220
335,38584.722000,-60.207,194.277,-229.313,-496.515,-28.335,-87.201,220.500,-160.240,-810.220
336,38584.739000,-71.954,216.538,-243.151,-488.440,-45.814,-92.246,251.500,-174.240,-935.220
337,38584.764000,-99.365,237.787,-253.035,-492.309,-52.552,-91.185,372.500,-185.240,-1175.220
338,38584.784000,-120.902,236.775,-253.035,-483.055,-78.740,-103.131,544.500,-53.240,-1427.220
339,38584.802000,-114.050,235.763,-256.988,-484.889,-86.458,-106.043,649.500,147.760,-1685.220
340,38584.818000,-102.302,248.917,-260.942,-477.618,-111.662,-116.971,713.500,142.760,-1923.220
341,38584.839000,-110.134,254.988,-261.931,-461.409,-143.714,-131.988,795.500,-27.240,-2160.220
342,38584.864000,-114.050,252.964,-256.000,-450.390,-160.252,-138.070,826.500,-104.240,-2396.220
343,38584.878000,-105.239,252.964,-253.035,-432.249,-197.163,-149.177,813.500,-215.240,-2636.220
344,38584.900000,-100.344,259.036,-253.035,-426.087,-219.462,-154.182,805.500,-322.240,-2860.220
345,38584.921000,-114.050,265.107,-251.058,-399.225,-260.329,-158.547,815.500,-508.240,-2941.220
346,38584.938000,-119.924,254.988,-252.046,-386.214,-278.819,-165.647,844.500,-444.240,-3056.220
347,38584.967000,-97.407,244.870,-253.035,-346.598,-315.928,-174.180,823.500,-305.240,-3179.220
348,38584.987000,-88.597,238.798,-254.023,-309.986,-354.951,-177.735,832.500,-399.240,-3332.220
349,38584.993000,-93.491,227.668,-255.012,-281.442,-369.718,-180.192,827.500,-461.240,-3431.220
350,38585.27000,-90.554,216.538,-254.023,-230.188,-403.068,-184.998,834.500,-379.240,-3512.220
351,38585.48000,-84.681,202.372,-249.081,-210.616,-414.861,-179.423,847.500,-267.240,-3563.220
352,38585.68000,-68.038,193.265,-246.116,-158.447,-437.577,-186.226,868.500,-227.240,-3554.220
353,38585.93000,-62.164,175.051,-233.266,-123.107,-446.602,-188.810,887.500,-254.240,-3531.220
354,38585.116000,-42.585,154.814,-222.394,-69.243,-459.671,-185.810,878.500,-267.240,-3478.220
355,38585.136000,-32.795,131.542,-222.394,-42.875,-461.850,-182.336,864.500,-430.240,-3443.220
356,38585.165000,-37.690,108.269,-218.440,14.797,-471.090,-175.470,857.500,-595.240,-3341.220
357,38585.178000,-49.438,83.984,-205.591,73.204,-470.673,-159.768,848.500,-631.240,-3189.220
358,38585.191000,-49.438,62.735,-192.741,105.346,-466.135,-154.435,811.500,-605.240,-3054.220
359,38585.218000,-34.753,47.557,-186.811,153.031,-462.714,-142.485,755.500,-701.240,-2946.220
360,38585.235000,-18.111,29.344,-178.903,183.034,-453.330,-129.245,671.500,-973.240,-2860.220
361,38585.256000,-24.964,10.119,-172.973,224.674,-445.993,-109.316,579.500,-1292.240,-2748.220
362,38585.273000,-41.606,-4.047,-164.077,239.955,-435.510,-93.848,524.500,-1355.240,-2674.220
363,38585.298000,-29.859,-29.344,-153.205,287.327,-420.492,-70.092,390.500,-1473.240,-2529.220
364,38585.312000,-18.111,-49.581,-155.181,317.845,-398.559,-37.186,252.500,-1828.240,-2451.220
365,38585.341000,-23.006,-65.771,-149.251,340.938,-390.084,-19.885,161.500,-2194.240,-2352.220
366,38585.343000,-48.459,-90.055,-140.355,370.477,-364.271,11.065,57.500,-2314.240,-2240.220
367,38585.375000,-62.164,-84.996,-151.228,383.835,-349.896,22.625,-94.500,-2073.240,-2257.220
368,38585.392000,-69.996,-94.103,-172.973,407.701,-319.179,39.887,-179.500,-1359.240,-2185.220
369,38585.414000,-37.690,-108.269,-165.066,424.185,-306.756,41.550,-191.500,-707.240,-1941.220
370,38585.432000,-11.258,-123.447,-155.181,438.544,-279.806,45.202,-186.500,-550.240,-1749.220
371,38585.461000,6.363,-127.494,-164.077,456.948,-257.724,43.866,-191.500,-391.240,-1653.220
372,38585.481000,8.321,-137.613,-170.008,465.551,-239.425,45.662,-115.500,-149.240,-1424.220
373,38585.509000,26.922,-151.779,-165.066,474.206,-223.059,45.489,-52.500,8.760,-1116.220
374,38585.528000,14.195,-166.957,-160.124,481.065,-224.089,45.369,6.500,-9.240,-874.220
375,38585.551000,12.237,-167.968,-161.112,479.813,-203.770,50.290,24.500,45.760,-698.220
376,38585.583000,11.258,-178.087,-163.089,487.666,-202.871,48.181,47.500,58.760,-541.220
377,38585.597000,2.447,-183.146,-160.124,489.553,-197.086,49.125,57.500,54.760,-420.220
378,38585.616000,-16.153,-190.229,-158.147,487.577,-193.197,48.171,57.500,91.760,-326.220
379,38585.631000,-21.048,-192.253,-157.158,491.403,-185.495,49.079,49.500,146.760,-282.220
380,38585.648000,-5.384,-188.206,-158.147,495.290,-182.628,49.007,54.500,101.760,-212.220
381,38585.657000,-13.216,-189.217,-154.193,488.406,-180.632,50.111,56.500,-8.240,-120.220
382,38585.684000,-33.774,-190.229,-155.181,494.224,-178.753,51.974,55.500,23.760,-32.220
383,38585.707000,-46.501,-191.241,-155.181,494.259,-180.686,50.992,84.500,128.760,42.780
384,38585.725000,-47.480,-193.265,-147.274,494.286,-185.524,51.981,94.500,190.760,73.780
385,38585.752000,-45.522,-194.277,-147.274,491.299,-185.501,54.987,75.500,119.760,78.780
386,38585.769000,-50.417,-192.253,-151.228,489.394,-185.480,52.068,55.500,122.760,97.780
387,38585.787000,-56.291,-193.265,-151.228,492.365,-189.376,52.020,46.500,185.760,122.780
388,38585.814000,-56.291,-191.241,-151.228,489.430,-191.285,53.058,49.500,197.760,141.780
389,38585.829000,-62.164,-188.206,-146.286,491.413,-190.334,51.053,50.500,224.760,169.780
390,38585.856000,-60.207,-186.182,-144.309,489.500,-193.217,50.106,31.500,326.760,187.780
391,38585.873000,-43.564,-185.170,-145.297,491.615,-202.905,46.142,9.500,356.760,239.780
392,38585.896000,-28.880,-187.194,-142.332,481.873,-201.846,43.360,-2.500,344.760,299.780
393,38585.913000,-5.384,-180.111,-140.355,481.961,-209.584,42.383,-39.500,357.760,350.780
394,38585.941000,16.153,-177.075,-137.390,482.022,-208.613,38.443,-68.500,371.760,443.780
395,38585.960000,32.795,-174.040,-134.425,479.280,-220.190,33.583,-107.500,362.760,626.780
396,38585.973000,14.195,-174.040,-137.390,471.655,-238.498,31.770,-121.500,314.760,817.780
397,38586.5000,15.174,-166.957,-140.355,463.949,-240.355,26.002,-144.500,341.760,904.780
398,38586.23000,29.859,-158.862,-137.390,453.520,-263.468,19.322,-165.500,512.760,1083.780
399,38586.43000,38.669,-148.743,-133.436,447.789,-267.279,13.521,-200.500,531.760,1248.780
400,38586.61000,22.027,-132.553,-143.320,428.580,-291.278,6.014,-269.500,439.760,1403.780
401,38586.77000,0.489,-131.542,-154.193,425.908,-306.723,-0.812,-322.500,544.760,1587.780
402,38586.106000,6.363,-115.352,-145.297,404.906,-329.727,-18.134,-365.500,751.760,1772.780
403,38586.128000,13.216,-84.996,-152.216,380.872,-349.807,-31.467,-449.500,722.760,1889.780
404,38586.141000,-19.090,-67.794,-176.927,368.389,-364.196,-37.136,-469.500,631.760,2019.780
405,38586.163000,-24.964,-48.569,-173.961,328.822,-386.062,-56.100,-470.500,750.760,2111.780
406,38586.192000,-29.859,-31.368,-186.811,312.510,-396.540,-68.597,-509.500,917.760,2296.780
407,38586.206000,-62.164,-30.356,-194.718,277.757,-415.551,-84.695,-509.500,915.760,2423.780
408,38586.223000,-54.333,-19.225,-193.730,263.464,-430.882,-98.207,-529.500,1108.760,2558.780
409,38586.251000,-47.480,1.012,-210.533,217.929,-445.925,-115.104,-586.500,968.760,2651.780
410,38586.266000,-77.828,19.225,-226.347,172.271,-457.103,-127.081,-547.500,527.760,2773.780
411,38586.288000,-99.365,36.427,-221.405,141.099,-460.682,-132.432,-453.500,272.760,2917.780
412,38586.303000,-105.239,56.664,-215.475,94.333,-472.827,-136.513,-387.500,2.760,3003.780
413,38586.312000,-128.734,64.759,-228.324,71.829,-476.494,-134.141,-339.500,-326.240,3006.780
414,38586.341000,-158.103,67.794,-248.093,17.954,-484.719,-125.303,-288.500,-400.240,3012.780
415,38586.363000,-176.704,76.901,-247.104,-11.322,-489.287,-126.748,-130.500,-389.240,3033.780
416,38586.381000,-188.451,79.937,-229.313,-55.467,-485.989,-121.049,13.500,-186.240,2940.780
417,38586.403000,-178.662,66.783,-216.463,-77.004,-480.954,-122.643,40.500,77.760,2715.780
418,38586.443000,-148.314,69.818,-221.405,-118.129,-469.935,-125.866,-30.500,254.760,2531.780
419,38586.455000,-147.335,84.996,-231.290,-149.418,-459.002,-132.216,-40.500,213.760,2495.780
420,38586.483000,-165.935,91.067,-217.452,-172.955,-452.984,-131.807,19.500,377.760,2443.780
421,38586.503000,-157.124,83.984,-209.544,-205.250,-433.333,-141.103,-25.500,700.760,2302.780
422,38586.513000,-133.629,89.043,-224.371,-223.861,-425.422,-143.736,-61.500,763.760,2228.780
423,38586.522000,-121.881,102.198,-236.232,-254.165,-405.786,-155.037,-89.500,634.760,2199.780
424,38586.555000,-121.881,118.387,-231.290,-261.095,-393.146,-156.898,-109.500,569.760,2132.780
425,38586.577000,-111.113,122.435,-226.347,-285.614,-373.568,-163.378,-211.500,685.760,1965.780
426,38586.591000,-81.744,133.565,-227.336,-311.181,-353.986,-165.902,-366.500,623.760,1886.780
427,38586.622000,-64.122,153.802,-215.475,-327.913,-343.193,-165.618,-456.500,390.760,1872.780
428,38586.626000,-66.080,173.028,-215.475,-348.804,-322.700,-156.413,-536.500,76.760,1969.780
429,38586.650000,-87.618,191.241,-224.371,-362.645,-309.033,-155.199,-501.500,-173.240,2092.780
430,38586.662000,-106.218,203.383,-224.371,-385.407,-286.581,-151.870,-396.500,-169.240,2104.780
431,38586.695000,-112.092,199.336,-214.486,-391.506,-274.925,-144.884,-357.500,-51.240,2070.780
432,38586.717000,-82.723,191.241,-203.614,-411.411,-249.601,-138.655,-377.500,123.760,2097.780
433,38586.734000,-62.164,202.372,-202.625,-425.356,-232.068,-133.506,-432.500,-282.240,2225.780
434,38586.752000,-89.576,213.502,-201.637,-436.524,-204.891,-124.481,-398.500,-659.240,2252.780
435,38586.782000,-120.902,210.466,-216.463,-452.567,-181.541,-114.380,-341.500,-493.240,2166.780
436,38586.802000,-137.545,198.324,-225.359,-458.589,-166.977,-113.306,-276.500,-114.240,2043.780
437,38586.822000,-120.902,188.206,-227.336,-469.688,-139.797,-108.219,-236.500,31.760,1907.780
438,38586.860000,-116.008,181.123,-235.243,-476.626,-128.125,-109.094,-168.500,40.760,1692.780
439,38586.873000,-120.902,162.909,-234.255,-476.909,-104.911,-105.178,-149.500,81.760,1424.780
440,38586.879000,-122.860,153.802,-249.081,-478.964,-94.252,-105.155,-185.500,63.760,1342.780
441,38586.901000,-127.755,171.004,-265.884,-487.039,-76.772,-100.110,-143.500,-77.240,1182.780
442,38586.922000,-117.966,176.063,-256.988,-492.037,-68.991,-98.062,-49.500,-86.240,982.780
443,38586.939000,-116.008,162.909,-240.185,-484.245,-61.321,-100.177,32.500,-85.240,643.780
444,38586.962000,-103.281,144.696,-224.371,-485.208,-55.503,-104.105,51.500,-26.240,390.780
445,38586.971000,-69.017,140.648,-206.579,-487.208,-56.456,-101.115,17.500,-358.240,244.780
446,38587.3000,-66.080,148.743,-203.614,-492.144,-57.382,-98.073,-5.500,-720.240,68.780
447,38587.26000,-85.660,151.779,-200.649,-488.203,-60.320,-98.140,-15.500,-526.240,-143.220
448,38587.47000,-96.428,152.791,-188.788,-492.159,-63.190,-94.129,-32.500,-318.240,-227.220
449,38587.66000,-82.723,159.874,-178.903,-490.088,-69.977,-97.111,-93.500,-48.240,-330.220
450,38587.88000,-78.807,168.980,-179.892,-484.233,-75.838,-93.269,-147.500,-160.240,-487.220
451,38587.118000,-115.029,180.111,-194.718,-485.104,-89.374,-92.254,-181.500,-218.240,-742.220
452,38587.128000,-161.040,194.277,-216.463,-488.021,-97.090,-89.240,-163.500,-3.240,-1033.220
453,38587.146000,-180.620,209.455,-220.417,-481.954,-116.490,-90.309,-137.500,209.760,-1346.220
454,38587.173000,-183.556,215.526,-225.359,-473.120,-125.280,-87.502,-133.500,126.760,-1661.220
455,38587.191000,-181.598,229.692,-232.278,-466.982,-154.355,-87.576,-118.500,-106.240,-1987.220
456,38587.222000,-189.430,238.798,-235.243,-467.783,-169.823,-89.513,-125.500,-196.240,-2301.220
457,38587.241000,-196.283,241.834,-234.255,-448.915,-205.789,-86.851,-130.500,-161.240,-2444.220
458,38587.260000,-191.388,253.976,-226.347,-435.916,-245.573,-82.112,-131.500,-39.240,-2686.220
459,38587.272000,-164.956,262.071,-206.579,-417.122,-262.185,-85.379,-143.500,-171.240,-2880.220
460,38587.290000,-173.767,253.976,-206.579,-402.183,-301.988,-79.690,-168.500,-430.240,-3067.220
461,38587.317000,-186.493,253.976,-214.486,-376.643,-320.604,-76.182,-220.500,-433.240,-3240.220
462,38587.326000,-179.641,259.036,-216.463,-345.970,-363.448,-73.721,-240.500,-186.240,-3364.220
463,38587.348000,-160.061,252.964,-208.556,-330.223,-379.072,-71.028,-191.500,-30.240,-3444.220
464,38587.381000,-150.272,238.798,-208.556,-285.872,-412.363,-72.758,-144.500,-84.240,-3544.220
465,38587.391000,-146.356,228.680,-209.544,-259.264,-438.726,-70.245,-119.500,-120.240,-3595.220
466,38587.413000,-146.356,213.502,-207.568,-207.235,-457.578,-71.143,-106.500,-116.240,-3611.220
467,38587.431000,-133.629,197.312,-202.625,-158.185,-473.503,-71.008,-84.500,-12.240,-3603.220
468,38587.456000,-124.818,181.123,-206.579,-126.783,-487.333,-69.578,-42.500,72.760,-3577.220
469,38587.476000,-125.797,160.885,-194.718,-71.917,-493.635,-71.526,44.500,72.760,-3534.220
470,38587.508000,-116.987,140.648,-186.811,-42.510,-497.770,-73.026,97.500,141.760,-3458.220
471,38587.523000,-104.260,121.423,-184.834,13.299,-498.275,-75.982,117.500,179.760,-3395.220
472,38587.541000,-93.491,102.198,-188.788,43.607,-499.521,-74.548,127.500,117.760,-3328.220
473,38587.558000,-96.428,77.913,-184.834,101.249,-492.307,-74.592,153.500,47.760,-3266.220
474,38587.581000,-90.554,61.723,-181.869,157.799,-476.380,-72.657,146.500,41.760,-3227.220
475,38587.603000,-81.744,45.534,-185.822,174.380,-470.727,-72.957,135.500,9.760,-3175.220
476,38587.620000,-85.660,19.225,-193.730,224.901,-448.948,-65.017,156.500,-129.240,-3082.220
477,38587.637000,-85.660,-6.071,-190.764,251.205,-440.484,-63.523,206.500,-300.240,-2940.220
478,38587.651000,-74.891,-19.225,-180.880,293.793,-412.832,-52.495,219.500,-504.240,-2888.220
479,38587.678000,-57.270,-23.273,-178.903,316.114,-402.400,-47.980,160.500,-710.240,-2848.220
480,38587.697000,-57.270,-32.379,-180.880,355.663,-372.792,-31.979,119.500,-903.240,-2779.220
481,38587.719000,-61.185,-42.498,-176.927,390.395,-340.232,-21.803,79.500,-755.240,-2678.220
482,38587.742000,-44.543,-43.510,-170.008,403.821,-320.045,-17.141,70.500,-388.240,-2542.220
483,38587.760000,-9.300,-57.676,-169.019,429.860,-286.430,-13.704,71.500,-215.240,-2455.220
484,38587.779000,16.153,-77.913,-168.031,446.335,-273.040,-12.042,103.500,-22.240,-2227.220
485,38587.812000,33.774,-99.162,-156.170,465.611,-241.294,-12.420,144.500,100.760,-1933.220
486,38587.840000,52.375,-117.375,-148.263,469.314,-227.790,-7.579,144.500,47.760,-1635.220
487,38587.840000,55.312,-126.482,-147.274,481.821,-206.624,-6.841,120.500,-110.240,-1410.220
488,38587.868000,53.354,-136.601,-155.181,491.448,-195.107,-4.071,101.500,-91.240,-1212.220
489,38587.886000,63.143,-151.779,-152.216,496.110,-175.807,-1.223,68.500,3.760,-991.220
490,38587.905000,66.080,-172.016,-150.239,497.951,-161.312,-2.257,29.500,-109.240,-783.220
491,38587.926000,44.543,-179.099,-155.181,508.610,-157.544,1.488,-3.500,-164.240,-626.220
492,38587.948000,35.732,-175.051,-165.066,507.577,-149.795,0.513,-9.500,-89.240,-551.220
493,38587.975000,36.711,-177.075,-170.008,505.558,-143.006,0.540,2.500,-9.240,-390.220
494,38587.988000,12.237,-189.217,-170.008,506.501,-141.081,1.506,24.500,-22.240,-250.220
495,38588.11000,10.279,-187.194,-172.973,511.376,-137.255,0.431,39.500,37.760,-131.220
496,38588.33000,-3.426,-188.206,-177.915,509.454,-141.107,0.469,59.500,18.760,-58.220
497,38588.53000,-9.300,-186.182,-179.892,513.315,-137.273,1.381,69.500,68.760,7.780
498,38588.86000,-6.363,-188.206,-170.008,511.377,-143.062,3.391,77.500,1.760,67.780
499,38588.105000,-21.048,-189.217,-167.042,512.285,-139.203,5.339,61.500,-52.240,85.780
500,38588.127000,-25.943,-188.206,-167.042,513.256,-144.052,8.281,58.500,-15.240,127.780
501,38588.136000,-15.174,-182.134,-164.077,511.387,-147.901,5.365,49.500,23.760,147.780
502,38588.158000,-21.048,-182.134,-161.112,515.266,-147.939,7.266,48.500,-9.240,199.780
503,38588.172000,-19.090,-183.146,-159.135,511.423,-151.771,5.369,34.500,25.760,263.780
504,38588.194000,-7.342,-179.099,-156.170,510.453,-154.665,6.374,27.500,54.760,323.780
505,38588.212000,8.321,-174.040,-157.158,499.735,-161.340,7.556,23.500,98.760,436.780
506,38588.234000,28.880,-167.968,-148.263,492.966,-171.920,8.673,20.500,158.760,614.780
507,38588.257000,47.480,-166.957,-149.251,495.998,-176.781,5.671,12.500,289.760,848.780
508,38588.275000,47.480,-166.957,-158.147,484.521,-197.953,1.961,17.500,615.760,1137.780
509,38588.288000,51.396,-168.980,-161.112,483.770,-207.610,-5.890,0.500,816.760,1272.780
510,38588.336000,78.807,-159.874,-156.170,470.441,-232.630,-13.500,-32.500,964.760,1491.780
511,38588.363000,82.723,-143.684,-153.205,463.785,-246.108,-17.304,-67.500,686.760,1655.780
512,38588.377000,48.459,-131.542,-166.054,444.542,-270.109,-22.843,-96.500,580.760,1810.780
513,38588.381000,25.943,-123.447,-176.927,423.525,-304.729,-33.259,-118.500,793.760,2023.780
514,38588.406000,26.922,-107.257,-176.927,414.021,-318.175,-41.935,-141.500,844.760,2174.780
515,38588.428000,16.153,-89.043,-181.869,383.114,-346.905,-49.231,-152.500,751.760,2279.780
516,38588.448000,-4.405,-69.818,-192.741,363.859,-358.324,-60.690,-159.500,716.760,2368.780
517,38588.468000,-34.753,-50.593,-202.625,331.004,-386.068,-68.936,-159.500,830.760,2429.780
518,38588.495000,-53.354,-46.545,-202.625,311.704,-394.585,-79.414,-168.500,964.760,2459.780
519,38588.512000,-56.291,-41.486,-204.602,278.017,-417.472,-98.480,-203.500,1155.760,2507.780
520,38588.535000,-87.618,-49.581,-229.313,241.471,-437.424,-123.406,-171.500,1275.760,2583.780
521,38588.557000,-90.554,-40.474,-220.417,220.152,-441.088,-132.869,-183.500,1439.760,2585.780
522,38588.570000,-59.228,-18.213,-204.602,178.521,-451.328,-151.810,-268.500,1136.760,2524.780
523,38588.587000,-59.228,-4.047,-210.533,152.162,-450.116,-155.282,-356.500,738.760,2533.780
524,38588.608000,-83.702,8.095,-228.324,109.423,-461.322,-166.327,-375.500,545.760,2593.780
525,38588.626000,-98.386,16.190,-228.324,92.901,-462.132,-171.940,-367.500,481.760,2621.780
526,38588.650000,-96.428,34.403,-215.475,49.069,-466.560,-180.020,-395.500,415.760,2585.780
527,38588.672000,-98.386,51.605,-225.359,25.603,-468.281,-179.602,-424.500,153.760,2567.780
528,38588.710000,-128.734,60.711,-238.208,-10.643,-470.858,-175.020,-419.500,-265.240,2516.780
529,38588.723000,-166.914,62.735,-243.151,-57.698,-468.500,-170.253,-334.500,-344.240,2526.780
530,38588.732000,-164.956,63.747,-234.255,-80.256,-464.427,-168.874,-252.500,-83.240,2453.780
531,38588.750000,-136.566,71.842,-223.382,-114.505,-458.308,-171.228,-242.500,136.760,2324.780
532,38588.777000,-132.650,79.937,-233.266,-126.317,-454.334,-169.055,-281.500,75.760,2198.780
533,38588.795000,-147.335,81.960,-239.197,-158.671,-443.397,-170.464,-290.500,-88.240,2173.780
534,38588.818000,-144.398,96.126,-221.405,-181.316,-437.393,-165.149,-293.500,-104.240,2123.780
535,38588.847000,-147.335,100.174,-218.440,-210.803,-424.551,-163.657,-301.500,-113.240,2066.780
536,38588.857000,-128.734,103.209,-217.452,-237.416,-412.706,-158.278,-327.500,-71.240,1952.780
537,38588.874000,-132.650,108.269,-227.336,-255.151,-406.746,-154.034,-365.500,-141.240,1934.780
538,38588.897000,-158.103,120.411,-226.347,-281.887,-389.101,-144.721,-311.500,-380.240,1959.780
539,38588.914000,-152.229,124.459,-209.544,-292.730,-382.232,-143.553,-221.500,-307.240,1941.780
540,38588.937000,-135.587,125.470,-199.660,-313.472,-366.570,-140.251,-185.500,-81.240,1817.780
541,38588.951000,-130.692,126.482,-210.533,-329.251,-358.691,-137.027,-239.500,-89.240,1825.780
542,38588.978000,-123.839,140.648,-195.707,-349.042,-338.200,-134.732,-229.500,-186.240,1858.780
543,38589.1000,-130.692,145.708,-184.834,-356.993,-330.392,-131.648,-229.500,-170.240,1776.780
544,38589.18000,-135.587,135.589,-188.788,-372.949,-308.973,-125.484,-226.500,-26.240,1722.780
545,38589.36000,-114.050,140.648,-190.764,-388.930,-286.587,-118.336,-284.500,268.760,1775.780
546,38589.58000,-94.470,159.874,-187.799,-406.546,-276.748,-122.958,-295.500,220.760,1810.780
547,38589.81000,-91.533,159.874,-177.915,-417.583,-254.404,-118.851,-294.500,196.760,1811.780
548,38589.103000,-78.807,145.708,-181.869,-430.402,-239.775,-120.610,-406.500,312.760,1868.780
549,38589.126000,-83.702,153.802,-193.730,-442.549,-212.590,-111.567,-514.500,199.760,1913.780
550,38589.167000,-80.765,164.933,-200.649,-447.549,-197.065,-113.466,-523.500,100.760,1882.780
551,38589.181000,-96.428,162.909,-209.544,-456.751,-174.745,-102.500,-471.500,30.760,1735.780
552,38589.188000,-114.050,163.921,-231.290,-464.826,-155.330,-98.442,-476.500,20.760,1654.780
553,38589.211000,-134.608,174.040,-243.151,-469.912,-139.810,-95.417,-394.500,37.760,1580.780
554,38589.233000,-142.440,169.992,-246.116,-481.945,-119.393,-89.321,-285.500,205.760,1355.780
555,38589.253000,-131.671,173.028,-249.081,-477.115,-110.730,-90.401,-218.500,407.760,1086.780
556,38589.262000,-118.945,183.146,-249.081,-482.150,-97.143,-89.344,-146.500,432.760,857.780
557,38589.298000,-123.839,189.217,-247.104,-486.169,-91.306,-86.326,-85.500,264.760,669.780
558,38589.301000,-127.755,185.170,-242.162,-491.107,-82.553,-88.218,-35.500,198.760,480.780
559,38589.327000,-125.797,181.123,-235.243,-480.343,-82.651,-88.408,-4.500,203.760,250.780
560,38589.349000,-106.218,175.051,-228.324,-491.177,-78.685,-86.252,-28.500,76.760,81.780
561,38589.372000,-98.386,183.146,-226.347,-491.081,-81.584,-90.188,-20.500,-135.240,-23.220
562,38589.388000,-126.776,181.123,-218.440,-483.321,-85.530,-84.414,16.500,-450.240,-247.220
563,38589.406000,-146.356,171.004,-213.498,-485.181,-92.282,-86.342,41.500,-229.240,-479.220
564,38589.448000,-124.818,175.051,-207.568,-485.120,-97.118,-87.322,44.500,51.760,-717.220
565,38589.467000,-112.092,185.170,-205.591,-484.995,-110.662,-87.309,58.500,-87.240,-952.220
566,38589.482000,-140.482,190.229,-208.556,-472.151,-122.386,-88.506,103.500,-265.240,-1222.220
567,38589.496000,-170.830,182.134,-207.568,-470.933,-142.707,-91.458,82.500,50.760,-1435.220
568,38589.513000,-143.419,196.300,-210.533,-462.823,-165.992,-95.512,82.500,205.760,-1664.220
569,38589.543000,-124.818,216.538,-209.544,-451.944,-178.666,-95.689,109.500,-84.240,-1871.220
570,38589.562000,-137.545,214.514,-205.591,-448.733,-206.747,-96.698,103.500,-231.240,-1971.220
571,38589.582000,-160.061,200.348,-208.556,-444.633,-223.226,-98.720,68.500,-250.240,-2122.220
572,38589.602000,-155.166,201.360,-212.510,-425.714,-255.317,-100.986,43.500,-35.240,-2243.220
573,38589.625000,-134.608,224.632,-211.521,-414.852,-266.057,-101.166,72.500,-12.240,-2332.220
574,38589.641000,-141.461,218.561,-216.463,-393.059,-295.275,-101.517,114.500,-171.240,-2392.220
575,38589.661000,-157.124,200.348,-215.475,-368.398,-324.523,-97.981,135.500,-138.240,-2475.220
576,38589.682000,-149.293,197.312,-219.429,-352.505,-341.106,-103.165,148.500,-34.240,-2578.220
577,38589.699000,-151.250,196.300,-226.347,-326.755,-367.454,-107.528,199.500,42.760,-2667.220
578,38589.722000,-147.335,191.241,-223.382,-310.923,-379.201,-111.732,244.500,98.760,-2731.220
579,38589.742000,-135.587,179.099,-217.452,-275.422,-407.575,-113.311,250.500,129.760,-2753.220
580,38589.770000,-127.755,175.051,-214.486,-254.724,-418.400,-116.618,263.500,103.760,-2789.220
581,38589.790000,-130.692,165.945,-214.486,-211.379,-439.102,-123.268,283.500,122.760,-2817.220
582,38589.816000,-123.839,150.767,-210.533,-197.600,-447.933,-123.501,289.500,220.760,-2798.220
583,38589.830000,-105.239,135.589,-202.625,-154.336,-459.927,-130.159,289.500,184.760,-2761.220
584,38589.845000,-86.639,117.375,-195.707,-112.197,-472.889,-127.936,252.500,-84.240,-2728.220
585,38589.871000,-92.512,103.209,-199.660,-85.759,-478.936,-126.428,221.500,-295.240,-2680.220
586,38589.888000,-100.344,88.032,-201.637,-44.739,-484.153,-120.256,180.500,-362.240,-2616.220
587,38589.912000,-91.533,73.866,-198.672,-27.081,-491.086,-119.576,152.500,-399.240,-2541.220
588,38589.927000,-87.618,58.688,-198.672,16.761,-493.433,-108.536,119.500,-620.240,-2521.220
589,38589.936000,-77.828,41.486,-199.660,38.114,-491.703,-100.055,61.500,-890.240,-2468.220
590,38589.955000,-77.828,26.308,-202.625,79.766,-493.077,-76.179,42.500,-1248.240,-2450.220
591,38589.988000,-100.344,11.130,-198.672,118.533,-490.550,-57.179,-13.500,-1310.240,-2421.220
592,38590.6000,-116.008,0.000,-198.672,143.800,-486.920,-49.755,-82.500,-1156.240,-2368.220
593,38590.25000,-118.945,-19.225,-189.776,176.667,-473.694,-34.601,-92.500,-904.240,-2298.220
594,38590.45000,-114.050,-29.344,-181.869,198.055,-471.962,-28.090,-105.500,-703.240,-2226.220
595,38590.72000,-112.092,-37.439,-180.880,226.091,-459.656,-15.802,-120.500,-553.240,-2175.220
596,38590.95000,-93.491,-45.534,-175.938,245.519,-446.292,-15.177,-125.500,-457.240,-2128.220
597,38590.115000,-86.639,-60.711,-169.019,275.579,-430.128,-8.837,-125.500,-410.240,-2026.220
598,38590.141000,-82.723,-70.830,-167.042,287.119,-415.728,-5.120,-131.500,-477.240,-1926.220
599,38590.158000,-80.765,-82.972,-169.019,325.043,-403.506,1.086,-148.500,-505.240,-1831.220
600,38590.196000,-72.933,-98.150,-157.158,346.385,-389.193,3.645,-140.500,-496.240,-1709.220
601,38590.205000,-64.122,-101.186,-158.147,354.990,-380.573,10.374,-178.500,-568.240,-1592.220
602,38590.224000,-73.912,-106.245,-160.124,371.298,-358.481,16.950,-176.500,-674.240,-1495.220
603,38590.238000,-84.681,-114.340,-162.100,385.835,-350.879,20.622,-186.500,-574.240,-1389.220
604,38590.273000,-79.786,-127.494,-157.158,400.344,-332.632,20.344,-207.500,-329.240,-1302.220
605,38590.277000,-67.059,-131.542,-160.124,403.207,-322.984,19.298,-222.500,-235.240,-1260.220
606,38590.290000,-62.164,-135.589,-159.135,418.713,-308.616,19.991,-225.500,-181.240,-1194.220
607,38590.311000,-55.312,-134.577,-163.089,430.294,-291.309,19.766,-228.500,-151.240,-1100.220
608,38590.333000,-50.417,-138.625,-167.042,437.090,-285.567,19.639,-204.500,-79.240,-997.220
609,38590.361000,-41.606,-145.708,-167.042,442.897,-269.170,14.595,-172.500,88.760,-826.220
610,38590.381000,-23.006,-146.719,-166.054,450.785,-270.206,11.503,-133.500,109.760,-645.220
611,38590.398000,-28.880,-151.779,-171.985,454.593,-260.568,12.409,-104.500,13.760,-479.220
612,38590.418000,-32.795,-155.826,-171.985,453.640,-259.590,10.456,-70.500,31.760,-332.220
613,38590.436000,-41.606,-160.885,-175.938,463.415,-254.840,8.308,-52.500,41.760,-219.220
614,38590.463000,-38.669,-160.885,-171.985,457.544,-252.851,7.425,-29.500,99.760,-171.220
615,38590.502000,-48.459,-168.980,-171.985,462.375,-248.059,8.319,-26.500,80.760,-78.220
616,38590.521000,-68.038,-172.016,-173.961,463.397,-249.034,6.333,-17.500,32.760,-12.220
617,38590.530000,-64.122,-168.980,-168.031,457.560,-248.978,4.467,-4.500,66.760,29.780
618,38590.548000,-63.143,-157.850,-170.008,456.548,-250.907,7.441,-12.500,-16.240,34.780
619,38590.576000,-91.533,-160.885,-179.892,455.595,-251.865,6.474,-1.500,-70.240,92.780
620,38590.591000,-102.302,-165.945,-171.985,465.398,-255.824,7.290,31.500,59.760,138.780
621,38590.600000,-82.723,-161.897,-167.042,462.480,-255.797,6.357,38.500,42.760,146.780
622,38590.618000,-90.554,-156.838,-168.031,456.593,-257.680,8.432,42.500,-31.240,137.780
623,38590.641000,-97.407,-158.862,-167.042,456.584,-258.648,9.418,48.500,-45.240,156.780
624,38590.668000,-88.597,-153.802,-163.089,448.782,-259.544,8.572,41.500,66.760,174.780
625,38590.691000,-78.807,-151.779,-159.135,457.685,-264.458,5.467,44.500,130.760,217.780
626,38590.708000,-66.080,-151.779,-154.193,450.775,-265.367,9.529,45.500,193.760,275.780
627,38590.731000,-53.354,-152.791,-150.239,446.023,-273.058,5.684,24.500,214.760,328.780
628,38590.751000,-42.585,-147.731,-149.251,444.110,-274.005,3.750,6.500,212.760,425.780
629,38590.771000,-40.627,-147.731,-150.239,438.354,-282.656,1.893,8.500,247.760,590.780
630,38590.795000,-44.543,-147.731,-140.355,433.680,-293.247,-4.903,-24.500,380.760,751.780
631,38590.817000,-33.774,-137.613,-142.332,423.004,-297.015,-7.663,-58.500,433.760,801.780
632,38590.848000,-22.027,-131.542,-151.228,411.465,-311.416,-11.380,-92.500,419.760,905.780
633,38590.851000,-36.711,-130.530,-159.135,411.631,-318.182,-17.282,-99.500,382.760,1032.780
634,38590.867000,-43.564,-125.470,-155.181,395.287,-336.404,-23.862,-122.500,470.760,1174.780
635,38590.894000,-40.627,-109.281,-158.147,388.630,-344.075,-30.627,-159.500,550.760,1281.780
636,38590.912000,-48.459,-104.221,-169.019,365.462,-361.266,-39.057,-195.500,671.760,1404.780
637,38590.941000,-51.396,-99.162,-177.915,353.886,-367.925,-44.751,-201.500,734.760,1532.780
638,38590.978000,-48.459,-84.996,-176.927,332.770,-386.096,-58.139,-210.500,627.760,1636.780
639,38590.997000,-58.249,-69.818,-182.857,305.714,-400.346,-69.457,-216.500,598.760,1734.780
640,38591.6000,-67.059,-62.735,-191.753,301.041,-412.872,-75.266,-249.500,589.760,1794.780
641,38591.20000,-89.576,-63.747,-207.568,267.169,-427.058,-88.432,-243.500,568.760,1904.780
642,38591.47000,-92.512,-57.676,-212.510,251.662,-433.683,-93.073,-219.500,588.760,2019.780
643,38591.67000,-94.470,-47.557,-206.579,215.738,-444.953,-102.268,-192.500,524.760,2065.780
644,38591.87000,-89.576,-38.451,-202.625,205.167,-452.587,-108.964,-232.500,408.760,2057.780
645,38591.103000,-97.407,-26.308,-222.394,166.247,-466.738,-113.181,-217.500,208.760,2078.780
646,38591.125000,-123.839,-17.202,-231.290,129.187,-472.200,-116.456,-139.500,275.760,2130.780
647,38591.147000,-136.566,-11.130,-215.475,122.485,-475.033,-123.226,-134.500,541.760,2079.780
648,38591.167000,-118.945,-6.071,-211.521,82.575,-474.657,-134.333,-172.500,652.760,2042.780
649,38591.190000,-94.470,5.059,-220.417,62.139,-477.367,-138.891,-214.500,587.760,2007.780
650,38591.203000,-108.176,18.213,-231.290,33.911,-480.004,-145.280,-185.500,338.760,2068.780
651,38591.226000,-129.713,30.356,-224.371,9.526,-476.874,-150.759,-133.500,473.760,2120.780
652,38591.259000,-111.113,33.391,-210.533,-20.670,-472.719,-160.074,-183.500,669.760,2086.780
653,38591.259000,-75.870,41.486,-214.486,-42.138,-467.680,-165.607,-259.500,394.760,2105.780
654,38591.287000,-87.618,52.617,-224.371,-78.403,-464.451,-163.000,-242.500,101.760,2171.780
655,38591.322000,-107.197,70.830,-222.394,-110.669,-457.380,-167.360,-196.500,189.760,2212.780
656,38591.326000,-112.092,88.032,-210.533,-127.365,-452.393,-166.085,-210.500,397.760,2207.780
657,38591.347000,-98.386,86.008,-218.440,-162.550,-443.359,-172.365,-253.500,394.760,2223.780
658,38591.365000,-85.660,95.115,-226.347,-173.411,-434.556,-171.198,-276.500,218.760,2266.780
659,38591.382000,-87.618,118.387,-219.429,-206.743,-423.610,-172.590,-256.500,66.760,2285.780
660,38591.425000,-110.134,138.625,-218.440,-224.497,-411.843,-170.321,-212.500,184.760,2302.780
661,38591.430000,-95.449,152.791,-217.452,-263.737,-391.167,-174.573,-219.500,348.760,2399.780
662,38591.452000,-63.143,173.028,-210.533,-294.318,-369.611,-171.104,-279.500,165.760,2465.780
663,38591.471000,-67.059,193.265,-220.417,-304.296,-355.982,-167.006,-370.500,-388.240,2499.780
664,38591.496000,-111.113,193.265,-226.347,-339.855,-338.258,-156.553,-345.500,-846.240,2522.780
665,38591.516000,-132.650,189.217,-229.313,-347.927,-330.458,-146.575,-311.500,-877.240,2518.780
666,38591.533000,-141.461,190.229,-229.313,-374.708,-304.104,-139.240,-235.500,-713.240,2478.780
667,38591.556000,-122.860,178.087,-210.533,-384.704,-292.412,-133.171,-119.500,-333.240,2386.780
668,38591.576000,-93.491,172.016,-198.672,-410.463,-263.162,-129.796,-116.500,-49.240,2342.780
669,38591.590000,-100.344,179.099,-201.637,-417.587,-236.982,-127.731,-154.500,-235.240,2302.780
670,38591.628000,-113.071,177.075,-197.683,-433.464,-220.397,-123.532,-151.500,-308.240,2199.780
671,38591.657000,-121.881,168.980,-197.683,-445.497,-196.109,-119.410,-160.500,-99.240,2038.780
672,38591.660000,-114.050,164.933,-199.660,-450.575,-183.492,-115.397,-219.500,141.760,1915.780
673,38591.676000,-93.491,175.051,-202.625,-468.428,-155.277,-116.099,-275.500,173.760,1803.780
674,38591.698000,-102.302,171.004,-203.614,-471.549,-142.678,-112.120,-274.500,117.760,1710.780
675,38591.726000,-103.281,161.897,-212.510,-480.585,-121.317,-110.016,-289.500,133.760,1504.780
676,38591.741000,-107.197,173.028,-224.371,-479.765,-111.655,-106.105,-328.500,143.760,1317.780
677,38591.757000,-99.365,175.051,-223.382,-484.930,-93.236,-100.128,-307.500,199.760,1148.780
678,38591.786000,-96.428,180.111,-229.313,-484.155,-78.738,-96.221,-296.500,156.760,949.780
679,38591.809000,-102.302,177.075,-233.266,-493.031,-74.790,-94.100,-232.500,152.760,744.780
680,38591.828000,-96.428,177.075,-230.301,-486.245,-66.145,-95.214,-200.500,169.760,547.780
681,38591.851000,-93.491,184.158,-234.255,-488.288,-66.132,-90.256,-156.500,19.760,363.780
682,38591.878000,-98.386,190.229,-235.243,-485.458,-60.357,-87.359,-85.500,-58.240,154.780
683,38591.892000,-114.050,187.194,-236.232,-497.139,-59.279,-91.092,-43.500,-162.240,23.780
684,38591.911000,-116.008,188.206,-231.290,-491.276,-64.172,-88.236,37.500,-81.240,-236.220
685,38591.928000,-111.113,192.253,-221.405,-731.836,-70.686,-87.910,116.500,-20.240,-504.220
686,38591.942000,-113.071,194.277,-212.510,-486.155,-77.755,-94.218,151.500,-53.240,-748.220
687,38591.965000,-120.902,199.336,-205.591,-484.973,-94.206,-97.173,153.500,-92.240,-983.220
688,38591.987000,-131.671,206.419,-197.683,-481.031,-102.952,-94.279,170.500,-53.240,-1239.220
689,38592.10000,-132.650,212.490,-187.799,-474.870,-123.315,-100.271,165.500,29.760,-1472.220
690,38592.27000,-125.797,208.443,-186.811,-471.758,-136.882,-103.263,95.500,51.760,-1682.220
691,38592.50000,-117.966,209.455,-187.799,-462.763,-161.149,-101.425,49.500,14.760,-1788.220
692,38592.66000,-112.092,217.549,-187.799,-460.594,-178.577,-104.396,-23.500,-107.240,-1982.220
693,38592.86000,-113.071,212.490,-192.741,-448.629,-206.741,-102.606,-106.500,-276.240,-2185.220
694,38592.106000,-124.818,212.490,-201.637,-434.671,-240.727,-99.860,-186.500,-334.240,-2359.220
695,38592.127000,-129.713,216.538,-204.602,-427.704,-259.173,-97.008,-219.500,-222.240,-2505.220
696,38592.150000,-123.839,218.561,-203.614,-402.948,-291.320,-97.409,-233.500,-111.240,-2614.220
697,38592.170000,-120.902,215.526,-206.579,-394.069,-306.882,-93.610,-221.500,-79.240,-2712.220
698,38592.192000,-119.924,213.502,-211.521,-359.493,-341.052,-95.166,-186.500,-40.240,-2797.220
699,38592.221000,-131.671,205.407,-214.486,-346.674,-353.745,-94.394,-152.500,100.760,-2826.220
700,38592.235000,-123.839,200.348,-215.475,-317.027,-382.065,-96.854,-130.500,178.760,-2832.220
701,38592.248000,-116.987,197.312,-216.463,-282.497,-405.590,-101.375,-65.500,220.760,-2845.220
702,38592.271000,-115.029,192.253,-218.440,-258.836,-419.344,-104.731,2.500,224.760,-2824.220
703,38592.291000,-112.092,182.134,-220.417,-229.277,-439.925,-106.214,64.500,267.760,-2783.220
704,38592.312000,-114.050,163.921,-223.382,-207.592,-449.791,-110.524,132.500,312.760,-2749.220
705,38592.331000,-108.176,151.779,-221.405,-166.276,-462.735,-117.147,199.500,350.760,-2678.220
706,38592.353000,-97.407,138.625,-213.498,-145.604,-472.594,-119.470,259.500,239.760,-2569.220
707,38592.371000,-92.512,120.411,-204.602,-106.342,-480.686,-123.108,232.500,49.760,-2474.220
708,38592.391000,-88.597,102.198,-203.614,-83.853,-484.764,-120.548,208.500,-59.240,-2410.220
709,38592.417000,-96.428,94.103,-212.510,-51.631,-488.933,-115.207,179.500,-274.240,-2368.220
710,38592.446000,-111.113,77.913,-207.568,-8.706,-490.299,-108.089,194.500,-371.240,-2300.220
711,38592.463000,-112.092,61.723,-197.683,13.844,-499.213,-106.508,155.500,-390.240,-2288.220
712,38592.488000,-116.008,55.652,-196.695,49.831,-494.715,-97.306,150.500,-401.240,-2329.220
713,38592.503000,-115.029,44.522,-193.730,68.379,-493.918,-95.666,112.500,-348.240,-2343.220
714,38592.526000,-116.987,35.415,-190.764,107.379,-490.410,-90.453,95.500,-295.240,-2358.220
715,38592.548000,-116.987,23.273,-187.799,131.736,-482.895,-88.924,59.500,-199.240,-2317.220
716,38592.562000,-114.050,12.142,-184.834,168.751,-472.596,-85.653,45.500,-141.240,-2283.220
717,38592.588000,-103.281,2.024,-180.880,204.771,-462.289,-81.381,34.500,-120.240,-2262.220
718,38592.616000,-88.597,-6.071,-178.903,224.209,-453.763,-78.781,12.500,-226.240,-2197.220
719,38592.642000,-95.449,-24.285,-183.846,256.236,-438.585,-72.474,-6.500,-375.240,-2125.220
720,38592.671000,-99.365,-40.474,-187.799,274.703,-427.146,-71.830,-21.500,-351.240,-2070.220
721,38592.680000,-107.197,-45.534,-192.741,304.807,-410.012,-68.445,5.500,-270.240,-2036.220
722,38592.686000,-98.386,-53.628,-194.718,323.293,-404.380,-65.825,13.500,-218.240,-2005.220
723,38592.703000,-83.702,-54.640,-193.730,346.416,-380.416,-58.387,31.500,-353.240,-1995.220
724,38592.728000,-101.323,-68.806,-199.660,354.983,-356.312,-57.582,29.500,-275.240,-1978.220
725,38592.748000,-105.239,-78.925,-198.672,380.230,-343.004,-54.106,48.500,-39.240,-1970.220
726,38592.777000,-92.512,-80.949,-188.788,408.279,-315.211,-50.697,54.500,44.760,-1971.220
727,38592.795000,-81.744,-90.055,-188.788,417.074,-306.580,-54.801,64.500,164.760,-1956.220
728,38592.815000,-61.185,-98.150,-183.846,435.337,-274.827,-53.192,96.500,237.760,-1871.220
729,38592.835000,-52.375,-110.292,-175.938,450.843,-260.459,-52.499,125.500,345.760,-1730.220
730,38592.852000,18.111,-106.245,-166.054,464.354,-238.333,-53.748,143.500,361.760,-1499.220
731,38592.875000,15.174,-121.423,-160.124,468.135,-225.793,-52.846,182.500,108.760,-1249.220
732,38592.897000,11.258,-131.542,-162.100,483.570,-209.493,-49.200,175.500,-10.240,-1006.220
733,38592.903000,13.216,-144.696,-160.124,482.424,-194.975,-47.228,163.500,-42.240,-785.220
734,38592.922000,3.426,-155.826,-162.100,487.229,-191.153,-44.364,145.500,-84.240,-709.220
735,38592.950000,5.384,-160.885,-166.054,491.019,-179.581,-43.460,101.500,-77.240,-583.220
736,38592.971000,4.405,-157.850,-169.019,493.884,-175.740,-41.546,51.500,-25.240,-451.220
737,38592.987000,-20.069,-159.874,-174.950,494.792,-169.945,-40.585,42.500,-112.240,-375.220
738,38593.21000,-12.237,-163.921,-173.961,493.769,-167.035,-39.586,36.500,57.760,-268.220
739,38593.31000,-13.216,-165.945,-169.019,498.644,-163.209,-40.661,33.500,33.760,-188.220
740,38593.53000,-24.964,-167.968,-176.927,499.553,-163.222,-36.739,29.500,-34.240,-142.220
741,38593.86000,-26.922,-168.980,-180.880,502.479,-162.281,-36.792,28.500,-41.240,-99.220
742,38593.118000,-45.522,-173.028,-179.892,507.346,-163.295,-34.908,28.500,-23.240,-53.220
743,38593.132000,-38.669,-167.968,-178.903,500.540,-162.262,-37.742,18.500,13.760,-39.220
744,38593.143000,-42.585,-165.945,-177.915,496.625,-160.291,-38.659,20.500,9.760,-23.220
745,38593.165000,-43.564,-164.933,-177.915,505.406,-159.405,-37.831,15.500,42.760,-18.220
746,38593.183000,-47.480,-163.921,-178.903,500.539,-158.391,-39.715,10.500,97.760,3.780
747,38593.206000,-51.396,-171.004,-176.927,504.471,-160.361,-39.783,13.500,137.760,17.780
748,38593.221000,-41.606,-168.980,-175.938,502.514,-160.343,-39.748,-0.500,154.760,22.780
749,38593.243000,-45.522,-162.909,-177.915,502.514,-160.343,-39.748,-7.500,59.760,39.780
750,38593.263000,-50.417,-164.933,-178.903,503.492,-160.352,-39.765,-9.500,18.760,79.780
751,38593.286000,-58.249,-162.909,-179.892,496.599,-157.389,-38.662,-6.500,4.760,95.780
752,38593.308000,-59.228,-161.897,-180.880,502.505,-159.376,-39.749,0.500,23.760,100.780
753,38593.331000,-55.312,-158.862,-179.892,500.619,-167.097,-39.707,0.500,27.760,112.780
754,38593.351000,-62.164,-159.874,-178.903,495.743,-165.116,-41.592,3.500,-62.240,121.780
755,38593.365000,-71.954,-159.874,-180.880,494.747,-165.108,-40.590,5.500,-40.240,125.780
756,38593.397000,-62.164,-158.862,-175.938,495.770,-168.018,-41.589,11.500,70.760,137.780
757,38593.416000,-53.354,-158.862,-170.008,492.810,-172.833,-37.593,-0.500,39.760,140.780
758,38593.428000,-50.417,-163.921,-170.996,498.715,-172.884,-39.666,-28.500,12.760,138.780
759,38593.446000,-43.564,-159.874,-174.950,495.833,-176.726,-40.595,-41.500,18.760,144.780
760,38593.468000,-35.732,-158.862,-173.961,494.933,-179.616,-43.529,-45.500,33.760,186.780
761,38593.493000,-25.943,-153.802,-176.927,491.009,-176.678,-44.448,-46.500,107.760,215.780
762,38593.513000,-14.195,-154.814,-175.938,487.167,-184.381,-44.371,-36.500,199.760,304.780
763,38593.536000,-10.279,-161.897,-173.961,491.133,-184.414,-47.394,-41.500,253.760,397.780
764,38593.551000,10.279,-158.862,-170.996,486.355,-193.074,-49.268,-63.500,303.760,483.780
765,38593.562000,21.048,-145.708,-170.996,481.768,-205.595,-60.002,-81.500,227.760,601.780
766,38593.593000,17.132,-146.719,-170.008,482.731,-213.348,-55.087,-103.500,168.760,756.780
767,38593.611000,12.237,-140.648,-165.066,467.243,-225.779,-57.752,-144.500,252.760,886.780
768,38593.633000,19.090,-136.601,-164.077,459.529,-232.477,-60.561,-178.500,342.760,1034.780
769,38593.656000,23.006,-129.518,-160.124,450.060,-249.792,-69.233,-195.500,353.760,1112.780
770,38593.673000,11.258,-127.494,-159.135,446.305,-261.363,-72.107,-234.500,351.760,1270.780
771,38593.699000,7.342,-114.340,-160.124,432.913,-277.675,-80.711,-281.500,356.760,1399.780
772,38593.718000,8.321,-102.198,-156.170,412.777,-299.727,-92.142,-334.500,403.760,1518.780
773,38593.733000,-7.342,-77.913,-162.100,397.271,-312.159,-93.822,-376.500,466.760,1659.780
774,38593.776000,-30.837,-78.925,-171.985,380.157,-332.297,-111.216,-407.500,687.760,1819.780
775,38593.790000,-19.090,-60.711,-166.054,365.654,-337.961,-117.844,-465.500,811.760,1913.780
776,38593.810000,-21.048,-38.451,-170.996,339.725,-358.987,-134.096,-521.500,803.760,1954.780
777,38593.828000,-31.816,-30.356,-178.903,318.460,-368.456,-143.553,-600.500,1002.760,2084.780
778,38593.850000,-28.880,-30.356,-190.764,286.701,-382.651,-165.617,-643.500,1029.760,2152.780
779,38593.863000,-19.090,-25.296,-192.741,250.942,-398.751,-181.702,-698.500,854.760,2258.780
780,38593.883000,-38.669,-17.202,-195.707,228.681,-406.276,-191.143,-726.500,619.760,2299.780
781,38593.901000,-45.522,-6.071,-197.683,188.903,-416.539,-204.210,-815.500,632.760,2338.780
782,38593.923000,-23.985,15.178,-219.429,172.496,-426.054,-211.784,-883.500,365.760,2379.780
783,38593.945000,-62.164,33.391,-236.232,123.746,-431.406,-217.807,-801.500,185.760,2477.780
784,38593.965000,-110.134,28.332,-232.278,100.435,-433.119,-226.252,-782.500,578.760,2504.780
785,38593.982000,-70.975,47.557,-216.463,58.508,-433.696,-233.385,-866.500,626.760,2449.780
786,38594.5000,-35.732,63.747,-226.347,265.013,-436.539,-239.005,-905.500,97.760,2457.780
787,38594.32000,-72.933,73.866,-246.116,-8.904,-436.948,-236.127,-879.500,-85.240,2522.780
788,38594.61000,-111.113,84.996,-237.220,-51.984,-433.654,-235.368,-803.500,-46.240,2603.780
789,38594.80000,-108.176,95.115,-226.347,-75.573,-429.575,-231.018,-796.500,98.760,2495.780
790,38594.95000,-72.933,105.233,-228.324,-108.885,-426.371,-229.448,-832.500,-37.240,2396.780
791,38594.101000,-59.228,126.482,-227.336,-135.384,-419.360,-228.003,-863.500,-331.240,2354.780
792,38594.127000,-83.702,151.779,-228.324,-176.752,-408.355,-217.439,-844.500,-264.240,2353.780
793,38594.152000,-66.080,166.957,-222.394,-186.590,-400.525,-218.259,-897.500,29.760,2317.780
794,38594.175000,-49.438,178.087,-223.382,-224.080,-385.686,-207.768,-948.500,-29.240,2271.780
795,38594.195000,-53.354,189.217,-236.232,-265.465,-372.746,-197.207,-993.500,-318.240,2275.780
796,38594.215000,-57.270,207.431,-237.220,-282.352,-363.898,-187.074,-1002.500,-477.240,2302.780
797,38594.230000,-53.354,229.692,-225.359,-310.170,-346.250,-171.836,-954.500,-627.240,2303.780
798,38594.238000,-50.417,239.810,-217.452,-328.079,-336.427,-159.717,-917.500,-712.240,2313.780
799,38594.270000,-55.312,257.012,-218.440,-358.850,-316.818,-144.428,-904.500,-861.240,2446.780
800,38594.300000,-84.681,269.154,-214.486,-370.977,-301.246,-130.450,-760.500,-927.240,2609.780
801,38594.318000,-107.197,258.024,-206.579,-396.813,-276.840,-120.177,-598.500,-537.240,2695.780
802,38594.346000,-82.723,252.964,-200.649,-421.777,-240.833,-109.933,-565.500,-33.240,2729.780
803,38594.360000,-52.375,264.095,-204.602,-436.710,-222.324,-104.768,-603.500,-148.240,2781.780
804,38594.378000,-102.302,281.296,-226.347,-454.808,-186.379,-95.630,-534.500,-625.240,2737.780
805,38594.398000,-164.956,263.083,-233.266,-454.128,-170.918,-86.800,-461.500,-553.240,2667.780
806,38594.417000,-144.398,232.727,-226.347,-476.027,-135.898,-83.500,-378.500,185.760,2405.780
807,38594.440000,-97.407,226.656,-228.324,-477.164,-124.284,-80.540,-383.500,609.760,2132.780
808,38594.462000,-75.870,228.680,-223.382,-486.299,-90.345,-79.434,-312.500,205.760,1919.780
809,38594.502000,-125.797,210.466,-230.301,-488.485,-74.854,-74.491,-207.500,-365.240,1586.780
810,38594.506000,-162.998,186.182,-245.127,-493.562,-62.237,-70.478,-128.500,-226.240,1202.780
811,38594.525000,-145.377,191.241,-243.151,-494.647,-52.555,-69.486,-10.500,22.760,796.780
812,38594.537000,-135.587,189.217,-227.336,-492.638,-52.570,-72.474,135.500,-61.240,338.780
813,38594.556000,-140.482,183.146,-217.452,-490.768,-50.657,-68.572,164.500,-82.240,-171.220
814,38594.571000,-122.860,206.419,-215.475,-485.727,-55.533,-74.562,161.500,-19.240,-396.220
815,38594.597000,-102.302,227.668,-205.591,-492.453,-67.078,-75.414,152.500,-73.240,-782.220
816,38594.611000,-99.365,236.775,-198.672,-487.481,-73.894,-76.479,151.500,-225.240,-1139.220
817,38594.633000,-105.239,238.798,-194.718,-485.249,-98.094,-79.443,149.500,-287.240,-1451.220
818,38594.661000,-102.302,250.941,-198.672,-473.240,-127.222,-79.621,156.500,-333.240,-1703.220
819,38594.683000,-112.092,257.012,-194.718,-472.078,-137.868,-84.552,208.500,-360.240,-1918.220
820,38594.726000,-111.113,253.976,-191.753,-459.038,-168.939,-86.715,208.500,-302.240,-2116.220
821,38594.730000,-105.239,254.988,-197.683,-457.873,-187.327,-87.699,177.500,-308.240,-2341.220
822,38594.747000,-110.134,267.130,-200.649,-443.873,-216.472,-89.881,176.500,-312.240,-2532.220
823,38594.772000,-124.818,270.166,-197.683,-432.914,-235.917,-91.037,185.500,-248.240,-2598.220
824,38594.796000,-134.608,269.154,-199.660,-409.040,-272.889,-94.369,207.500,-39.240,-2703.220
825,38594.823000,-120.902,269.154,-200.649,-385.159,-305.021,-100.661,229.500,196.760,-2802.220
826,38594.827000,-107.197,258.024,-206.579,-375.188,-321.554,-102.787,233.500,215.760,-2911.220
827,38594.851000,-104.260,247.905,-213.498,-336.629,-355.755,-108.351,221.500,117.760,-3061.220
828,38594.868000,-116.008,240.822,-223.382,-314.847,-374.327,-113.637,222.500,145.760,-3170.220
829,38594.882000,-129.713,244.870,-225.359,-280.212,-401.717,-122.093,285.500,366.760,-3206.220
830,38594.901000,-111.113,236.775,-218.440,-256.587,-411.602,-125.453,318.500,480.760,-3194.220
831,38594.926000,-89.576,221.597,-219.429,-210.264,-433.295,-134.123,333.500,404.760,-3195.220
832,38594.952000,-90.554,205.407,-228.324,-165.033,-450.147,-138.841,361.500,206.760,-3185.220
833,38594.970000,-95.449,195.289,-233.266,-140.474,-457.139,-141.237,391.500,108.760,-3165.220
834,38594.987000,-107.197,185.170,-234.255,-93.303,-472.073,-145.992,453.500,95.760,-3118.220
835,38595.8000,-91.533,164.933,-225.359,-62.935,-474.283,-147.511,490.500,101.760,-3036.220
836,38595.30000,-62.164,147.731,-222.394,-11.091,-480.563,-144.483,499.500,-247.240,-2974.220
837,38595.52000,-74.891,131.542,-226.347,6.366,-480.732,-135.931,505.500,-599.240,-2940.220
838,38595.75000,-102.302,110.292,-227.336,62.955,-484.160,-126.100,505.500,-518.240,-2882.220
839,38595.107000,-98.386,96.126,-222.394,110.683,-477.833,-118.091,509.500,-339.240,-2851.220
840,38595.126000,-84.681,88.032,-212.510,134.097,-474.179,-116.541,529.500,-328.240,-2843.220
841,38595.145000,-86.639,68.806,-209.544,187.598,-457.264,-108.647,551.500,-260.240,-2795.220
842,38595.165000,-72.933,47.557,-195.707,209.037,-451.657,-107.064,543.500,-75.240,-2688.220
843,38595.187000,-55.312,29.344,-184.834,248.804,-432.684,-97.946,530.500,-82.240,-2567.220
844,38595.197000,-59.228,7.083,-174.950,264.319,-423.155,-95.278,514.500,-54.240,-2458.220
845,38595.222000,-34.753,-11.130,-164.077,300.180,-401.242,-88.062,452.500,-118.240,-2334.220
846,38595.237000,-24.964,-23.273,-164.077,325.445,-387.932,-85.572,416.500,-342.240,-2225.220
847,38595.263000,-37.690,-48.569,-162.100,353.435,-368.854,-74.276,368.500,-239.240,-2060.220
848,38595.283000,-26.922,-58.688,-158.147,375.554,-343.915,-65.836,334.500,-235.240,-1896.220
849,38595.303000,-22.027,-69.818,-158.147,391.069,-334.386,-63.168,333.500,-241.240,-1810.220
850,38595.322000,-25.943,-88.032,-161.112,410.253,-313.292,-52.703,318.500,-206.240,-1617.220
851,38595.340000,-23.006,-97.138,-161.112,416.952,-300.780,-50.868,309.500,-156.240,-1448.220
852,38595.367000,-25.943,-105.233,-166.054,430.369,-281.562,-45.221,315.500,-110.240,-1294.220
853,38595.385000,-23.985,-123.447,-165.066,439.035,-273.907,-41.445,302.500,-82.240,-1127.220
854,38595.407000,-25.943,-137.613,-161.112,451.483,-257.584,-34.794,274.500,-155.240,-1058.220
855,38595.445000,-22.027,-139.636,-159.135,464.980,-245.137,-30.125,225.500,-38.240,-965.220
856,38595.463000,-18.111,-143.684,-150.239,470.779,-237.451,-30.236,193.500,14.760,-877.220
857,38595.477000,-11.258,-145.708,-145.297,470.559,-222.945,-25.327,165.500,118.760,-745.220
858,38595.490000,-0.489,-147.731,-136.402,476.377,-217.194,-25.437,161.500,174.760,-673.220
859,38595.515000,-8.321,-154.814,-147.274,480.202,-209.491,-24.529,117.500,229.760,-517.220
860,38595.530000,-13.216,-168.980,-149.251,481.153,-202.726,-26.523,93.500,288.760,-366.220
861,38595.543000,2.447,-168.980,-151.228,482.088,-199.834,-25.558,56.500,360.760,-212.220
862,38595.565000,-23.006,-169.992,-160.124,487.993,-197.949,-28.618,32.500,120.760,-138.220
863,38595.586000,-32.795,-179.099,-169.019,484.044,-195.980,-27.566,3.500,107.760,-61.220
864,38595.613000,-36.711,-175.051,-173.961,483.048,-195.972,-26.564,-20.500,97.760,-13.220
865,38595.631000,-46.501,-172.016,-176.927,486.044,-196.963,-29.569,-20.500,6.760,8.780
866,38595.651000,-55.312,-169.992,-182.857,483.127,-200.807,-28.529,-15.500,-12.240,3.780
867,38595.673000,-53.354,-167.968,-186.811,489.958,-196.999,-29.638,-11.500,9.760,15.780
868,38595.696000,-58.249,-159.874,-188.788,484.114,-199.848,-29.532,1.500,-14.240,35.780
869,38595.716000,-59.228,-156.838,-184.834,483.118,-197.904,-29.516,39.500,43.760,79.780
870,38595.738000,-45.522,-157.850,-179.892,485.145,-203.725,-30.530,46.500,148.760,128.780
871,38595.786000,-49.438,-157.850,-179.892,479.222,-201.739,-28.459,52.500,82.760,143.780
872,38595.786000,-52.375,-161.897,-177.915,483.136,-203.710,-27.541,46.500,139.760,176.780
873,38595.803000,-41.606,-160.885,-178.903,483.260,-211.447,-30.487,41.500,160.760,226.780
874,38595.818000,-31.816,-159.874,-173.961,477.336,-207.525,-29.403,45.500,87.760,296.780
875,38595.843000,-20.069,-155.826,-167.042,476.429,-217.191,-28.391,53.500,41.760,393.780
876,38595.861000,-19.090,-154.814,-158.147,478.447,-220.109,-30.392,54.500,-51.240,448.780
877,38595.883000,-20.069,-161.897,-150.239,466.820,-228.707,-32.145,0.500,-1.240,485.780
878,38595.906000,6.363,-154.814,-145.297,463.021,-237.376,-34.037,-84.500,154.760,547.780
879,38595.928000,-2.447,-154.814,-132.448,460.139,-243.154,-33.979,-148.500,153.760,637.780
880,38595.948000,-5.384,-150.767,-126.517,452.495,-251.783,-39.741,-231.500,242.760,738.780
881,38595.963000,-1.468,-139.636,-124.541,445.838,-261.389,-45.518,-338.500,288.760,828.780
882,38595.985000,-7.342,-134.577,-136.402,433.406,-271.904,-56.115,-407.500,279.760,929.780
883,38596.6000,-23.006,-127.494,-143.320,431.598,-280.589,-60.011,-455.500,435.760,1062.780
884,38596.33000,-20.069,-121.423,-146.286,419.219,-294.973,-71.588,-481.500,546.760,1205.780
885,38596.52000,-7.342,-113.328,-152.216,404.987,-311.269,-88.053,-550.500,610.760,1270.780
886,38596.80000,-24.964,-100.174,-161.112,387.610,-321.742,-95.609,-583.500,489.760,1371.780
887,38596.91000,-45.522,-99.162,-166.054,372.434,-338.027,-114.026,-626.500,583.760,1469.780
888,38596.112000,-35.732,-89.043,-172.973,356.996,-344.648,-122.605,-699.500,767.760,1512.780
889,38596.130000,-19.090,-75.889,-174.950,333.014,-360.853,-140.867,-764.500,693.760,1541.780
890,38596.146000,-35.732,-58.688,-185.822,320.494,-365.565,-149.500,-825.500,534.760,1581.780
891,38596.170000,-50.417,-43.510,-186.811,294.467,-377.886,-164.776,-869.500,625.760,1668.780
892,38596.197000,-49.438,-35.415,-200.649,281.047,-385.489,-176.343,-924.500,675.760,1743.780
893,38596.212000,-31.816,-24.285,-203.614,251.105,-393.902,-193.524,-938.500,637.760,1769.780
894,38596.221000,-36.711,5.059,-208.556,213.215,-406.122,-201.699,-944.500,372.760,1832.780
895,38596.248000,-47.480,31.368,-214.486,191.907,-412.690,-210.174,-938.500,298.760,1913.780
896,38596.271000,-28.880,48.569,-210.533,154.951,-420.082,-218.372,-955.500,227.760,2057.780
897,38596.288000,-34.753,58.688,-227.336,132.551,-427.615,-219.936,-968.500,-137.240,2219.780
898,38596.306000,-78.807,65.771,-239.197,90.599,-434.969,-222.138,-872.500,-158.240,2355.780
899,38596.333000,-86.639,71.842,-228.324,69.161,-442.511,-222.735,-819.500,207.760,2402.780
900,38596.348000,-58.249,78.925,-223.382,27.127,-435.351,-227.906,-889.500,229.760,2434.780
901,38596.366000,-35.732,94.103,-233.266,-22.671,-438.763,-230.959,-913.500,-244.240,2518.780
902,38596.393000,-82.723,109.281,-253.035,-38.448,-438.627,-223.789,-863.500,-398.240,2556.780
903,38596.416000,-120.902,123.447,-247.104,-84.508,-432.406,-221.997,-724.500,-142.240,2550.780
904,38596.435000,-118.945,118.387,-235.243,-102.156,-428.376,-221.689,-724.500,449.760,2485.780
905,38596.452000,-71.954,127.494,-240.185,-150.097,-415.357,-227.747,-815.500,487.760,2493.780
906,38596.478000,-63.143,129.518,-231.290,-161.962,-409.450,-223.606,-855.500,37.760,2467.780
907,38596.503000,-90.554,133.565,-222.394,-207.132,-393.563,-221.841,-881.500,-7.240,2296.780
908,38596.521000,-103.281,141.660,-221.405,-222.047,-375.053,-217.661,-958.500,250.760,2136.780
909,38596.558000,-65.101,164.933,-225.359,-253.508,-369.937,-211.204,-1050.500,42.760,2047.780
910,38596.587000,-44.543,188.206,-226.347,-283.273,-353.238,-195.930,-1028.500,-422.240,1976.780
911,38596.596000,-73.912,193.265,-227.336,-299.060,-346.328,-191.721,-996.500,-500.240,1924.780
912,38596.598000,-88.597,192.253,-226.347,-326.896,-326.746,-176.485,-965.500,-307.240,1875.780
913,38596.628000,-61.185,203.383,-220.417,-334.907,-321.845,-168.473,-968.500,-284.240,1853.780
914,38596.648000,-33.774,227.668,-211.521,-355.909,-304.262,-151.386,-964.500,-565.240,1858.780
915,38596.661000,-34.753,246.893,-198.672,-374.701,-297.329,-143.186,-938.500,-805.240,1900.780
916,38596.688000,-54.333,258.024,-192.741,-396.796,-274.903,-122.148,-913.500,-800.240,2001.780
917,38596.705000,-65.101,267.130,-199.660,-415.921,-250.566,-104.118,-829.500,-715.240,2111.780
918,38596.728000,-72.933,283.320,-199.660,-428.843,-239.815,-97.995,-708.500,-611.240,2181.780
919,38596.745000,-70.975,286.356,-202.625,-444.003,-215.511,-82.989,-612.500,-542.240,2217.780
920,38596.766000,-70.975,275.225,-198.672,-451.116,-196.106,-77.963,-561.500,-387.240,2246.780
921,38596.793000,-68.038,253.976,-197.683,-459.340,-169.923,-68.988,-475.500,-272.240,2261.780
922,38596.811000,-61.185,248.917,-202.625,-469.355,-150.489,-65.881,-459.500,-268.240,2215.780
923,38596.831000,-64.122,241.834,-208.556,-482.506,-124.265,-54.850,-363.500,-437.240,2102.780
924,38596.860000,-81.744,217.549,-214.486,-488.669,-98.094,-51.818,-240.500,-534.240,1871.780
925,38596.875000,-105.239,190.229,-213.498,-484.921,-91.364,-45.985,-141.500,-352.240,1551.780
926,38596.897000,-77.828,176.063,-210.533,-488.026,-72.956,-45.952,-114.500,-90.240,1258.780
927,38596.915000,-58.249,186.182,-206.579,-495.925,-65.146,-45.821,-57.500,-241.240,925.780
928,38596.937000,-73.912,190.229,-199.660,-496.022,-58.376,-43.859,-6.500,-354.240,593.780
929,38596.956000,-97.407,185.170,-193.730,-492.161,-52.607,-43.934,107.500,-302.240,410.780
930,38596.973000,-88.597,188.206,-188.788,-496.967,-52.558,-48.771,174.500,9.760,89.780
931,38596.990000,-66.080,200.348,-188.788,-737.536,-56.169,-49.433,188.500,195.760,-260.220
932,38597.26000,-74.891,213.502,-187.799,-489.041,-65.206,-47.912,208.500,114.760,-603.220
933,38597.45000,-93.491,225.644,-194.718,-490.726,-77.756,-56.728,226.500,69.760,-927.220
934,38597.67000,-100.344,241.834,-200.649,-488.681,-83.576,-58.726,251.500,93.760,-1213.220
935,38597.76000,-96.428,250.941,-203.614,-485.464,-104.881,-63.680,259.500,70.760,-1471.220
936,38597.98000,-97.407,256.000,-208.556,-475.485,-120.445,-66.792,285.500,-39.240,-1713.220
937,38597.120000,-95.449,259.036,-209.544,-475.141,-146.560,-72.674,291.500,-88.240,-1828.220
938,38597.151000,-96.428,265.107,-211.521,-470.027,-164.982,-75.696,283.500,-179.240,-2076.220
939,38597.158000,-108.176,276.237,-208.556,-458.001,-194.110,-76.859,286.500,-245.240,-2301.220
940,38597.181000,-109.155,281.296,-199.660,-435.089,-227.200,-83.133,326.500,-138.240,-2432.220
941,38597.196000,-96.428,280.285,-202.625,-430.894,-246.578,-89.091,317.500,-2.240,-2561.220
942,38597.223000,-101.323,290.403,-213.498,-410.027,-275.784,-92.379,343.500,129.760,-2678.220
943,38597.238000,-112.092,291.415,-212.510,-395.024,-294.289,-101.483,430.500,489.760,-2715.220
944,38597.258000,-92.512,282.308,-213.498,-363.273,-321.651,-112.842,510.500,706.760,-2717.220
945,38597.278000,-62.164,273.202,-222.394,-351.155,-338.191,-125.835,591.500,538.760,-2768.220
946,38597.301000,-56.291,257.012,-233.266,-320.496,-362.646,-132.255,629.500,363.760,-2816.220
947,38597.326000,-81.744,245.881,-242.162,-280.933,-392.015,-141.781,721.500,81.760,-2922.220
948,38597.343000,-103.281,238.798,-244.139,-258.235,-403.824,-147.091,821.500,154.760,-2960.220
949,38597.367000,-86.639,224.632,-235.243,-210.864,-425.522,-159.717,903.500,344.760,-2938.220
950,38597.390000,-56.291,208.443,-227.336,-188.235,-433.463,-163.062,932.500,203.760,-2919.220
951,38597.412000,-47.480,188.206,-225.359,-139.142,-452.288,-163.908,902.500,-183.240,-2959.220
952,38597.428000,-71.954,171.004,-225.359,-118.557,-458.281,-163.281,892.500,-423.240,-2974.220
953,38597.452000,-90.554,155.826,-212.510,-68.626,-469.380,-160.214,866.500,-302.240,-2921.220
954,38597.470000,-68.038,139.636,-200.649,-16.833,-475.662,-154.232,798.500,-311.240,-2862.220
955,38597.492000,-48.459,125.470,-198.672,13.362,-477.882,-145.903,760.500,-455.240,-2834.220
956,38597.512000,-65.101,105.233,-191.753,58.235,-480.235,-137.834,718.500,-749.240,-2768.220
957,38597.525000,-92.512,80.949,-183.846,78.592,-476.561,-129.339,660.500,-767.240,-2675.220
958,38597.538000,-89.576,63.747,-170.996,129.239,-474.133,-118.424,585.500,-603.240,-2592.220
959,38597.566000,-73.912,47.557,-164.077,151.518,-468.543,-108.980,496.500,-679.240,-2547.220
960,38597.588000,-71.954,29.344,-160.124,195.158,-456.383,-94.015,409.500,-828.240,-2544.220
961,38597.611000,-85.660,11.130,-159.135,218.425,-453.705,-83.601,290.500,-858.240,-2542.220
962,38597.635000,-107.197,-1.012,-158.147,257.161,-434.725,-71.511,203.500,-656.240,-2506.220
963,38597.652000,-98.386,-15.178,-153.205,296.867,-412.851,-60.425,126.500,-484.240,-2461.220
964,38597.672000,-91.533,-26.308,-152.216,307.489,-401.342,-58.658,103.500,-418.240,-2443.220
965,38597.691000,-78.807,-35.415,-152.216,350.243,-380.457,-53.532,65.500,-253.240,-2365.220
966,38597.717000,-66.080,-49.581,-154.193,361.791,-365.088,-50.801,48.500,-164.240,-2235.220
967,38597.735000,-55.312,-64.759,-153.205,390.836,-337.303,-48.394,30.500,-101.240,-2087.220
968,38597.755000,-43.564,-73.866,-154.193,393.621,-324.755,-46.489,22.500,-31.240,-1915.220
969,38597.782000,-23.985,-72.854,-160.124,415.896,-301.743,-45.926,46.500,-53.240,-1698.220
970,38597.801000,-19.090,-90.055,-161.112,431.338,-280.604,-45.239,72.500,-47.240,-1454.220
971,38597.820000,-15.174,-104.221,-158.147,438.099,-270.992,-45.370,60.500,-19.240,-1204.220
972,38597.838000,-1.468,-114.340,-160.124,449.655,-254.655,-43.625,57.500,-62.240,-978.220
973,38597.856000,-9.300,-123.447,-161.112,457.343,-248.926,-38.845,58.500,-155.240,-885.220
974,38597.870000,-26.922,-134.577,-167.042,466.052,-238.365,-39.012,32.500,-41.240,-725.220
975,38597.902000,-19.090,-139.636,-166.054,466.986,-235.473,-38.047,17.500,7.760,-612.220
976,38597.917000,-19.090,-144.696,-167.042,468.871,-223.880,-40.063,-3.500,-57.240,-526.220
977,38597.935000,-31.816,-147.731,-170.996,472.644,-216.180,-36.201,-14.500,-45.240,-418.220
978,38597.957000,-40.627,-152.791,-175.938,474.636,-216.196,-38.205,-24.500,63.760,-330.220
979,38597.980000,-37.690,-148.743,-175.938,470.669,-210.356,-38.142,-16.500,17.760,-227.220
980,38598.3000,-56.291,-156.838,-181.869,479.536,-211.400,-41.251,-8.500,-69.240,-172.220
981,38598.20000,-64.122,-152.791,-189.776,478.487,-205.588,-40.254,-9.500,-46.240,-140.220
982,38598.55000,-58.249,-156.838,-185.822,479.500,-205.595,-42.241,-3.500,65.760,-110.220
983,38598.72000,-63.143,-152.791,-185.822,473.524,-201.676,-38.202,0.500,58.760,-70.220
984,38598.90000,-71.954,-154.814,-185.822,486.253,-202.759,-38.426,12.500,-14.240,-50.220
985,38598.125000,-62.164,-150.767,-185.822,482.374,-202.721,-40.327,17.500,55.760,-21.220
986,38598.142000,-61.185,-151.779,-183.846,484.253,-201.776,-36.423,26.500,63.760,20.780
987,38598.161000,-59.228,-151.779,-179.892,485.240,-202.752,-36.439,32.500,-4.240,77.780
988,38598.170000,-75.870,-146.719,-178.903,478.434,-203.655,-38.287,48.500,-88.240,110.780
989,38598.187000,-66.080,-144.696,-176.927,475.508,-206.532,-37.247,51.500,6.760,154.780
990,38598.206000,-59.228,-143.684,-175.938,473.543,-209.418,-35.240,51.500,20.760,180.780
991,38598.226000,-50.417,-143.684,-170.008,475.527,-210.402,-36.259,49.500,-6.240,251.780
992,38598.253000,-36.711,-140.648,-163.089,474.559,-219.104,-32.294,69.500,-63.240,375.780
993,38598.268000,-23.985,-132.553,-155.181,470.761,-231.645,-32.212,97.500,-142.240,540.780
994,38598.291000,-20.069,-130.530,-150.239,460.015,-233.481,-32.019,96.500,-155.240,750.780
995,38598.313000,-25.943,-133.565,-149.251,460.150,-253.800,-29.045,78.500,-19.240,969.780
996,38598.336000,-18.111,-137.613,-144.309,451.424,-262.426,-28.880,74.500,252.760,1179.780
997,38598.351000,-11.258,-136.601,-139.367,438.015,-280.676,-35.513,33.500,310.760,1385.780
998,38598.373000,-23.985,-129.518,-143.320,425.366,-290.235,-34.293,-14.500,222.760,1504.780
999,38598.393000,-32.795,-121.423,-142.332,412.002,-315.257,-39.934,-47.500,215.760,1535.780
1000,38598.411000,-41.606,-109.281,-146.286,389.779,-334.395,-45.425,-129.500,244.760,1573.780
