Sample, Time, ACCX, ACCY, ACCZ, MAGX, MAGY, MAGZ, GYRX, GYRY, GYRZ
0,38689.491000,-47.480,-8.095,-240.185,72.162,-366.005,-322.307,-9.500,-46.240,4.780
1,38689.525000,-50.417,-6.071,-240.185,64.335,-367.870,-321.182,-6.500,-5.240,5.780
2,38689.544000,-49.438,-6.071,-245.127,70.223,-367.922,-322.271,-16.500,35.760,-5.220
3,38689.567000,-48.459,-6.071,-241.174,68.283,-365.968,-324.207,-14.500,85.760,10.780
4,38689.585000,-47.480,-4.047,-244.139,68.292,-366.935,-324.206,-18.500,112.760,11.780
5,38689.607000,-54.333,-3.036,-252.046,71.245,-366.961,-325.243,-8.500,159.760,21.780
6,38689.632000,-57.270,-2.024,-267.861,74.214,-363.114,-329.238,-4.500,258.760,50.780
7,38689.647000,-61.185,-2.024,-270.826,72.394,-357.281,-340.042,3.500,559.760,72.780
8,38689.673000,-61.185,-11.130,-247.104,64.529,-347.533,-342.867,19.500,904.760,110.780
9,38689.691000,-25.943,-4.047,-229.313,62.741,-333.955,-359.587,-4.500,1171.760,116.780
10,38689.728000,12.237,-8.095,-207.568,68.646,-330.135,-363.634,7.500,1029.760,116.780
11,38689.747000,9.300,-1.012,-229.313,68.678,-322.390,-369.550,2.500,518.760,60.780
12,38689.766000,-4.405,-6.071,-240.185,63.803,-320.409,-371.435,29.500,341.760,76.780
13,38689.766000,-2.447,-10.119,-230.301,63.889,-318.468,-377.346,7.500,386.760,80.780
14,38689.780000,3.426,-9.107,-226.347,63.879,-315.565,-378.333,-21.500,216.760,4.780
15,38689.807000,5.384,-4.047,-238.208,59.939,-312.627,-378.267,-25.500,125.760,-6.220
16,38689.825000,-4.405,-3.036,-252.046,62.919,-317.491,-378.314,-4.500,-29.240,3.780
17,38689.852000,-15.174,-6.071,-255.012,69.750,-315.618,-378.437,-4.500,-22.240,16.780
18,38689.870000,-3.426,-6.071,-246.116,63.904,-310.724,-382.277,1.500,100.760,34.780
19,38689.890000,-1.468,-11.130,-244.139,60.943,-313.602,-379.268,-7.500,26.760,1.780
20,38689.917000,-11.258,-7.083,-250.069,58.025,-311.639,-381.188,-11.500,-35.240,-36.220
21,38689.932000,-8.321,-5.059,-249.081,65.844,-312.678,-380.341,-8.500,19.760,-30.220
22,38689.955000,-4.405,-7.083,-246.116,62.900,-313.620,-379.303,-13.500,24.760,-20.220
23,38689.972000,-4.405,-6.071,-246.116,65.853,-311.710,-381.326,-14.500,9.760,-27.220
24,38689.995000,-7.342,-6.071,-245.127,63.922,-314.594,-381.289,-14.500,-27.240,-31.220
25,38690.28000,-11.258,-8.095,-244.139,66.780,-313.658,-377.403,-14.500,-14.240,-42.220
26,38690.46000,-4.405,-5.059,-242.162,68.867,-316.572,-383.343,-18.500,17.760,-56.220
27,38690.73000,-3.426,-5.059,-241.174,64.831,-310.736,-379.340,-21.500,-12.240,-61.220
28,38690.82000,-4.405,-3.036,-242.162,67.889,-316.563,-383.326,-25.500,-32.240,-55.220
29,38690.105000,-4.405,-2.024,-244.139,67.810,-313.664,-380.374,-16.500,-30.240,-40.220
30,38690.117000,-6.363,-5.059,-246.116,70.659,-311.759,-376.489,-11.500,-19.240,-37.220
31,38690.140000,-5.384,-4.047,-244.139,62.927,-316.522,-379.300,-20.500,-1.240,-31.220
32,38690.157000,-3.426,-4.047,-243.151,62.857,-312.655,-377.334,-20.500,-10.240,-25.220
33,38690.185000,-5.384,-3.036,-244.139,65.906,-315.579,-382.307,-17.500,-10.240,-0.220
34,38690.202000,-3.426,-2.024,-245.127,65.800,-309.777,-379.359,-15.500,-3.240,14.780
35,38690.220000,-3.426,-3.036,-246.116,64.901,-314.603,-381.306,-6.500,-14.240,26.780
36,38690.250000,-7.342,-6.071,-245.127,68.754,-311.739,-379.409,-5.500,7.760,23.780
37,38690.265000,-6.363,-7.083,-244.139,64.866,-312.670,-380.323,-7.500,36.760,19.780
38,38690.286000,-3.426,-8.095,-245.127,59.956,-310.690,-380.239,-13.500,31.760,0.780
39,38690.308000,-2.447,-3.036,-246.116,62.857,-312.655,-377.334,-8.500,-20.240,-4.220
40,38690.326000,-7.342,-6.071,-247.104,67.784,-312.697,-379.390,-15.500,-4.240,1.780
41,38690.348000,-6.363,-4.047,-246.116,62.960,-310.713,-384.230,-16.500,3.760,3.780
42,38690.371000,-6.363,-3.036,-247.104,58.969,-313.586,-378.249,-12.500,-2.240,5.780
43,38690.393000,-7.342,-4.047,-246.116,63.922,-312.659,-382.275,-8.500,-2.240,5.780
44,38690.411000,-6.363,-5.059,-246.116,61.929,-308.771,-382.245,-10.500,5.760,2.780
45,38690.443000,-6.363,-3.036,-243.151,59.021,-311.647,-382.190,-12.500,7.760,-1.220
46,38690.457000,-3.426,-3.036,-242.162,61.948,-312.642,-381.256,-17.500,-18.240,-6.220
47,38690.485000,-8.321,-1.012,-245.127,69.811,-314.647,-382.377,-14.500,-14.240,-2.220
48,38690.497000,-8.321,-2.024,-244.139,70.824,-314.654,-384.364,-9.500,25.760,10.780
49,38690.512000,-5.384,-2.024,-243.151,58.068,-312.604,-383.156,-15.500,24.760,0.780
50,38690.533000,-4.405,-2.024,-242.162,59.991,-312.624,-381.221,-17.500,1.760,0.780
51,38690.553000,-6.363,-3.036,-241.174,59.021,-311.647,-382.190,-29.500,-7.240,-6.220
52,38690.576000,-6.363,-2.024,-245.127,59.091,-315.514,-384.156,-30.500,-6.240,-7.220
53,38690.598000,-3.426,-1.012,-245.127,63.956,-310.721,-385.232,-24.500,-13.240,-4.220
54,38690.620000,-5.384,-2.024,-246.116,63.957,-314.592,-383.258,-19.500,-23.240,1.780
55,38690.652000,-7.342,-1.012,-247.104,63.879,-313.629,-379.320,-18.500,4.760,9.780
56,38690.655000,-3.426,-1.012,-246.116,63.887,-312.661,-380.306,-10.500,0.760,12.780
57,38690.681000,-6.363,-2.024,-247.104,58.994,-310.680,-381.206,-10.500,-2.240,4.780
58,38690.698000,-7.342,-1.012,-246.116,61.047,-311.661,-386.164,-10.500,6.760,5.780
59,38690.716000,-6.363,-2.024,-248.093,58.042,-309.702,-383.159,-7.500,17.760,5.780
60,38690.738000,-5.384,-1.012,-247.104,61.013,-313.598,-383.207,-9.500,-2.240,1.780
61,38690.757000,-6.363,-1.012,-244.139,60.025,-312.622,-383.191,-7.500,-11.240,0.780
62,38690.776000,-7.342,-1.012,-244.139,60.970,-314.569,-380.252,-8.500,5.760,-0.220
63,38690.804000,-6.363,-1.012,-244.139,55.107,-311.611,-382.121,-13.500,4.760,-8.220
64,38690.818000,-4.405,-1.012,-246.116,58.016,-310.671,-381.189,-11.500,-6.240,-9.220
65,38690.840000,-6.363,-2.024,-247.104,60.943,-311.667,-380.255,-12.500,-17.240,-15.220
66,38690.860000,-5.384,-2.024,-245.127,60.969,-312.633,-381.239,-13.500,0.760,-12.220
67,38690.880000,-3.426,-2.024,-246.116,59.046,-310.677,-384.160,-13.500,2.760,-11.220
68,38690.905000,-5.384,-2.024,-245.127,56.068,-311.621,-381.153,-12.500,-15.240,-16.220
69,38690.922000,-3.426,-1.012,-246.116,58.024,-309.703,-382.175,-13.500,-6.240,-13.220
70,38690.938000,-4.405,-2.024,-245.127,57.064,-311.629,-382.155,-12.500,-17.240,-11.220
71,38690.956000,-5.384,-1.012,-245.127,56.111,-310.651,-384.108,-11.500,-24.240,-6.220
72,38690.983000,-5.384,-2.024,-246.116,63.896,-311.692,-381.292,-6.500,-21.240,-8.220
73,38691.3000,-5.384,-2.024,-246.116,65.871,-315.581,-380.338,-4.500,-9.240,-7.220
74,38691.26000,-4.405,-2.024,-248.093,62.918,-313.619,-380.288,-6.500,-14.240,-9.220
75,38691.43000,-6.363,-1.012,-247.104,55.998,-309.689,-378.201,-2.500,-22.240,-6.220
76,38691.76000,-8.321,-1.012,-246.116,63.896,-311.692,-381.292,0.500,-21.240,-6.220
77,38691.95000,-63.143,-44.522,-126.517,64.883,-312.669,-381.308,1.500,0.760,-7.220
78,38691.108000,19.090,-136.601,-174.950,56.028,-326.142,-371.291,301.500,-1271.240,537.780
79,38691.131000,-42.585,17.202,-210.533,54.958,-340.657,-358.457,-97.500,-1704.240,-66.220
80,38691.153000,-128.734,-48.569,-247.104,52.961,-351.288,-350.534,-106.500,-1159.240,13.780
81,38691.171000,-143.419,5.059,-269.838,51.912,-347.412,-348.551,-127.500,319.760,-119.220
82,38691.193000,-53.354,-13.154,-264.896,60.940,-335.864,-367.429,-22.500,1482.760,0.780
83,38691.215000,42.585,-17.202,-262.919,54.089,-326.123,-372.241,-63.500,1176.760,-72.220
84,38691.232000,36.711,49.581,-257.977,54.138,-316.441,-380.129,-235.500,667.760,-126.220
85,38691.248000,-7.342,38.451,-270.826,51.116,-316.419,-375.153,-62.500,-114.240,-163.220
86,38691.272000,-30.837,-4.047,-279.722,53.161,-320.304,-378.138,0.500,-143.240,-55.220
87,38691.295000,-12.237,9.107,-269.838,52.147,-318.361,-377.138,19.500,146.760,-50.220
88,38691.311000,8.321,6.071,-254.023,54.130,-319.345,-378.157,52.500,172.760,-19.220
89,38691.342000,7.342,5.059,-246.116,56.139,-317.425,-382.132,60.500,-22.240,-33.220
90,38691.360000,-6.363,5.059,-244.139,57.057,-318.405,-378.209,67.500,-113.240,-25.220
91,38691.382000,-10.279,2.024,-240.185,59.966,-319.401,-376.291,63.500,-53.240,-14.220
92,38691.395000,-6.363,1.012,-238.208,63.889,-318.468,-377.346,60.500,-19.240,-2.220
93,38691.417000,-5.384,1.012,-235.243,54.130,-317.410,-379.143,49.500,4.760,-1.220
94,38691.440000,-8.321,1.012,-236.232,57.030,-317.438,-377.226,37.500,8.760,5.780
95,38691.467000,-6.363,1.012,-238.208,61.923,-317.483,-377.312,23.500,48.760,14.780
96,38691.482000,-4.405,0.000,-239.197,56.043,-316.462,-377.209,16.500,64.760,19.780
97,38691.505000,-4.405,-1.012,-241.174,54.130,-317.410,-379.143,9.500,48.760,22.780
98,38691.523000,-118.945,34.403,-6.919,55.073,-313.549,-379.164,-779.500,790.760,-196.220
99,38691.543000,-16.153,-103.209,-200.649,53.125,-318.370,-377.155,-620.500,-318.240,-35.220
100,38691.568000,-55.312,14.166,-226.347,52.147,-320.297,-376.151,-219.500,-280.240,-13.220
101,38691.582000,-67.059,1.012,-242.162,51.239,-324.156,-378.100,-176.500,111.760,37.780
102,38691.603000,-18.111,12.142,-247.104,52.172,-315.456,-380.095,-67.500,646.760,41.780
103,38691.628000,10.279,-2.024,-262.919,50.266,-311.564,-384.988,5.500,463.760,28.780
104,38691.643000,35.732,7.083,-271.815,46.360,-308.624,-386.892,49.500,-82.240,4.780
105,38691.661000,-10.279,27.320,-270.826,52.138,-317.394,-377.139,-67.500,-482.240,-87.220
106,38691.683000,-49.438,9.107,-285.652,52.189,-315.455,-381.080,-17.500,-33.240,-20.220
107,38691.706000,-11.258,9.107,-269.838,43.426,-314.405,-383.880,19.500,218.760,9.780
108,38691.726000,11.258,11.130,-257.977,47.323,-314.441,-382.964,37.500,16.760,2.780
109,38691.735000,0.489,9.107,-253.035,52.172,-315.456,-380.095,46.500,-88.240,-6.220
110,38691.763000,-12.237,6.071,-250.069,54.112,-315.475,-379.145,58.500,-124.240,-8.220
111,38691.801000,-13.216,6.071,-243.151,54.085,-312.573,-379.148,55.500,-59.240,-8.220
112,38691.807000,-6.363,7.083,-239.197,52.137,-313.522,-379.113,53.500,-20.240,-4.220
113,38691.825000,-6.363,5.059,-237.220,55.064,-314.517,-378.179,44.500,-23.240,3.780
114,38691.848000,-9.300,6.071,-239.197,55.099,-316.451,-379.162,33.500,-0.240,7.780
115,38691.870000,-10.279,3.036,-239.197,55.064,-312.582,-379.165,25.500,46.760,6.780
116,38691.891000,-3.426,3.036,-239.197,49.254,-315.428,-381.028,21.500,33.760,3.780
117,38691.908000,-3.426,3.036,-242.162,51.167,-314.481,-379.094,14.500,-2.240,3.780
118,38691.931000,-5.384,3.036,-243.151,50.224,-316.406,-380.060,13.500,-13.240,6.780
119,38691.951000,-143.419,66.783,50.409,48.167,-329.944,-367.210,-899.500,410.760,-95.220
120,38691.971000,-56.291,-202.372,-196.695,56.005,-336.790,-364.387,-554.500,-1089.240,-177.220
121,38691.993000,-70.975,30.356,-217.452,45.210,-348.309,-356.307,-277.500,-951.240,-59.220
122,38692.13000,-111.113,-25.296,-240.185,40.291,-345.362,-356.223,-271.500,158.760,-59.220
123,38692.31000,-54.333,28.332,-235.243,39.379,-335.671,-365.079,-149.500,607.760,11.780
124,38692.53000,-33.774,8.095,-244.139,40.366,-334.711,-366.082,-100.500,603.760,-21.220
125,38692.67000,-22.027,2.024,-262.919,40.424,-324.061,-374.955,-44.500,468.760,-43.220
126,38692.95000,-12.237,8.095,-277.745,43.376,-322.151,-376.979,13.500,393.760,-46.220
127,38692.117000,-1.468,30.356,-280.710,35.522,-321.113,-375.856,30.500,169.760,-37.220
128,38692.137000,-23.985,23.273,-280.710,36.526,-318.217,-378.831,-19.500,185.760,-37.220
129,38692.157000,-9.300,15.178,-271.815,36.551,-317.248,-380.801,15.500,168.760,-41.220
130,38692.180000,-2.447,16.190,-262.919,43.348,-313.441,-379.942,40.500,56.760,-29.220
131,38692.205000,-5.384,16.190,-256.988,43.427,-316.340,-382.893,55.500,6.760,-21.220
132,38692.233000,-5.384,13.154,-249.081,47.262,-315.413,-379.024,65.500,-10.240,-19.220
133,38692.247000,-8.321,12.142,-243.151,47.359,-320.247,-381.974,63.500,-11.240,-22.220
134,38692.256000,-7.342,12.142,-237.220,40.439,-314.381,-380.873,53.500,6.760,-25.220
135,38692.270000,-7.342,9.107,-238.208,50.189,-316.408,-378.090,46.500,12.760,-23.220
136,38692.302000,-8.321,8.095,-239.197,51.237,-316.413,-382.047,36.500,24.760,-15.220
137,38692.320000,-5.384,9.107,-241.174,48.223,-313.487,-379.043,32.500,52.760,-8.220
138,38692.337000,-4.405,8.095,-241.174,46.327,-316.369,-380.975,28.500,46.760,-3.220
139,38692.360000,-3.426,8.095,-244.139,44.327,-315.386,-378.972,22.500,21.760,-6.220
140,38692.382000,143.419,-6.071,-265.884,45.331,-312.490,-381.947,-1143.500,141.760,65.780
141,38692.411000,-50.417,24.285,-211.521,38.304,-330.828,-362.112,-589.500,-980.240,-293.220
142,38692.433000,-39.648,14.166,-216.463,43.244,-347.324,-356.273,-137.500,-809.240,-17.220
143,38692.448000,-105.239,-12.142,-250.069,41.217,-345.374,-353.286,-170.500,-156.240,-62.220
144,38692.471000,-59.228,18.213,-254.023,36.392,-337.583,-361.086,-168.500,348.760,-66.220
145,38692.498000,-35.732,2.024,-269.838,34.460,-334.660,-364.008,-73.500,786.760,-6.220
146,38692.517000,-5.384,21.249,-279.722,39.498,-325.985,-376.905,11.500,847.760,-83.220
147,38692.539000,12.237,48.569,-265.884,42.362,-318.272,-376.965,-13.500,581.760,-18.220
148,38692.546000,-9.300,17.202,-278.734,42.370,-315.368,-378.938,-6.500,135.760,-25.220
149,38692.576000,-15.174,17.202,-276.757,38.534,-316.296,-382.806,35.500,108.760,-23.220
150,38692.597000,-6.363,16.190,-261.931,38.508,-315.330,-381.823,69.500,140.760,-9.220
151,38692.606000,-4.405,16.190,-256.988,43.417,-313.437,-383.881,82.500,99.760,-13.220
152,38692.633000,-0.489,14.166,-249.081,48.283,-312.515,-382.983,95.500,75.760,-12.220
153,38692.653000,0.489,13.154,-243.151,42.360,-310.529,-380.912,97.500,-15.240,-12.220
154,38692.671000,-11.258,12.142,-241.174,47.296,-311.539,-382.967,92.500,-90.240,-18.220
155,38692.693000,-11.258,10.119,-238.208,43.417,-313.437,-383.881,84.500,-29.240,-14.220
156,38692.713000,-7.342,10.119,-237.220,44.335,-312.482,-380.945,73.500,17.760,-7.220
157,38692.731000,-8.321,10.119,-237.220,44.362,-317.320,-379.955,64.500,18.760,-7.220
158,38692.753000,-8.321,8.095,-237.220,42.361,-312.465,-379.925,55.500,42.760,-6.220
159,38692.776000,-4.405,8.095,-239.197,46.335,-313.465,-382.948,48.500,51.760,-3.220
160,38692.793000,-2.447,8.095,-244.139,48.258,-313.485,-381.013,45.500,15.760,-1.220
161,38692.816000,-7.342,7.083,-243.151,50.258,-312.532,-384.003,44.500,1.760,-0.220
162,38692.838000,509.553,516.047,156.170,45.282,-326.043,-372.085,-9.500,12.760,-11.220
163,38692.864000,-75.870,-125.470,-252.046,42.253,-332.797,-363.164,-136.500,-2286.240,-398.220
164,38692.877000,-56.291,67.794,-221.405,48.057,-342.533,-354.395,-174.500,-903.240,-29.220
165,38692.895000,-112.092,-33.391,-255.012,44.162,-346.368,-353.337,-150.500,-133.240,19.780
166,38692.942000,-75.870,13.154,-257.977,41.311,-340.529,-361.169,-112.500,860.760,-53.220
167,38692.956000,-30.837,6.071,-262.919,45.230,-324.110,-370.118,-2.500,1144.760,-23.220
168,38692.965000,16.153,32.379,-260.942,39.488,-321.146,-378.880,-4.500,869.760,-10.220
169,38692.987000,32.795,34.403,-259.954,36.569,-319.182,-380.799,-20.500,118.760,5.780
170,38693.10000,-13.216,11.130,-277.745,42.430,-314.397,-382.878,-18.500,-64.240,-29.220
171,38693.25000,-22.027,17.202,-275.768,40.421,-312.446,-380.875,26.500,73.760,7.780
172,38693.40000,-5.384,15.178,-262.919,41.461,-315.355,-382.859,53.500,165.760,11.780
173,38693.62000,-3.426,14.166,-256.000,42.465,-314.395,-384.847,69.500,86.760,0.780
174,38693.76000,-0.489,14.166,-250.069,45.384,-316.358,-382.928,82.500,-9.240,-0.220
175,38693.103000,-4.405,14.166,-247.104,47.296,-311.539,-382.967,86.500,-97.240,-8.220
176,38693.121000,-14.195,13.154,-244.139,49.315,-316.393,-383.982,86.500,-45.240,-6.220
177,38693.141000,-12.237,12.142,-241.174,47.305,-314.442,-381.979,80.500,33.760,-0.220
178,38693.164000,-8.321,11.130,-238.208,53.150,-311.593,-382.086,69.500,38.760,0.780
179,38693.181000,-7.342,10.119,-236.232,47.279,-313.476,-380.996,62.500,26.760,0.780
180,38693.206000,-7.342,10.119,-240.185,33.685,-315.281,-385.675,50.500,31.760,-2.220
181,38693.233000,-195.304,-431.051,-173.961,40.317,-344.393,-358.194,328.500,-3331.240,28.780
182,38693.257000,-82.723,23.273,-198.672,33.355,-347.241,-350.192,-165.500,-1306.240,-76.220
183,38693.261000,-141.461,-42.498,-242.162,42.215,-351.189,-351.328,-121.500,-112.240,36.780
184,38693.288000,-161.040,-3.036,-283.676,38.358,-338.568,-361.119,28.500,1693.760,-92.220
185,38693.308000,-59.228,19.225,-284.664,40.498,-309.538,-386.787,189.500,2310.760,53.780
186,38693.331000,143.419,31.368,-215.475,33.586,-300.768,-387.659,-167.500,385.760,-182.220
187,38693.348000,63.143,64.759,-257.977,34.600,-306.582,-386.686,-100.500,-474.240,-158.220
188,38693.381000,-44.543,7.083,-299.490,40.499,-313.410,-384.814,-20.500,-558.240,-80.220
189,38693.400000,-51.396,21.249,-293.560,36.568,-313.375,-383.760,27.500,30.760,-58.220
190,38693.418000,-25.943,20.237,-281.699,41.562,-307.606,-392.715,76.500,386.760,-18.220
191,38693.443000,11.258,23.273,-261.931,40.524,-308.569,-388.757,104.500,252.760,-19.220
192,38693.446000,22.027,23.273,-252.046,44.421,-310.541,-386.855,132.500,-192.240,-56.220
193,38693.467000,-7.342,18.213,-254.023,42.403,-307.623,-384.854,140.500,-269.240,-74.220
194,38693.490000,-23.985,16.190,-255.012,44.396,-315.382,-382.911,142.500,-105.240,-71.220
195,38693.512000,-15.174,15.178,-250.069,50.275,-312.531,-384.987,135.500,-47.240,-64.220
196,38693.535000,-4.405,12.142,-248.093,49.271,-313.492,-383.000,135.500,-78.240,-62.220
197,38693.555000,-3.426,12.142,-248.093,53.072,-312.566,-377.161,132.500,-150.240,-77.220
198,38693.577000,-10.279,11.130,-249.081,49.246,-316.397,-380.042,148.500,-133.240,-75.220
199,38693.605000,-10.279,8.095,-247.104,53.125,-318.370,-377.155,150.500,-101.240,-65.220
200,38693.627000,-3.426,11.130,-247.104,59.940,-318.434,-375.307,152.500,-145.240,-67.220
201,38693.642000,-9.300,9.107,-250.069,62.850,-317.495,-374.375,164.500,-180.240,-59.220
202,38693.670000,-11.258,11.130,-251.058,63.812,-323.312,-370.448,174.500,-202.240,-42.220
203,38693.688000,-15.174,8.095,-255.012,69.718,-325.299,-371.534,188.500,-244.240,-34.220
204,38693.717000,-17.132,5.059,-257.977,68.733,-332.066,-367.571,202.500,-259.240,-29.220
205,38693.720000,-22.027,3.036,-266.873,70.542,-327.253,-361.702,216.500,-323.240,-34.220
206,38693.737000,-35.732,2.024,-288.618,70.595,-334.993,-360.709,224.500,-446.240,-61.220
207,38693.757000,-46.501,1.012,-320.247,78.338,-338.940,-353.951,262.500,-561.240,-60.220
208,38693.780000,-59.228,7.083,-326.178,81.215,-347.681,-346.116,371.500,-726.240,-93.220
209,38693.800000,-58.249,1.012,-314.317,86.049,-354.505,-339.302,510.500,-895.240,-157.220
210,38693.822000,-42.585,-6.071,-298.502,96.642,-368.163,-322.738,617.500,-1273.240,-268.220
211,38693.845000,-64.122,-6.071,-286.641,106.266,-378.908,-308.129,687.500,-1815.240,-440.220
212,38693.867000,-68.038,-13.154,-264.896,117.631,-394.522,-278.778,743.500,-1919.240,-505.220
213,38693.882000,-47.480,-20.237,-226.347,132.962,-410.169,-252.450,757.500,-1865.240,-507.220
214,38693.905000,-38.669,-26.308,-189.776,137.622,-415.066,-236.776,730.500,-1862.240,-486.220
215,38693.917000,-50.417,-39.462,-167.042,155.897,-429.772,-211.486,662.500,-1879.240,-438.220
216,38693.945000,-49.438,-49.581,-146.286,161.466,-432.746,-192.877,556.500,-1663.240,-339.220
217,38693.967000,-27.901,-46.545,-126.517,162.153,-442.450,-171.219,432.500,-1401.240,-224.220
218,38693.985000,-30.837,-54.640,-110.703,164.855,-445.394,-156.497,297.500,-1258.240,-81.220
219,38694.2000,-34.753,-57.676,-93.900,162.727,-451.193,-143.655,146.500,-982.240,95.780
220,38694.30000,-32.795,-60.711,-83.027,158.659,-456.974,-131.762,-31.500,-740.240,266.780
221,38694.45000,-42.585,-59.700,-84.015,160.608,-459.896,-129.825,-129.500,-632.240,422.780
222,38694.58000,-41.606,-51.605,-89.946,147.923,-465.586,-128.609,-310.500,-335.240,493.780
223,38694.86000,-27.901,-40.474,-88.958,137.116,-462.586,-127.437,-460.500,-18.240,647.780
224,38694.114000,-26.922,-36.427,-97.853,120.682,-469.199,-135.014,-610.500,41.760,801.780
225,38694.129000,-52.375,-27.320,-115.645,114.777,-469.148,-132.941,-746.500,25.760,922.780
226,38694.148000,-57.270,-10.119,-131.459,95.398,-470.895,-142.440,-868.500,281.760,1031.780
227,38694.171000,-32.795,12.142,-139.367,78.885,-470.737,-149.040,-991.500,533.760,1142.780
228,38694.193000,-16.153,42.498,-157.158,49.772,-470.456,-162.307,-1115.500,431.760,1250.780
229,38694.211000,-48.459,60.711,-179.892,22.538,-469.230,-171.671,-1172.500,402.760,1365.780
230,38694.236000,-43.564,74.877,-191.753,3.002,-463.243,-176.255,-1204.500,561.760,1433.780
231,38694.245000,-16.153,101.186,-209.544,-28.155,-459.078,-186.538,-1282.500,676.760,1539.780
232,38694.272000,-28.880,121.423,-228.324,-44.643,-457.950,-195.107,-1292.500,510.760,1624.780
233,38694.295000,-45.522,130.530,-242.162,-77.023,-446.047,-195.533,-1268.500,544.760,1727.780
234,38694.317000,-27.901,146.719,-264.896,-100.456,-440.023,-201.032,-1254.500,539.760,1829.780
235,38694.335000,-27.901,175.051,-277.745,-136.809,-430.991,-196.462,-1172.500,331.760,1878.780
236,38694.355000,-61.185,193.265,-281.699,-174.021,-418.072,-200.741,-1066.500,479.760,1930.780
237,38694.369000,-41.606,194.277,-278.734,-181.887,-406.388,-204.553,-1019.500,779.760,2075.780
238,38694.401000,5.384,207.431,-271.815,-222.165,-390.546,-202.874,-946.500,613.760,2164.780
239,38694.418000,-37.690,216.538,-278.734,-240.826,-388.445,-199.593,-897.500,15.760,2173.780
240,38694.441000,-33.774,235.763,-269.838,-269.527,-367.879,-191.234,-793.500,-60.240,2206.780
241,38694.458000,-17.132,256.000,-266.873,-286.336,-363.866,-183.066,-693.500,-369.240,2197.780
242,38694.481000,-35.732,256.000,-273.792,-315.158,-343.307,-167.813,-583.500,-740.240,2224.780
243,38694.501000,-40.627,261.059,-271.815,-320.242,-337.466,-159.854,-429.500,-861.240,2250.780
244,38694.533000,-32.795,284.332,-251.058,-345.090,-317.907,-147.624,-263.500,-917.240,2269.780
245,38694.566000,-46.501,276.237,-259.954,-369.003,-299.328,-132.456,-104.500,-924.240,2366.780
246,38694.566000,-14.195,263.083,-266.873,-383.925,-287.593,-124.330,37.500,-1237.240,2487.780
247,38694.595000,-6.363,287.368,-273.792,-402.859,-269.053,-114.172,146.500,-1516.240,2473.780
248,38694.613000,-77.828,291.415,-287.629,-405.009,-257.431,-109.225,476.500,-1752.240,2501.780
249,38694.631000,-96.428,285.344,-288.618,-431.747,-230.108,-104.847,770.500,-1204.240,2640.780
250,38694.648000,-59.228,297.486,-293.560,-433.829,-214.610,-105.812,1024.500,-1122.240,2835.780
251,38694.668000,-48.459,315.700,-298.502,-443.715,-188.394,-113.544,1317.500,-1408.240,2926.780
252,38694.686000,-66.080,322.783,-308.386,-454.600,-154.426,-124.220,1601.500,-1565.240,2937.780
253,38694.713000,-89.576,317.723,-326.178,-453.573,-140.882,-134.098,1856.500,-1465.240,2905.780
254,38694.733000,-94.470,311.652,-333.097,-464.187,-113.674,-156.585,2117.500,-1353.240,2798.780
255,38694.757000,-100.344,297.486,-330.131,-457.298,-101.151,-165.582,2324.500,-1297.240,2561.780
256,38694.773000,-91.533,276.237,-326.178,-452.012,-83.751,-197.198,2408.500,-1315.240,2420.780
257,38694.798000,-82.723,260.047,-319.259,-449.928,-73.115,-210.045,2535.500,-1440.240,2088.780
258,38694.812000,-84.681,249.929,-308.386,-432.775,-71.301,-240.869,2629.500,-1513.240,1754.780
259,38694.831000,-98.386,227.668,-290.595,-422.792,-68.475,-253.847,2703.500,-1404.240,1396.780
260,38694.858000,-97.407,201.360,-277.745,-406.600,-66.651,-285.638,2737.500,-1201.240,1029.780
261,38694.872000,-99.365,186.182,-264.896,-379.573,-74.601,-316.625,2776.500,-1003.240,629.780
262,38694.898000,-133.629,155.826,-240.185,-367.510,-79.529,-332.584,2766.500,-428.240,220.780
263,38694.915000,-162.998,124.459,-214.486,-334.736,-77.859,-361.715,2723.500,508.760,-201.220
264,38694.937000,-139.503,115.352,-176.927,-323.688,-73.102,-380.620,2730.500,857.760,-390.220
265,38694.955000,-109.155,103.209,-134.425,-289.971,-67.572,-409.772,2775.500,1135.760,-779.220
266,38694.982000,-67.059,88.032,-103.784,-264.245,-68.755,-425.977,2785.500,771.760,-1165.220
267,38694.997000,-59.228,73.866,-66.224,-221.787,-76.859,-444.439,2718.500,214.760,-1602.220
268,38695.15000,-82.723,71.842,-37.560,-179.345,-90.772,-458.956,2563.500,7.760,-1974.220
269,38695.32000,-106.218,42.498,-28.664,-155.645,-90.005,-472.174,2274.500,217.760,-2168.220
270,38695.46000,-89.576,33.391,-4.942,-120.386,-86.452,-476.740,1979.500,514.760,-2231.220
271,38695.78000,-73.912,9.107,12.849,-104.540,-86.583,-487.849,1637.500,597.760,-2260.220
272,38695.87000,-55.312,-11.130,17.792,-76.182,-81.035,-490.327,1222.500,486.760,-2294.220
273,38695.115000,-40.627,-23.273,22.734,-56.586,-82.179,-491.656,1021.500,371.760,-2325.220
274,38695.147000,-53.354,-15.178,23.722,-42.914,-77.466,-492.888,660.500,97.760,-2415.220
275,38695.162000,-51.396,-12.142,11.861,-37.062,-73.649,-493.981,362.500,96.760,-2503.220
276,38695.180000,-23.006,-12.142,6.919,-31.200,-72.735,-494.085,91.500,297.760,-2541.220
277,38695.207000,-24.964,-24.285,1.977,-22.526,-62.175,-492.282,-117.500,357.760,-2592.220
278,38695.235000,-20.069,-21.249,-17.792,-22.493,-56.366,-497.212,-365.500,495.760,-2678.220
279,38695.253000,23.006,-3.036,-35.583,-22.634,-42.823,-496.241,-570.500,627.760,-2817.220
280,38695.270000,34.753,-4.047,-47.444,-29.554,-38.893,-494.154,-743.500,570.760,-2907.220
281,38695.292000,55.312,13.154,-76.108,-39.412,-25.258,-496.949,-994.500,619.760,-2973.220
282,38695.305000,86.639,47.557,-89.946,-49.329,-14.529,-494.817,-1046.500,811.760,-3008.220
283,38695.322000,132.650,81.960,-90.934,-67.163,5.944,-492.557,-1108.500,1062.760,-3100.220
284,38695.350000,153.208,101.186,-84.015,-88.910,20.646,-487.267,-1166.500,1092.760,-3195.220
285,38695.370000,200.199,119.399,-107.737,-96.818,27.488,-486.151,-1327.500,1077.760,-3189.220
286,38695.390000,230.547,152.791,-146.286,-119.445,31.558,-480.833,-1409.500,720.760,-3267.220
287,38695.421000,173.767,188.206,-143.320,-135.266,32.659,-471.694,-1293.500,627.760,-3154.220
288,38695.431000,204.115,216.538,-146.286,-160.874,45.463,-468.303,-1322.500,1400.760,-2931.220
289,38695.453000,308.864,223.621,-185.822,-168.946,51.328,-457.338,-1272.500,1389.760,-3088.220
290,38695.476000,278.516,219.573,-204.602,-198.396,54.493,-452.883,-1188.500,1109.760,-3130.220
291,38695.491000,218.799,239.810,-181.869,-204.397,53.572,-444.900,-1005.500,978.760,-2802.220
292,38695.513000,263.832,254.988,-185.822,-221.135,53.717,-438.697,-915.500,1092.760,-2487.220
293,38695.531000,286.348,262.071,-214.486,-238.902,48.061,-426.563,-795.500,717.760,-2676.220
294,38695.552000,213.904,269.154,-219.429,-251.640,48.176,-425.353,-620.500,582.760,-2769.220
295,38695.572000,206.073,277.249,-191.753,-259.552,38.563,-415.357,-445.500,1005.760,-2493.220
296,38695.592000,231.526,266.119,-181.869,-255.603,38.529,-417.396,-324.500,746.760,-2289.220
297,38695.620000,213.904,254.988,-202.625,-265.420,27.002,-409.333,-220.500,140.760,-2268.220
298,38695.632000,161.040,273.202,-202.625,-272.162,15.455,-409.200,-100.500,8.760,-2339.220
299,38695.655000,140.482,293.439,-195.707,-273.034,1.919,-408.185,-47.500,220.760,-2368.220
300,38695.675000,173.767,287.368,-202.625,-267.055,-13.614,-406.303,50.500,420.760,-2362.220
301,38695.708000,190.409,284.332,-212.510,-274.777,-19.345,-409.113,168.500,-58.240,-2410.220
302,38695.727000,152.229,296.474,-217.452,-264.787,-45.556,-407.290,272.500,-710.240,-2473.220
303,38695.760000,99.365,302.545,-232.278,-253.792,-70.806,-407.455,360.500,-732.240,-2438.220
304,38695.760000,92.512,301.534,-234.255,-240.903,-87.366,-408.648,457.500,-454.240,-2375.220
305,38695.782000,104.260,311.652,-239.197,-243.688,-99.914,-410.553,554.500,-406.240,-2324.220
306,38695.806000,83.702,320.759,-247.104,-221.906,-120.421,-414.853,686.500,-379.240,-2241.220
307,38695.822000,60.207,319.747,-250.069,-214.802,-134.988,-421.852,760.500,-254.240,-2169.220
308,38695.845000,56.291,305.581,-248.093,-190.305,-135.208,-424.255,922.500,4.760,-2020.220
309,38695.862000,54.333,308.617,-261.931,-163.675,-147.052,-430.619,1060.500,121.760,-1962.220
310,38695.885000,40.627,307.605,-271.815,-145.984,-148.175,-434.868,1232.500,247.760,-1896.220
311,38695.905000,32.795,297.486,-279.722,-115.434,-149.407,-447.221,1421.500,409.760,-1812.220
312,38695.927000,48.459,291.415,-286.641,-97.857,-143.762,-448.523,1607.500,239.760,-1756.220
313,38695.950000,26.922,291.415,-290.595,-64.449,-147.928,-455.016,1767.500,-3.240,-1758.220
314,38695.967000,7.342,293.439,-297.514,-40.905,-149.106,-458.384,1939.500,190.760,-1680.220
315,38695.990000,22.027,285.344,-291.583,2.113,-141.756,-461.123,2101.500,245.760,-1601.220
316,38696.10000,32.795,276.237,-286.641,51.009,-135.427,-463.964,2155.500,187.760,-1577.220
317,38696.22000,31.816,264.095,-292.571,65.625,-130.725,-463.244,2272.500,178.760,-1502.220
318,38696.36000,42.585,251.953,-291.583,115.379,-124.411,-459.209,2411.500,137.760,-1391.220
319,38696.63000,41.606,235.763,-288.618,138.680,-117.860,-452.738,2536.500,76.760,-1271.220
320,38696.86000,44.543,223.621,-290.595,186.294,-106.700,-440.795,2635.500,132.760,-1140.220
321,38696.108000,56.291,214.514,-295.537,215.483,-102.136,-434.426,2769.500,17.760,-1007.220
322,38696.128000,36.711,197.312,-292.571,262.986,-91.950,-415.589,2882.500,121.760,-859.220
323,38696.176000,36.711,181.123,-286.641,280.993,-73.762,-392.302,2974.500,388.760,-689.220
324,38696.179000,59.228,168.980,-268.849,334.435,-65.561,-376.522,3019.500,430.760,-595.220
325,38696.197000,69.017,151.779,-244.139,375.703,-53.407,-337.888,3084.500,411.760,-375.220
326,38696.222000,72.933,127.494,-226.347,400.813,-47.849,-322.587,3089.500,422.760,-157.220
327,38696.242000,76.849,101.186,-203.614,434.228,-40.464,-279.871,3088.500,448.760,49.780
328,38696.260000,84.681,74.877,-174.950,451.417,-41.616,-255.563,3041.500,444.760,277.780
329,38696.282000,98.386,55.652,-148.263,478.002,-41.911,-209.764,2973.500,406.760,520.780
330,38696.291000,89.576,32.379,-116.633,487.425,-45.892,-187.283,2815.500,327.760,760.780
331,38696.313000,93.491,5.059,-97.853,503.335,-55.763,-141.284,2655.500,256.760,971.780
332,38696.338000,95.449,-10.119,-74.131,512.519,-75.244,-97.123,2461.500,193.760,1168.780
333,38696.362000,83.702,-25.296,-55.351,523.034,-86.003,-77.607,2371.500,81.760,1253.780
334,38696.382000,69.996,-46.545,-31.629,522.573,-109.259,-39.178,2144.500,154.760,1449.780
335,38696.405000,79.786,-60.711,-13.838,515.581,-127.595,-21.313,1876.500,63.760,1644.780
336,38696.418000,61.185,-69.818,-2.965,506.514,-157.534,9.401,1628.500,-32.240,1795.780
337,38696.436000,28.880,-84.996,0.988,501.600,-173.946,19.351,1382.500,225.760,1989.780
338,38696.458000,20.069,-96.126,1.977,485.971,-210.582,37.391,1135.500,192.760,2127.780
339,38696.476000,3.426,-94.103,-5.931,476.369,-249.199,47.450,898.500,151.760,2234.780
340,38696.498000,-23.006,-89.043,-19.768,456.847,-269.344,55.695,682.500,247.760,2347.780
341,38696.521000,-39.648,-95.115,-19.768,431.736,-306.843,57.168,598.500,320.760,2421.780
342,38696.541000,-54.333,-89.043,-31.629,416.232,-325.082,58.448,400.500,414.760,2523.780
343,38696.561000,-62.164,-69.818,-54.363,375.533,-358.563,54.285,180.500,478.760,2553.780
344,38696.581000,-103.281,-69.818,-66.224,364.999,-373.938,49.567,39.500,435.760,2607.780
345,38696.603000,-117.966,-60.711,-65.236,328.291,-404.547,39.423,-84.500,525.760,2599.780
346,38696.631000,-94.470,-28.332,-80.062,306.058,-420.781,32.944,-265.500,770.760,2528.780
347,38696.650000,-128.734,-30.356,-107.737,267.383,-442.661,18.887,-417.500,634.760,2554.780
348,38696.663000,-156.145,-29.344,-100.819,231.720,-463.595,-0.146,-486.500,572.760,2572.780
349,38696.686000,-165.935,0.000,-106.749,203.544,-468.165,-8.502,-611.500,696.760,2446.780
350,38696.700000,-157.124,25.296,-140.355,167.828,-481.359,-28.529,-687.500,823.760,2407.780
351,38696.726000,-191.388,23.273,-169.019,147.462,-486.002,-36.038,-784.500,866.760,2397.780
352,38696.736000,-188.451,29.344,-175.938,105.917,-494.300,-60.889,-810.500,934.760,2381.780
353,38696.762000,-224.673,46.545,-194.718,79.636,-492.116,-69.287,-794.500,1002.760,2161.780
354,38696.785000,-148.314,60.711,-192.741,49.822,-491.811,-98.294,-860.500,1611.760,2057.780
355,38696.806000,-107.197,81.960,-217.452,256.672,-488.827,-126.568,-1002.500,1226.760,1977.780
356,38696.827000,-167.893,71.842,-235.243,-11.341,-483.480,-128.724,-982.500,740.760,1919.780
357,38696.847000,-187.472,75.889,-230.301,-45.287,-478.312,-147.818,-920.500,1224.760,1816.780
358,38696.867000,-114.050,102.198,-234.255,-62.754,-471.369,-159.331,-953.500,1509.760,1765.780
359,38696.890000,-62.164,120.411,-273.792,-91.956,-459.478,-173.595,-1087.500,1282.760,1745.780
360,38696.907000,-134.608,102.198,-293.560,-106.652,-453.539,-175.311,-1016.500,492.760,1761.780
361,38696.931000,-194.325,97.138,-291.583,-143.778,-440.615,-184.514,-813.500,766.760,1681.780
362,38696.958000,-119.924,104.221,-275.768,-150.526,-430.867,-195.235,-741.500,1727.760,1598.780
363,38696.972000,-5.384,127.494,-268.849,-181.696,-410.249,-213.412,-812.500,1450.760,1542.780
364,38696.990000,-32.795,130.530,-269.838,-207.270,-395.506,-212.977,-829.500,412.760,1521.780
365,38697.18000,-86.639,135.589,-261.931,-223.948,-392.454,-211.701,-786.500,377.760,1519.780
366,38697.27000,-51.396,155.826,-253.035,-248.536,-372.880,-214.242,-781.500,612.760,1500.780
367,38697.56000,5.384,169.992,-246.116,-261.319,-365.993,-214.024,-810.500,549.760,1525.780
368,38697.75000,-10.279,173.028,-256.988,-285.145,-349.344,-202.793,-811.500,-23.240,1642.780
369,38697.92000,-65.101,180.111,-265.884,-295.009,-344.420,-200.655,-724.500,-182.240,1673.780
370,38697.115000,-29.859,190.229,-255.012,-313.776,-330.710,-197.386,-657.500,219.760,1691.780
371,38697.142000,7.342,193.265,-261.931,-332.735,-313.140,-185.257,-640.500,-61.240,1748.780
372,38697.153000,-35.732,182.134,-284.664,-349.520,-302.350,-182.020,-546.500,-438.240,1822.780
373,38697.173000,-33.774,204.395,-280.710,-363.594,-287.728,-168.005,-404.500,-364.240,1841.780
374,38697.207000,-33.774,222.609,-304.432,-373.486,-276.030,-167.844,-286.500,-291.240,1950.780
375,38697.216000,-29.859,220.585,-334.085,-391.416,-252.658,-161.648,-10.500,-236.240,2223.780
376,38697.241000,2.447,228.680,-335.073,-405.221,-242.861,-160.430,142.500,-405.240,2332.780
377,38697.268000,-50.417,236.775,-362.749,-418.242,-219.532,-155.305,449.500,-860.240,2485.780
378,38697.297000,-80.765,251.953,-397.344,-430.084,-199.105,-160.042,812.500,-599.240,2677.780
379,38697.306000,-56.291,258.024,-417.112,-435.027,-170.994,-171.801,1184.500,-395.240,2808.780
380,38697.320000,-41.606,257.012,-418.100,-437.943,-142.897,-187.533,1524.500,-727.240,2787.780
381,38697.351000,-60.207,261.059,-419.089,-439.886,-131.264,-194.403,1837.500,-978.240,2701.780
382,38697.357000,-86.639,258.024,-421.066,-431.856,-110.030,-217.213,2146.500,-793.240,2601.780
383,38697.385000,-83.702,248.917,-409.205,-435.731,-91.602,-228.979,2409.500,-496.240,2503.780
384,38697.402000,-57.270,228.680,-377.575,-424.601,-73.289,-259.716,2515.500,-465.240,2428.780
385,38697.422000,-51.396,212.490,-344.958,-411.676,-61.778,-277.678,2712.500,-552.240,2206.780
386,38697.445000,-76.849,183.146,-318.270,-386.758,-47.456,-311.607,2822.500,-393.240,1952.780
387,38697.461000,-96.428,165.945,-286.641,-367.749,-23.404,-348.396,2885.500,209.760,1714.780
388,38697.487000,-100.344,140.648,-240.185,-347.013,-15.837,-363.539,2904.500,905.760,1465.780
389,38697.505000,-97.407,105.233,-190.764,-310.521,10.951,-394.734,2823.500,1437.760,1151.780
390,38697.525000,-83.702,89.043,-161.112,-298.766,28.268,-404.807,2793.500,1689.760,812.780
391,38697.547000,-62.164,76.901,-133.436,-265.340,52.172,-427.084,2805.500,1397.760,416.780
392,38697.565000,-39.648,56.664,-107.737,-238.757,56.780,-439.373,2779.500,604.760,-121.220
393,38697.588000,-57.270,41.486,-88.958,-201.212,58.398,-461.697,2740.500,236.760,-401.220
394,38697.611000,-95.449,36.427,-80.062,-177.538,60.131,-473.932,2520.500,44.760,-863.220
395,38697.628000,-102.302,31.368,-76.108,-151.940,56.037,-481.271,2286.500,211.760,-1192.220
396,38697.656000,-72.933,23.273,-70.178,-122.474,58.680,-489.671,2069.500,251.760,-1435.220
397,38697.670000,-75.870,7.083,-55.351,-101.882,57.528,-492.003,1823.500,200.760,-1653.220
398,38697.707000,-67.059,-4.047,-46.456,-79.351,58.293,-494.371,1523.500,170.760,-1825.220
399,38697.722000,-42.585,-17.202,-41.514,-68.509,55.296,-497.513,1292.500,-75.240,-2014.220
400,38697.738000,-45.522,-25.296,-40.525,-54.757,51.302,-498.736,1103.500,-174.240,-2193.220
401,38697.755000,-46.501,-29.344,-32.618,-46.948,55.102,-499.863,988.500,-87.240,-2243.220
402,38697.778000,-43.564,-29.344,-25.699,-38.195,60.826,-500.025,736.500,230.760,-2288.220
403,38697.796000,-8.321,-37.439,-20.757,-37.278,65.653,-499.062,492.500,407.760,-2324.220
404,38697.818000,28.880,-29.344,-15.815,-30.509,74.298,-499.192,314.500,185.760,-2453.220
405,38697.836000,-3.426,0.000,-24.710,-29.582,74.286,-496.255,202.500,222.760,-2571.220
406,38697.862000,36.711,-8.095,-24.710,-34.598,84.002,-494.209,51.500,781.760,-2667.220
407,38697.882000,98.386,13.154,-46.456,-47.573,100.558,-488.092,-154.500,1114.760,-2809.220
408,38697.907000,100.344,43.510,-56.340,-48.720,115.076,-486.120,-177.500,1082.760,-2852.220
409,38697.930000,123.839,58.688,-39.537,-64.666,133.592,-478.968,-207.500,1271.760,-2811.220
410,38697.938000,184.535,75.889,-37.560,-72.873,161.711,-471.965,-259.500,1789.760,-2830.220
411,38697.958000,226.631,84.996,-36.571,-88.852,174.418,-459.883,-236.500,1955.760,-2846.220
412,38697.984000,256.979,101.186,-53.375,-107.811,191.989,-447.755,-242.500,1694.760,-2912.220
413,38698.11000,244.252,117.375,-71.166,-125.581,197.948,-441.541,-234.500,1164.760,-3046.220
414,38698.15000,233.484,132.553,-68.201,-145.482,207.786,-427.418,-254.500,1100.760,-3081.220
415,38698.42000,326.486,152.791,-90.934,-152.445,210.746,-422.376,-320.500,1298.760,-3235.220
416,38698.60000,338.233,172.016,-107.737,-180.933,206.158,-413.006,-228.500,486.760,-3451.220
417,38698.80000,228.589,212.490,-122.564,-202.379,195.711,-411.630,-161.500,242.760,-3316.220
418,38698.122000,264.811,241.834,-131.459,-220.076,188.123,-402.448,-158.500,693.760,-3157.220
419,38698.141000,380.329,229.692,-133.436,-238.831,185.379,-391.284,-80.500,1362.760,-3049.220
420,38698.155000,348.023,247.905,-148.263,-246.615,180.614,-391.141,64.500,632.760,-3169.220
421,38698.165000,265.790,261.059,-163.089,-258.257,164.272,-387.962,187.500,219.760,-2911.220
422,38698.187000,279.495,263.083,-168.031,-264.144,158.517,-383.914,283.500,605.760,-2504.220
423,38698.210000,336.275,262.071,-170.996,-267.925,145.977,-384.817,445.500,532.760,-2426.220
424,38698.235000,308.864,274.213,-175.938,-266.902,139.195,-383.842,617.500,23.760,-2522.220
425,38698.250000,261.874,272.190,-184.834,-270.525,120.857,-390.648,774.500,14.760,-2335.220
426,38698.272000,265.790,258.024,-193.730,-267.378,105.356,-394.623,914.500,98.760,-2025.220
427,38698.295000,264.811,259.036,-211.521,-263.229,96.622,-403.547,991.500,-98.240,-1942.220
428,38698.312000,216.841,277.249,-223.382,-257.994,76.271,-412.475,1166.500,-437.240,-1867.220
429,38698.335000,188.451,300.522,-226.347,-250.899,66.544,-421.450,1343.500,-281.240,-1793.220
430,38698.348000,210.967,311.652,-225.359,-233.085,55.748,-427.659,1523.500,-84.240,-1731.220
431,38698.368000,209.989,315.700,-232.278,-220.129,48.870,-437.725,1689.500,-380.240,-1742.220
432,38698.414000,175.725,312.664,-251.058,-195.352,35.115,-448.976,1839.500,-479.240,-1733.220
433,38698.426000,184.535,309.628,-273.792,-176.585,23.341,-453.232,1955.500,-297.240,-1688.220
434,38698.448000,209.010,309.628,-288.618,-144.923,9.525,-466.574,2141.500,-644.240,-1633.220
435,38698.455000,166.914,304.569,-281.699,-107.478,-4.349,-475.096,2257.500,-834.240,-1595.220
436,38698.481000,158.103,305.581,-292.571,-91.612,-14.159,-482.256,2412.500,-786.240,-1458.220
437,38698.496000,172.788,307.605,-287.629,-49.414,-22.277,-485.947,2587.500,-612.240,-1310.220
438,38698.518000,176.704,297.486,-279.722,-17.980,-26.427,-491.420,2732.500,-610.240,-1180.220
439,38698.541000,175.725,280.285,-272.803,28.002,-33.621,-488.288,2862.500,-659.240,-1036.220
440,38698.561000,170.830,269.154,-260.942,52.483,-37.714,-487.731,2967.500,-598.240,-906.220
441,38698.586000,163.977,256.000,-261.931,112.007,-41.169,-477.952,3030.500,-435.240,-764.220
442,38698.598000,189.430,235.763,-252.046,166.665,-43.611,-470.056,3071.500,-531.240,-629.220
443,38698.618000,187.472,217.549,-239.197,192.859,-43.864,-457.721,3105.500,-717.240,-534.220
444,38698.636000,147.335,199.336,-228.324,244.339,-46.293,-435.986,3119.500,-792.240,-474.220
445,38698.658000,148.314,182.134,-215.475,274.414,-48.519,-420.765,3124.500,-488.240,-290.220
446,38698.672000,165.935,152.791,-196.695,320.792,-47.044,-389.100,3091.500,-357.240,-118.220
447,38698.705000,160.061,132.553,-175.938,342.105,-55.963,-372.731,3027.500,-405.240,43.780
448,38698.733000,150.272,108.269,-161.112,383.532,-59.285,-335.066,2947.500,-407.240,281.780
449,38698.747000,146.356,74.877,-151.228,406.706,-65.324,-314.796,2842.500,-401.240,487.780
450,38698.765000,145.377,49.581,-128.494,430.548,-73.324,-275.830,2728.500,-428.240,670.780
451,38698.781000,125.797,28.332,-115.645,457.334,-84.255,-235.929,2563.500,-467.240,841.780
452,38698.802000,123.839,1.012,-98.842,467.797,-95.017,-213.459,2483.500,-467.240,933.780
453,38698.825000,119.924,-17.202,-85.004,485.011,-123.269,-176.321,2313.500,-632.240,1081.780
454,38698.852000,98.386,-24.285,-69.189,486.641,-131.048,-153.698,2165.500,-726.240,1254.780
455,38698.867000,81.744,-42.498,-62.270,489.150,-154.329,-117.290,1984.500,-716.240,1429.780
456,38698.885000,68.038,-59.700,-52.386,493.866,-174.709,-96.677,1818.500,-796.240,1577.780
457,38698.910000,48.459,-76.901,-44.479,485.734,-203.692,-64.012,1637.500,-846.240,1668.780
458,38698.926000,23.006,-88.032,-35.583,476.657,-230.729,-34.286,1426.500,-790.240,1742.780
459,38698.947000,16.153,-93.091,-34.595,466.791,-250.002,-19.322,1225.500,-765.240,1813.780
460,38698.970000,-5.384,-90.055,-39.537,447.081,-279.837,4.689,1161.500,-756.240,1910.780
461,38698.982000,-39.648,-98.150,-40.525,439.188,-295.256,16.660,1045.500,-587.240,1949.780
462,38699.10000,-53.354,-100.174,-41.514,415.755,-325.045,29.907,925.500,-304.240,2014.780
463,38699.32000,-47.480,-96.126,-42.502,404.026,-339.456,37.023,772.500,-156.240,2065.780
464,38699.50000,-71.954,-90.055,-52.386,377.674,-365.345,47.364,656.500,-110.240,2140.780
465,38699.72000,-91.533,-106.245,-44.479,357.215,-378.704,49.710,511.500,-29.240,2208.780
466,38699.100000,-105.239,-98.150,-46.456,327.053,-404.552,54.212,342.500,79.760,2167.780
467,38699.132000,-103.281,-82.972,-62.270,293.989,-424.564,53.836,203.500,101.760,2164.780
468,38699.146000,-115.029,-73.866,-76.108,285.280,-437.061,54.989,137.500,-51.240,2247.780
469,38699.160000,-141.461,-79.937,-68.201,252.224,-456.105,53.627,75.500,-103.240,2200.780
470,38699.162000,-162.019,-60.711,-85.992,233.801,-468.509,51.014,-22.500,251.760,2135.780
471,38699.191000,-148.314,-43.510,-106.749,188.108,-479.689,41.007,-106.500,413.760,2176.780
472,38699.212000,-161.040,-44.522,-110.703,169.622,-483.386,37.400,-137.500,263.760,2211.780
473,38699.235000,-175.725,-39.462,-110.703,138.581,-491.797,27.131,-223.500,340.760,2069.780
474,38699.250000,-175.725,-13.154,-126.517,122.234,-500.341,15.616,-307.500,658.760,2022.780
475,38699.275000,-173.767,-16.190,-129.483,86.187,-505.810,10.354,-349.500,552.760,2112.780
476,38699.297000,-196.283,6.071,-148.263,55.049,-507.452,2.047,-439.500,327.760,1975.780
477,38699.323000,-185.514,28.332,-159.135,31.703,-505.294,-6.403,-463.500,428.760,1895.780
478,38699.343000,-183.556,28.332,-173.961,-2.277,-504.000,-21.555,-521.500,786.760,1836.780
479,38699.361000,-169.851,35.415,-167.042,-11.905,-507.774,-28.271,-555.500,673.760,1885.780
480,38699.381000,-199.220,54.640,-192.741,-42.179,-502.655,-33.648,-583.500,328.760,1832.780
481,38699.403000,-191.388,55.652,-192.741,-63.627,-503.423,-37.206,-551.500,594.760,1732.780
482,38699.421000,-135.587,65.771,-190.764,-95.617,-496.337,-57.321,-609.500,968.760,1693.780
483,38699.443000,-136.566,83.984,-204.602,-113.180,-486.495,-64.898,-656.500,721.760,1649.780
484,38699.463000,-179.641,90.055,-226.347,-130.725,-482.459,-70.499,-604.500,705.760,1631.780
485,38699.480000,-146.356,89.043,-225.359,-160.828,-465.716,-91.644,-570.500,1330.760,1605.780
486,38699.501000,-78.807,106.245,-233.266,-168.623,-461.772,-95.448,-612.500,1436.760,1608.780
487,38699.523000,-79.786,111.304,-234.255,-194.951,-447.008,-107.798,-616.500,1011.760,1655.780
488,38699.541000,-111.113,122.435,-232.278,-210.582,-442.024,-111.465,-579.500,574.760,1705.780
489,38699.566000,-97.407,134.577,-234.255,-243.933,-423.336,-115.819,-571.500,670.760,1726.780
490,38699.585000,-65.101,138.625,-239.197,-250.821,-407.790,-121.622,-578.500,666.760,1789.780
491,38699.607000,-66.080,141.660,-242.162,-276.385,-399.822,-118.226,-541.500,260.760,1815.780
492,38699.625000,-98.386,157.850,-247.104,-305.943,-381.176,-115.756,-489.500,28.760,1798.780
493,38699.638000,-85.660,167.968,-239.197,-313.842,-375.302,-114.638,-468.500,277.760,1788.780
494,38699.657000,-52.375,180.111,-250.069,-338.552,-353.799,-111.273,-488.500,343.760,1778.780
495,38699.680000,-49.438,183.146,-259.954,-344.582,-342.140,-108.226,-471.500,60.760,1824.780
496,38699.702000,-88.597,192.253,-272.803,-373.188,-322.537,-104.790,-372.500,-259.240,1858.780
497,38699.730000,-113.071,196.300,-283.676,-374.342,-312.859,-99.859,-249.500,28.760,1874.780
498,38699.752000,-112.092,199.336,-304.432,-396.083,-285.574,-101.475,-180.500,529.760,1958.780
499,38699.767000,-50.417,213.502,-301.467,-410.974,-260.287,-102.225,-7.500,625.760,2044.780
500,38699.790000,-47.480,222.609,-316.293,-422.771,-250.504,-103.997,181.500,-85.240,2032.780
501,38699.812000,-94.470,242.846,-353.853,-436.709,-226.195,-102.794,442.500,-494.240,2166.780
502,38699.830000,-111.113,264.095,-362.749,-440.661,-214.547,-106.676,805.500,-325.240,2336.780
503,38699.852000,-111.113,263.083,-360.772,-451.536,-183.483,-116.364,980.500,-211.240,2384.780
504,38699.875000,-90.554,254.988,-366.703,-446.569,-169.004,-128.283,1250.500,-113.240,2434.780
505,38699.895000,-75.870,253.976,-358.795,-457.348,-140.838,-141.907,1489.500,-342.240,2404.780
506,38699.922000,-94.470,254.988,-354.842,-464.110,-112.702,-161.510,1717.500,-510.240,2355.780
507,38699.937000,-98.386,251.953,-345.946,-453.299,-93.439,-174.521,1903.500,-200.240,2350.780
508,38699.957000,-62.164,236.775,-341.004,-452.050,-70.203,-202.135,2052.500,58.760,2331.780
509,38699.966000,-37.690,221.597,-328.154,-450.989,-54.720,-214.970,2248.500,-67.240,2215.780
510,38699.985000,-53.354,190.229,-314.317,-432.066,-32.609,-245.849,2351.500,-171.240,2014.780
511,38700.17000,-59.228,178.087,-306.409,-433.818,-20.965,-263.552,2397.500,-111.240,1898.780
512,38700.52000,-51.396,164.933,-291.583,-412.936,-6.614,-290.518,2450.500,27.760,1672.780
513,38700.75000,-47.480,143.684,-277.745,-401.959,2.011,-307.458,2484.500,37.760,1388.780
514,38700.93000,-49.438,134.577,-258.965,-374.166,13.399,-336.512,2491.500,39.760,1095.780
515,38700.100000,-68.038,134.577,-222.394,-353.196,21.947,-365.443,2524.500,151.760,785.780
516,38700.122000,-62.164,111.304,-206.579,-331.436,22.733,-379.611,2467.500,273.760,474.780
517,38700.140000,-52.375,95.115,-189.776,-299.710,28.279,-406.759,2472.500,68.760,55.780
518,38700.171000,-54.333,92.079,-170.008,-287.734,25.281,-418.781,2485.500,-181.240,-358.220
519,38700.186000,-83.702,86.008,-151.228,-256.923,16.321,-441.958,2459.500,-173.240,-683.220
520,38700.208000,-85.660,81.960,-130.471,-233.301,18.051,-451.238,2437.500,141.760,-787.220
521,38700.226000,-67.059,61.723,-110.703,-200.733,13.902,-465.592,2387.500,307.760,-976.220
522,38700.251000,-59.228,36.427,-100.819,-183.017,17.619,-473.785,2321.500,250.760,-1173.220
523,38700.263000,-73.912,19.225,-94.888,-144.631,17.285,-487.262,2230.500,356.760,-1313.220
524,38700.281000,-60.207,-7.083,-77.097,-109.321,22.777,-495.768,2032.500,494.760,-1447.220
525,38700.316000,-39.648,-27.320,-67.212,-90.730,24.543,-497.084,1836.500,320.760,-1595.220
526,38700.324000,-26.922,-41.486,-68.201,-73.031,26.324,-503.306,1665.500,62.760,-1723.220
527,38700.346000,-33.774,-50.593,-63.259,-50.534,25.151,-502.718,1477.500,0.760,-1844.220
528,38700.369000,-42.585,-52.617,-56.340,-28.991,28.828,-506.057,1383.500,99.760,-1878.220
529,38700.391000,-19.090,-65.771,-51.398,-27.139,34.611,-503.143,1171.500,341.760,-1910.220
530,38700.423000,8.321,-74.877,-47.444,-1.760,39.216,-502.613,1022.500,252.760,-2038.220
531,38700.442000,3.426,-62.735,-42.502,3.979,47.866,-499.771,867.500,170.760,-2171.220
532,38700.456000,-11.258,-63.747,-37.560,12.740,54.559,-500.919,704.500,428.760,-2241.220
533,38700.465000,18.111,-79.937,-28.664,18.381,73.851,-498.088,469.500,575.760,-2396.220
534,38700.492000,75.870,-79.937,-40.525,19.421,72.878,-501.058,327.500,107.760,-2636.220
535,38700.517000,62.164,-51.605,-49.421,18.433,73.854,-501.042,240.500,-3.240,-2713.220
536,38700.532000,5.384,-27.320,-38.548,11.381,90.359,-497.983,-17.500,462.760,-2657.220
537,38700.547000,98.386,-26.308,-18.780,0.353,109.800,-492.889,-178.500,1098.760,-2720.220
538,38700.567000,207.052,-32.379,-66.224,-0.660,109.807,-490.902,-185.500,-39.240,-2933.220
539,38700.592000,128.734,-6.071,-64.247,-14.394,111.865,-489.677,-304.500,-197.240,-2883.220
540,38700.613000,70.975,44.522,-72.154,-31.398,135.226,-480.543,-485.500,1262.760,-2624.220
541,38700.638000,236.421,36.427,-67.212,-44.207,145.015,-480.328,-506.500,1044.760,-2676.220
542,38700.657000,318.654,18.213,-73.143,-66.763,139.410,-474.016,-495.500,-278.240,-2837.220
543,38700.705000,212.925,53.628,-94.888,-74.626,141.415,-472.894,-593.500,255.760,-2765.220
544,38700.705000,188.451,90.055,-108.726,-99.368,153.236,-462.626,-625.500,1126.760,-2675.220
545,38700.722000,327.465,82.972,-126.517,-109.170,153.324,-461.468,-622.500,895.760,-2706.220
546,38700.742000,260.895,110.292,-142.332,-129.769,149.637,-456.177,-577.500,65.760,-2726.220
547,38700.759000,251.105,146.719,-140.355,-149.443,149.809,-449.922,-564.500,212.760,-2663.220
548,38700.774000,298.096,155.826,-159.135,-166.164,148.019,-443.718,-539.500,701.760,-2527.220
549,38700.795000,322.570,144.696,-184.834,-185.819,144.321,-436.475,-497.500,548.760,-2475.220
550,38700.817000,292.222,159.874,-186.811,-186.736,139.494,-437.437,-378.500,69.760,-2426.220
551,38700.837000,256.979,191.241,-176.927,-207.247,130.004,-434.110,-268.500,-27.240,-2320.220
552,38700.860000,259.916,199.336,-171.985,-203.349,124.160,-430.234,-179.500,278.760,-2236.220
553,38700.877000,293.201,190.229,-181.869,-219.911,112.700,-427.959,-123.500,332.760,-2175.220
554,38700.902000,282.432,188.206,-173.961,-229.660,108.919,-427.782,-73.500,-84.240,-2133.220
555,38700.935000,233.484,191.241,-180.880,-234.374,87.680,-426.689,18.500,-657.240,-2073.220
556,38700.948000,217.820,180.111,-200.649,-237.079,66.426,-428.585,87.500,-613.240,-1966.220
557,38700.967000,225.652,181.123,-224.371,-235.050,52.861,-425.652,139.500,-492.240,-1847.220
558,38700.981000,205.094,197.312,-233.266,-232.811,33.501,-431.576,254.500,-653.240,-1712.220
559,38701.1000,171.809,213.502,-236.232,-232.783,26.728,-429.599,399.500,-654.240,-1583.220
560,38701.37000,161.040,216.538,-244.139,-231.506,7.377,-436.490,530.500,-478.240,-1499.220
561,38701.50000,168.872,221.597,-256.988,-220.610,-1.424,-439.626,646.500,-479.240,-1502.220
562,38701.63000,139.503,232.727,-274.780,-209.635,-16.997,-443.740,718.500,-554.240,-1510.220
563,38701.86000,106.218,235.763,-266.873,-195.718,-27.756,-450.865,911.500,-490.240,-1475.220
564,38701.107000,117.966,238.798,-257.977,-184.848,-35.591,-453.017,1054.500,-188.240,-1410.220
565,38701.126000,136.566,243.858,-262.919,-162.133,-45.463,-460.298,1164.500,-179.240,-1468.220
566,38701.152000,128.734,237.787,-266.873,-147.359,-50.430,-463.507,1279.500,-346.240,-1533.220
567,38701.175000,130.692,230.704,-274.780,-135.424,-62.141,-468.627,1390.500,-431.240,-1481.220
568,38701.197000,154.187,234.751,-286.641,-115.784,-66.187,-470.939,1479.500,-729.240,-1471.220
569,38701.212000,137.545,242.846,-293.560,-84.181,-88.717,-476.394,1585.500,-1114.240,-1551.220
570,38701.235000,121.881,225.644,-303.444,-74.332,-101.385,-473.600,1676.500,-1164.240,-1485.220
571,38701.255000,140.482,212.490,-309.375,-33.014,-124.008,-475.289,1706.500,-1276.240,-1434.220
572,38701.272000,139.503,216.538,-310.363,4.255,-156.282,-464.097,1788.500,-1763.240,-1447.220
573,38701.303000,93.491,211.478,-313.328,22.892,-167.095,-461.461,1902.500,-2121.240,-1502.220
574,38701.320000,67.059,204.395,-313.328,62.990,-189.723,-449.346,1995.500,-1925.240,-1442.220
575,38701.341000,62.164,193.265,-314.317,92.322,-202.574,-441.974,2068.500,-1616.240,-1375.220
576,38701.360000,62.164,190.229,-312.340,136.168,-218.472,-424.026,2191.500,-1520.240,-1358.220
577,38701.377000,38.669,183.146,-315.305,152.682,-222.501,-415.454,2296.500,-1468.240,-1334.220
578,38701.405000,15.174,166.957,-307.398,199.324,-236.497,-390.667,2386.500,-1103.240,-1320.220
579,38701.420000,3.426,157.850,-295.537,246.785,-231.153,-366.902,2434.500,-842.240,-1304.220
580,38701.438000,23.006,144.696,-278.734,271.003,-223.646,-357.494,2512.500,-279.240,-1194.220
581,38701.457000,55.312,130.530,-251.058,313.501,-216.326,-330.690,2598.500,-53.240,-1046.220
582,38701.485000,60.207,112.316,-223.382,335.728,-212.674,-317.305,2670.500,-35.240,-880.220
583,38701.502000,68.038,81.960,-196.695,374.165,-204.359,-282.555,2677.500,59.760,-662.220
584,38701.520000,97.407,60.711,-165.066,391.482,-198.728,-269.085,2634.500,-33.240,-379.220
585,38701.542000,95.449,39.462,-142.332,418.162,-198.050,-229.196,2561.500,-259.240,-85.220
586,38701.575000,86.639,19.225,-122.564,434.450,-198.220,-209.794,2487.500,-341.240,224.780
587,38701.585000,85.660,-7.083,-103.784,445.528,-205.140,-168.635,2365.500,-377.240,480.780
588,38701.600000,80.765,-31.368,-86.981,461.629,-218.872,-131.495,2299.500,-512.240,592.780
589,38701.613000,75.870,-50.593,-65.236,455.380,-230.455,-103.806,2128.500,-723.240,821.780
590,38701.641000,56.291,-66.783,-57.328,455.922,-248.878,-69.338,1954.500,-948.240,1040.780
591,38701.659000,35.732,-77.913,-51.398,451.707,-255.635,-48.582,1821.500,-956.240,1234.780
592,38701.680000,14.195,-88.032,-33.606,443.531,-281.717,-14.936,1654.500,-831.240,1413.780
593,38701.706000,6.363,-99.162,-25.699,438.486,-293.296,-0.066,1436.500,-790.240,1538.780
594,38701.728000,-14.195,-101.186,-28.664,421.589,-315.421,26.839,1278.500,-752.240,1643.780
595,38701.746000,-45.522,-101.186,-25.699,403.853,-339.466,46.870,1149.500,-442.240,1764.780
596,38701.766000,-58.249,-103.209,-21.745,383.204,-350.900,59.062,1069.500,-263.240,1805.780
597,38701.808000,-62.164,-103.209,-21.745,363.719,-380.722,70.271,892.500,-70.240,1922.780
598,38701.821000,-70.975,-103.209,-19.768,348.073,-385.418,72.522,718.500,-99.240,2035.780
599,38701.828000,-93.491,-99.162,-26.687,317.946,-413.200,76.041,516.500,-7.240,2039.780
600,38701.856000,-104.260,-82.972,-33.606,295.460,-420.738,79.401,355.500,97.760,2099.780
601,38701.876000,-116.008,-80.949,-37.560,268.284,-440.802,77.937,193.500,55.760,2164.780
602,38701.891000,-123.839,-71.842,-40.525,248.767,-444.493,77.302,11.500,109.760,2114.780
603,38701.916000,-132.650,-46.545,-67.212,208.991,-464.435,69.169,-81.500,286.760,2110.780
604,38701.931000,-143.419,-27.320,-76.108,182.818,-477.731,62.756,-155.500,358.760,2219.780
605,38701.953000,-164.956,-34.403,-84.015,161.501,-487.203,56.253,-205.500,390.760,2231.780
606,38701.962000,-165.935,-21.249,-95.876,126.624,-496.542,42.114,-323.500,557.760,2115.780
607,38701.990000,-173.767,8.095,-133.436,102.283,-498.249,36.640,-358.500,748.760,2077.780
608,38702.12000,-186.493,14.166,-143.320,72.358,-506.661,18.475,-386.500,789.760,2146.780
609,38702.31000,-195.304,17.202,-152.216,54.002,-511.318,7.976,-439.500,781.760,2013.780
610,38702.52000,-194.325,42.498,-175.938,20.081,-503.245,-14.075,-454.500,1092.760,1836.780
611,38702.75000,-186.493,58.688,-200.649,-13.802,-502.913,-34.150,-502.500,1286.760,1849.780
612,38702.97000,-149.293,64.759,-208.556,-26.305,-507.625,-43.768,-542.500,875.760,1867.780
613,38702.115000,-143.419,75.889,-214.486,-57.568,-495.722,-52.089,-536.500,639.760,1833.780
614,38702.137000,-148.314,91.067,-240.185,-80.914,-493.565,-60.538,-486.500,687.760,1801.780
615,38702.155000,-115.029,115.352,-246.116,-110.158,-486.517,-69.874,-513.500,658.760,1837.780
616,38702.177000,-137.545,126.482,-252.046,-121.883,-484.473,-71.637,-478.500,62.760,1864.780
617,38702.195000,-149.293,131.542,-235.243,-150.452,-474.547,-65.237,-375.500,-180.240,1904.780
618,38702.213000,-138.524,142.672,-220.417,-173.010,-470.474,-63.858,-332.500,-130.240,1880.780
619,38702.236000,-126.776,144.696,-226.347,-200.506,-457.647,-64.371,-338.500,5.760,1907.780
620,38702.253000,-110.134,147.731,-211.521,-228.089,-444.826,-59.960,-282.500,-20.240,1974.780
621,38702.267000,-108.176,161.897,-198.672,-241.929,-435.030,-56.773,-230.500,-83.240,1955.780
622,38702.286000,-151.250,159.874,-223.382,-272.499,-420.249,-50.343,-207.500,-182.240,1937.780
623,38702.319000,-134.608,153.802,-226.347,-280.295,-410.497,-57.108,-147.500,252.760,2056.780
624,38702.336000,-99.365,163.921,-222.394,-304.892,-389.956,-59.650,-121.500,532.760,2196.780
625,38702.358000,-99.365,181.123,-214.486,-322.551,-381.088,-61.317,-63.500,376.760,2186.780
626,38702.382000,-118.945,184.158,-240.185,-352.033,-357.598,-65.745,-71.500,367.760,2158.780
627,38702.403000,-108.176,196.300,-256.000,-358.083,-330.454,-69.608,-73.500,628.760,2257.780
628,38702.421000,-93.491,217.549,-256.988,-387.503,-313.736,-74.029,30.500,676.760,2317.780
629,38702.443000,-113.071,235.763,-290.595,-406.249,-283.571,-80.624,156.500,657.760,2340.780
630,38702.461000,-106.218,250.941,-332.108,-414.132,-269.952,-84.438,222.500,691.760,2390.780
631,38702.484000,-106.218,264.095,-345.946,-433.823,-237.840,-93.972,439.500,565.760,2462.780
632,38702.501000,-136.566,273.202,-367.691,-440.859,-217.462,-93.871,690.500,372.760,2456.780
633,38702.523000,-138.524,266.119,-387.459,-455.475,-186.352,-113.338,943.500,565.760,2425.780
634,38702.546000,-95.449,269.154,-387.459,-453.504,-174.754,-120.278,1164.500,761.760,2393.780
635,38702.571000,-66.080,277.249,-383.506,-460.302,-136.941,-142.844,1403.500,522.760,2302.780
636,38702.603000,-74.891,264.095,-381.529,-457.244,-110.827,-163.602,1685.500,258.760,2167.780
637,38702.617000,-74.891,248.917,-379.552,-458.078,-98.227,-178.369,1925.500,384.760,2043.780
638,38702.631000,-37.690,236.775,-362.749,-452.889,-74.058,-208.023,2023.500,472.760,1913.780
639,38702.653000,-13.216,230.704,-344.958,-443.957,-59.612,-222.965,2216.500,373.760,1837.780
640,38702.667000,-26.922,216.538,-324.201,-433.761,-40.320,-256.639,2422.500,272.760,1665.780
641,38702.685000,-23.985,196.300,-301.467,-421.832,-30.737,-272.612,2561.500,451.760,1520.780
642,38702.707000,0.489,186.182,-278.734,-397.964,-10.603,-305.545,2650.500,594.760,1394.780
643,38702.731000,0.489,175.051,-260.942,-388.721,7.732,-340.186,2786.500,597.760,1244.780
644,38702.748000,-29.859,155.826,-238.208,-360.174,19.099,-356.456,2900.500,769.760,1109.780
645,38702.770000,-40.627,138.625,-197.683,-324.669,41.056,-384.674,2900.500,1116.760,956.780
646,38702.792000,-23.985,116.364,-172.973,-302.002,51.507,-399.854,2866.500,1038.760,714.780
647,38702.812000,-13.216,102.198,-156.170,-269.386,64.783,-426.043,2888.500,841.760,543.780
648,38702.835000,-40.627,94.103,-142.332,-239.869,69.364,-438.384,2869.500,471.760,204.780
649,38702.852000,-69.017,77.913,-103.784,-206.359,74.883,-455.719,2805.500,497.760,-102.220
650,38702.875000,-55.312,58.688,-71.166,-186.660,77.616,-464.931,2641.500,579.760,-378.220
651,38702.892000,-62.164,37.439,-54.363,-153.281,86.031,-476.360,2490.500,423.760,-646.220
652,38702.913000,-62.164,12.142,-44.479,-115.987,90.539,-485.885,2280.500,266.760,-887.220
653,38702.961000,-73.912,-10.119,-30.641,-94.434,89.376,-487.250,2044.500,134.760,-1143.220
654,38702.970000,-69.017,-28.332,-24.710,-66.950,87.196,-491.671,1763.500,72.760,-1390.220
655,38702.989000,-63.143,-34.403,-33.606,-60.074,88.103,-493.763,1653.500,19.760,-1622.220
656,38703.4000,-66.080,-33.391,-30.641,-41.536,93.739,-494.097,1492.500,26.760,-1734.220
657,38703.21000,-65.101,-35.415,-36.571,-32.740,98.498,-496.228,1304.500,331.760,-1922.220
658,38703.44000,-36.711,-48.569,-38.548,-20.231,111.921,-491.542,1131.500,680.760,-2061.220
659,38703.61000,12.237,-51.605,-39.537,-12.544,123.457,-489.723,1013.500,605.760,-2275.220
660,38703.83000,28.880,-10.119,-40.525,-2.803,126.269,-488.914,964.500,288.760,-2474.220
661,38703.104000,-9.300,-15.178,-36.571,1.790,145.566,-482.127,739.500,716.760,-2543.220
662,38703.133000,64.122,-39.462,-55.351,-6.249,159.176,-477.078,546.500,1174.760,-2625.220
663,38703.151000,127.755,-5.059,-45.467,-8.469,174.665,-470.166,575.500,709.760,-2738.220
664,38703.167000,103.281,34.403,-22.734,-9.527,179.509,-468.184,564.500,691.760,-2768.220
665,38703.188000,137.545,36.427,-19.768,-19.777,207.641,-456.222,367.500,1192.760,-2831.220
666,38703.206000,250.126,17.202,-48.432,-32.576,210.656,-453.046,317.500,1020.760,-3050.220
667,38703.242000,256.979,34.403,-37.560,-50.391,221.452,-446.837,334.500,424.760,-3147.220
668,38703.256000,229.568,78.925,-34.595,-64.317,231.242,-438.726,248.500,724.760,-3126.220
669,38703.265000,312.780,75.889,-56.340,-74.233,236.164,-433.634,228.500,824.760,-3223.220
670,38703.284000,349.002,77.913,-74.131,-98.817,240.251,-428.282,243.500,357.760,-3136.220
671,38703.304000,280.474,118.387,-76.108,-102.792,239.315,-424.272,197.500,706.760,-2795.220
672,38703.323000,286.348,155.826,-58.317,-120.658,248.172,-414.122,185.500,1041.760,-2626.220
673,38703.346000,350.960,156.838,-65.236,-136.436,252.179,-408.925,245.500,1017.760,-2597.220
674,38703.363000,347.044,128.506,-85.004,-152.134,249.415,-404.707,270.500,498.760,-2449.220
675,38703.386000,307.885,146.719,-79.073,-157.987,245.598,-403.614,290.500,421.760,-2312.220
676,38703.408000,305.927,167.968,-92.911,-166.958,248.573,-395.583,371.500,718.760,-2302.220
677,38703.436000,321.591,158.862,-103.784,-181.713,247.734,-390.399,476.500,639.760,-2195.220
678,38703.453000,324.528,163.921,-109.714,-187.487,241.017,-392.258,570.500,244.760,-2032.220
679,38703.471000,286.348,179.099,-116.633,-191.434,235.244,-387.259,661.500,396.760,-1965.220
680,38703.498000,286.348,189.217,-130.471,-200.215,236.293,-389.074,804.500,657.760,-1937.220
681,38703.516000,300.054,196.300,-127.506,-203.142,235.352,-389.021,882.500,632.760,-1889.220
682,38703.536000,309.843,190.229,-137.390,-198.196,229.503,-389.102,964.500,291.760,-1731.220
683,38703.559000,301.033,183.146,-159.135,-195.094,222.711,-395.055,1062.500,-32.240,-1588.220
684,38703.590000,291.243,192.253,-174.950,-186.034,210.062,-403.076,1202.500,-209.240,-1518.220
685,38703.594000,261.874,223.621,-185.822,-190.795,203.339,-406.922,1348.500,-223.240,-1431.220
686,38703.606000,283.411,226.656,-191.753,-178.860,195.500,-414.015,1467.500,-70.240,-1347.220
687,38703.629000,305.927,231.715,-189.776,-170.990,196.399,-417.109,1614.500,-180.240,-1302.220
688,38703.655000,287.327,228.680,-188.788,-155.998,186.604,-430.160,1754.500,-492.240,-1221.220
689,38703.672000,284.390,227.668,-194.718,-142.134,181.649,-437.291,1812.500,-501.240,-1087.220
690,38703.715000,301.033,226.656,-195.707,-117.469,168.855,-442.635,1910.500,-417.240,-1015.220
691,38703.733000,328.444,216.538,-197.683,-111.250,161.078,-458.487,1982.500,-583.240,-838.220
692,38703.742000,303.969,215.526,-199.660,-74.844,148.178,-464.038,2082.500,-1213.240,-732.220
693,38703.760000,260.895,215.526,-220.417,-49.043,127.641,-474.315,2147.500,-1530.240,-665.220
694,38703.780000,267.748,210.466,-221.405,-21.558,121.589,-476.763,2227.500,-1308.240,-536.220
695,38703.801000,277.537,209.455,-223.382,14.055,96.125,-486.224,2296.500,-1416.240,-394.220
696,38703.823000,254.042,195.289,-227.336,34.702,83.361,-485.590,2366.500,-1715.240,-277.220
697,38703.844000,228.589,194.277,-243.151,73.103,58.830,-487.225,2426.500,-1751.240,-202.220
698,38703.861000,211.946,191.241,-249.081,92.675,48.973,-482.637,2473.500,-1667.240,-163.220
699,38703.882000,213.904,182.134,-246.116,142.679,28.199,-478.575,2554.500,-1497.240,-51.220
700,38703.906000,209.989,171.004,-242.162,185.643,5.541,-462.573,2623.500,-1470.240,63.780
701,38703.920000,182.577,158.862,-238.208,211.061,-9.211,-454.146,2665.500,-1501.240,161.780
702,38703.942000,172.788,143.684,-223.382,254.916,-28.011,-435.211,2712.500,-1285.240,286.780
703,38703.965000,162.019,129.518,-214.486,272.324,-35.926,-419.758,2718.500,-1073.240,404.780
704,38703.982000,175.725,108.269,-195.707,314.126,-53.746,-395.865,2696.500,-957.240,551.780
705,38704.5000,162.998,92.079,-178.903,336.330,-56.872,-377.550,2661.500,-1041.240,664.780
706,38704.27000,147.335,70.830,-169.019,378.965,-77.613,-343.824,2645.500,-1002.240,804.780
707,38704.50000,151.250,52.617,-152.216,383.396,-100.913,-305.482,2580.500,-907.240,877.780
708,38704.67000,146.356,26.308,-133.436,413.595,-116.683,-290.246,2491.500,-975.240,1045.780
709,38704.84000,132.650,7.083,-116.633,431.604,-142.050,-244.266,2375.500,-1131.240,1206.780
710,38704.101000,111.113,-11.130,-110.703,440.233,-156.659,-226.681,2255.500,-1177.240,1341.780
711,38704.128000,105.239,-22.261,-91.923,448.545,-185.804,-183.478,2154.500,-1116.240,1470.780
712,38704.151000,108.176,-39.462,-67.212,456.196,-204.275,-163.903,1987.500,-1260.240,1629.780
713,38704.171000,93.491,-51.605,-49.421,455.780,-238.175,-122.509,1792.500,-1599.240,1772.780
714,38704.198000,52.375,-57.676,-41.514,444.814,-255.511,-101.621,1666.500,-1652.240,1877.780
715,38704.231000,25.943,-65.771,-20.757,429.791,-293.146,-61.933,1599.500,-1512.240,1929.780
716,38704.245000,33.774,-70.830,-2.965,407.901,-324.911,-24.099,1382.500,-1353.240,2026.780
717,38704.245000,11.258,-73.866,8.896,403.886,-338.432,-11.214,1150.500,-1528.240,2083.780
718,38704.271000,-47.480,-81.960,3.954,370.269,-364.283,22.882,976.500,-1402.240,2098.780
719,38704.294000,-84.681,-89.043,1.977,361.511,-384.526,30.936,850.500,-882.240,2136.780
720,38704.316000,-82.723,-91.067,0.000,329.122,-403.596,47.283,662.500,-444.240,2152.780
721,38704.338000,-82.723,-76.901,-13.838,313.487,-415.067,52.495,484.500,-291.240,2151.780
722,38704.368000,-104.260,-75.889,-17.792,274.430,-435.033,59.116,349.500,-176.240,2227.780
723,38704.382000,-115.029,-82.972,-30.641,264.814,-453.324,59.308,246.500,-118.240,2237.780
724,38704.396000,-116.987,-57.676,-52.386,227.798,-461.688,55.050,80.500,107.760,2194.780
725,38704.421000,-122.860,-38.451,-73.143,190.845,-478.759,51.786,-16.500,234.760,2274.780
726,38704.447000,-134.608,-43.510,-74.131,164.513,-484.322,50.290,-131.500,63.760,2432.780
727,38704.465000,-155.166,-21.249,-98.842,132.460,-498.533,44.967,-214.500,-5.240,2349.780
728,38704.483000,-167.893,3.036,-123.552,106.137,-501.191,41.498,-240.500,306.760,2256.780
729,38704.505000,-184.535,8.095,-143.320,70.160,-508.592,33.283,-249.500,391.760,2344.780
730,38704.525000,-189.430,8.095,-133.436,51.716,-511.319,26.721,-281.500,251.760,2328.780
731,38704.547000,-213.904,27.320,-158.147,12.698,-512.892,21.507,-280.500,482.760,2167.780
732,38704.567000,-202.157,42.498,-161.112,-22.225,-511.587,4.403,-292.500,715.760,2122.780
733,38704.583000,-181.598,50.593,-162.100,-46.664,-502.652,-1.082,-368.500,770.760,2076.780
734,38704.592000,-187.472,53.628,-167.042,-79.751,-501.371,-11.327,-416.500,495.760,2056.780
735,38704.620000,-223.694,63.747,-187.799,-89.485,-497.408,-16.082,-397.500,556.760,1920.780
736,38704.647000,-223.694,66.783,-190.764,-122.496,-489.347,-34.212,-369.500,1013.760,1802.780
737,38704.680000,-168.872,74.877,-185.822,-136.117,-488.251,-38.894,-452.500,827.760,1723.780
738,38704.698000,-162.998,88.032,-196.695,-161.561,-476.405,-44.365,-450.500,300.760,1710.780
739,38704.707000,-205.094,91.067,-198.672,-174.266,-468.545,-49.071,-399.500,443.760,1628.780
740,38704.730000,-212.925,92.079,-201.637,-202.533,-457.634,-60.397,-382.500,718.760,1584.780
741,38704.747000,-170.830,101.186,-203.614,-224.011,-445.820,-68.891,-415.500,1000.760,1508.780
742,38704.772000,-128.734,109.281,-207.568,-234.767,-438.947,-72.647,-497.500,733.760,1467.780
743,38704.780000,-134.608,118.387,-213.498,-252.435,-427.175,-75.301,-508.500,373.760,1403.780
744,38704.812000,-174.746,124.459,-226.347,-266.161,-420.276,-77.035,-452.500,658.760,1369.780
745,38704.830000,-147.335,127.494,-228.324,-289.571,-403.604,-89.439,-454.500,1039.760,1313.780
746,38704.850000,-87.618,134.577,-227.336,-292.474,-397.768,-94.316,-521.500,802.760,1285.780
747,38704.872000,-68.038,140.648,-234.255,-311.225,-382.122,-93.019,-507.500,332.760,1342.780
748,38704.892000,-98.386,147.731,-248.093,-329.015,-366.485,-90.753,-409.500,347.760,1385.780
749,38704.928000,-113.071,164.933,-253.035,-336.862,-358.672,-93.577,-348.500,514.760,1387.780
750,38704.938000,-72.933,165.945,-247.104,-347.820,-339.227,-92.421,-332.500,614.760,1437.780
751,38704.956000,-26.922,166.957,-252.046,-369.488,-329.360,-89.096,-307.500,-148.240,1537.780
752,38704.979000,-147.335,202.372,-288.618,-381.510,-315.718,-80.039,-127.500,-731.240,1584.780
753,38704.996000,-148.314,193.265,-304.432,-386.466,-305.030,-81.933,137.500,-27.240,1614.780
754,38705.24000,-82.723,187.194,-310.363,-397.269,-285.577,-89.640,295.500,647.760,1668.780
755,38705.41000,-75.870,197.312,-316.293,-413.987,-263.168,-96.262,453.500,301.760,1706.780
756,38705.58000,-116.987,205.407,-335.073,-422.900,-253.415,-95.131,659.500,-121.240,1739.780
757,38705.81000,-123.839,210.466,-349.900,-431.719,-234.946,-103.857,769.500,-155.240,1768.780
758,38705.116000,-122.860,224.632,-362.749,-434.667,-222.337,-109.726,981.500,-225.240,1768.780
759,38705.130000,-130.692,238.798,-362.749,-439.460,-204.864,-124.429,1259.500,-309.240,1755.780
760,38705.147000,-146.356,236.775,-363.737,-441.358,-198.068,-131.294,1567.500,-297.240,1718.780
761,38705.156000,-149.293,232.727,-362.749,-440.186,-175.804,-153.983,1794.500,30.760,1730.780
762,38705.181000,-153.208,229.692,-358.795,-444.944,-162.201,-168.682,1984.500,623.760,1764.780
763,38705.198000,-125.797,218.561,-353.853,-439.817,-131.260,-198.343,2146.500,1393.760,1840.780
764,38705.227000,-66.080,201.360,-341.004,-432.630,-96.458,-235.920,2289.500,1667.760,1863.780
765,38705.250000,-47.480,192.253,-329.143,-419.714,-83.980,-253.883,2411.500,1321.760,1765.780
766,38705.264000,-59.228,181.123,-326.178,-404.672,-56.024,-289.622,2459.500,1240.760,1708.780
767,38705.284000,-45.522,171.004,-309.375,-394.725,-45.457,-304.577,2521.500,1407.760,1621.780
768,38705.303000,-25.943,153.802,-280.710,-376.888,-7.856,-337.424,2594.500,1550.760,1511.780
769,38705.326000,-20.069,136.601,-245.127,-361.072,8.465,-355.443,2649.500,1448.760,1318.780
770,38705.346000,-23.985,114.340,-215.475,-330.477,32.402,-383.577,2688.500,1241.760,1010.780
771,38705.368000,-14.195,101.186,-195.707,-292.034,46.589,-407.901,2736.500,929.760,634.780
772,38705.389000,-21.048,92.079,-166.054,-272.214,49.329,-424.006,2803.500,490.760,233.780
773,38705.404000,-27.901,78.925,-142.332,-234.635,52.885,-449.286,2821.500,118.760,-186.220
774,38705.435000,-60.207,70.830,-122.564,-219.776,53.729,-460.379,2851.500,-4.240,-558.220
775,38705.455000,-79.786,64.759,-95.876,-171.543,48.470,-475.009,2832.500,178.760,-696.220
776,38705.475000,-55.312,41.486,-81.050,-148.997,56.979,-482.309,2809.500,509.760,-940.220
777,38705.487000,-48.459,10.119,-68.201,-103.831,58.514,-492.954,2767.500,358.760,-1201.220
778,38705.527000,-68.038,-4.047,-59.305,-91.102,61.303,-495.151,2611.500,299.760,-1434.220
779,38705.546000,-54.333,-15.178,-54.363,-49.012,68.664,-500.827,2365.500,432.760,-1573.220
780,38705.555000,-22.027,-34.403,-42.502,-16.775,74.175,-501.404,2106.500,318.760,-1701.220
781,38705.563000,-26.922,-45.534,-33.606,-2.116,79.848,-503.639,1811.500,125.760,-1746.220
782,38705.588000,-23.006,-52.617,-25.699,16.274,86.443,-496.096,1523.500,138.760,-1776.220
783,38705.609000,7.342,-64.759,-21.745,31.981,88.239,-500.314,1393.500,73.760,-1835.220
784,38705.636000,-0.489,-62.735,-22.734,44.544,95.858,-495.623,1172.500,-88.240,-1981.220
785,38705.662000,-1.468,-62.735,-13.838,56.286,97.687,-496.817,959.500,48.760,-2108.220
786,38705.672000,31.816,-64.759,-16.803,59.989,109.255,-490.990,778.500,194.760,-2247.220
787,38705.689000,53.354,-45.534,-17.792,62.670,121.796,-483.176,661.500,209.760,-2375.220
788,38705.716000,44.543,-31.368,-14.826,55.749,133.469,-485.036,546.500,435.760,-2423.220
789,38705.737000,77.828,-42.498,-5.931,52.523,153.806,-479.096,342.500,929.760,-2475.220
790,38705.769000,167.893,-36.427,-9.884,53.325,165.402,-475.186,208.500,579.760,-2691.220
791,38705.772000,175.725,-7.083,-21.745,39.442,174.227,-469.044,160.500,-13.240,-2831.220
792,38705.795000,127.755,18.213,-15.815,30.609,179.145,-469.878,107.500,85.760,-2827.220
793,38705.817000,165.935,32.379,-24.710,5.803,201.610,-461.590,-113.500,861.760,-2839.220
794,38705.840000,274.600,39.462,-48.432,1.758,208.414,-457.588,-193.500,657.760,-3002.220
795,38705.865000,274.600,55.652,-62.270,-19.856,210.540,-453.271,-139.500,-194.240,-3118.220
796,38705.880000,196.283,91.067,-71.166,-44.380,215.599,-451.858,-198.500,243.760,-3050.220
797,38705.902000,245.231,124.459,-90.934,-63.163,219.629,-442.671,-258.500,1167.760,-2994.220
798,38705.920000,346.065,123.447,-103.784,-87.870,229.516,-433.385,-132.500,709.760,-3021.220
799,38705.942000,338.233,125.470,-106.749,-102.538,228.682,-433.124,-72.500,62.760,-2912.220
800,38705.965000,269.706,161.897,-111.691,-123.164,227.897,-427.836,-48.500,125.760,-2791.220
801,38705.982000,278.516,186.182,-117.622,-127.164,227.928,-422.843,-81.500,771.760,-2574.220
802,38706.15000,348.023,183.146,-126.517,-142.898,227.098,-417.642,-13.500,602.760,-2506.220
803,38706.34000,344.107,166.957,-124.541,-159.364,212.740,-419.303,130.500,-240.240,-2464.220
804,38706.51000,276.558,187.194,-119.598,-171.070,205.105,-417.118,241.500,-135.240,-2441.220
805,38706.65000,225.652,223.621,-116.633,-183.895,211.023,-413.944,340.500,878.760,-2277.220
806,38706.101000,262.853,212.490,-103.784,-183.109,216.810,-406.089,397.500,1342.760,-1936.220
807,38706.110000,333.338,173.028,-101.807,-191.906,215.923,-405.933,436.500,424.760,-1742.220
808,38706.132000,326.486,160.885,-115.645,-195.695,202.415,-405.850,477.500,-549.240,-1700.220
809,38706.150000,247.189,181.123,-155.181,-189.562,188.826,-413.818,518.500,-570.240,-1664.220
810,38706.172000,197.262,200.348,-191.753,-198.410,184.064,-408.734,623.500,85.760,-1528.220
811,38706.197000,227.610,216.538,-202.625,-196.384,184.050,-412.707,760.500,578.760,-1451.220
812,38706.212000,278.516,232.727,-212.510,-196.305,179.215,-414.672,930.500,107.760,-1523.220
813,38706.225000,263.832,240.822,-222.394,-185.314,169.451,-422.731,1091.500,-342.240,-1546.220
814,38706.244000,234.463,246.893,-239.197,-178.245,156.818,-428.748,1257.500,-268.240,-1479.220
815,38706.286000,233.484,260.047,-244.139,-173.266,156.778,-433.758,1466.500,-73.240,-1390.220
816,38706.300000,239.358,264.095,-244.139,-155.539,149.849,-437.017,1652.500,58.760,-1260.220
817,38706.314000,261.874,256.000,-240.185,-138.835,149.702,-441.250,1738.500,13.760,-1115.220
818,38706.336000,283.411,256.000,-233.266,-116.995,139.845,-454.423,1916.500,-361.240,-1051.220
819,38706.356000,254.042,262.071,-246.116,-92.366,130.921,-459.770,2058.500,-728.240,-917.220
820,38706.376000,250.126,257.012,-245.127,-75.513,124.006,-468.920,2216.500,-766.240,-761.220
821,38706.396000,262.853,260.047,-246.116,-36.207,113.013,-473.541,2354.500,-763.240,-624.220
822,38706.425000,252.084,251.953,-244.139,-20.376,107.073,-480.705,2480.500,-1062.240,-518.220
823,38706.440000,217.820,249.929,-250.069,19.875,92.197,-481.400,2573.500,-1195.240,-434.220
824,38706.460000,212.925,241.834,-250.069,49.345,83.226,-483.880,2666.500,-916.240,-319.220
825,38706.482000,227.610,230.704,-243.151,97.336,74.081,-482.749,2749.500,-747.240,-173.220
826,38706.500000,240.337,212.490,-233.266,115.826,66.163,-473.222,2781.500,-813.240,-97.220
827,38706.525000,215.862,203.383,-234.255,166.641,54.082,-464.263,2833.500,-1151.240,0.780
828,38706.542000,182.577,194.277,-231.290,214.418,40.086,-448.356,2870.500,-1255.240,76.780
829,38706.551000,173.767,177.075,-214.486,242.647,38.851,-439.994,2916.500,-877.240,238.780
830,38706.579000,204.115,157.850,-195.707,290.206,29.682,-414.244,2908.500,-554.240,409.780
831,38706.601000,202.157,132.553,-170.008,314.515,19.772,-400.881,2878.500,-686.240,537.780
832,38706.621000,180.620,115.352,-153.205,357.122,5.805,-369.131,2807.500,-762.240,712.780
833,38706.641000,169.851,88.032,-136.402,368.598,-1.092,-350.621,2724.500,-617.240,949.780
834,38706.663000,171.809,61.723,-101.807,407.258,-20.833,-313.873,2676.500,-582.240,1124.780
835,38706.681000,142.440,39.462,-73.143,442.075,-48.278,-277.048,2559.500,-635.240,1195.780
836,38706.703000,128.734,16.190,-48.432,450.633,-57.083,-258.484,2374.500,-438.240,1355.780
837,38706.731000,147.335,-10.119,-23.722,466.971,-83.384,-228.224,2099.500,-378.240,1552.780
838,38706.745000,143.419,-31.368,0.000,462.880,-101.749,-208.441,1802.500,-827.240,1685.780
839,38706.764000,98.386,-42.498,6.919,474.434,-141.550,-177.097,1516.500,-1305.240,1793.780
840,38706.786000,52.375,-60.711,1.977,475.286,-156.085,-162.328,1284.500,-1286.240,1912.780
841,38706.808000,62.164,-82.972,0.988,471.296,-196.706,-136.614,1022.500,-1155.240,2010.780
842,38706.831000,52.375,-86.008,-7.907,450.687,-231.367,-114.551,784.500,-1515.240,2000.780
843,38706.853000,-7.342,-94.103,-18.780,448.701,-252.645,-101.693,700.500,-1590.240,1992.780
844,38706.871000,-42.585,-96.126,-32.618,431.140,-288.294,-85.589,540.500,-1210.240,2007.780
845,38706.886000,-41.606,-100.174,-41.514,414.493,-303.630,-76.417,372.500,-785.240,2050.780
846,38706.900000,-47.480,-93.091,-53.375,389.155,-333.398,-66.089,198.500,-777.240,2062.780
847,38706.930000,-83.702,-81.960,-66.224,384.344,-349.803,-62.047,81.500,-856.240,2014.780
848,38706.945000,-115.029,-80.949,-81.050,354.095,-371.785,-54.595,-43.500,-548.240,1977.780
849,38706.966000,-103.281,-70.830,-99.830,342.477,-385.221,-54.374,-161.500,-399.240,1944.780
850,38706.988000,-105.239,-63.747,-99.830,314.202,-407.220,-47.941,-229.500,-538.240,1896.780
851,38707.11000,-132.650,-47.557,-106.749,285.016,-425.333,-47.403,-294.500,-502.240,1841.780
852,38707.31000,-139.503,-37.439,-131.459,266.574,-433.867,-51.005,-324.500,-65.240,1865.780
853,38707.54000,-109.155,-44.522,-134.425,241.371,-450.077,-55.462,-357.500,131.760,1993.780
854,38707.82000,-119.924,-25.296,-138.378,220.902,-456.661,-56.077,-370.500,-196.240,2014.780
855,38707.85000,-165.935,-12.142,-158.147,193.671,-465.113,-60.507,-360.500,36.760,1967.780
856,38707.108000,-146.356,-15.178,-165.066,167.471,-475.508,-66.923,-423.500,521.760,2006.780
857,38707.131000,-108.176,-5.059,-169.019,131.459,-482.911,-73.168,-509.500,129.760,2031.780
858,38707.174000,-139.503,11.130,-176.927,100.218,-490.366,-72.607,-503.500,-158.240,1955.780
859,38707.200000,-175.725,17.202,-182.857,83.731,-489.238,-81.176,-517.500,352.760,1906.780
860,38707.202000,-133.629,26.308,-179.892,46.704,-490.827,-88.395,-559.500,514.760,1916.780
861,38707.227000,-124.818,35.415,-185.822,32.166,-494.557,-94.040,-618.500,244.760,1929.780
862,38707.236000,-150.272,46.545,-188.788,3.816,-495.266,-94.522,-627.500,117.760,1896.780
863,38707.256000,-144.398,58.688,-182.857,-19.617,-491.178,-99.035,-667.500,359.760,1844.780
864,38707.279000,-108.176,74.877,-185.822,-53.821,-487.960,-102.371,-770.500,231.760,1835.780
865,38707.296000,-112.092,90.055,-190.764,-68.526,-481.053,-104.088,-791.500,-39.240,1857.780
866,38707.318000,-141.461,94.103,-200.649,-100.896,-475.924,-101.552,-721.500,103.760,1891.780
867,38707.336000,-132.650,104.221,-197.683,-139.015,-468.800,-106.793,-733.500,374.760,1903.780
868,38707.359000,-103.281,124.459,-195.707,-151.772,-462.879,-107.559,-805.500,265.760,1904.780
869,38707.379000,-91.533,136.601,-209.544,-183.251,-451.956,-103.077,-803.500,146.760,1915.780
870,38707.400000,-116.987,145.708,-223.382,-202.883,-445.007,-102.737,-753.500,15.760,1955.780
871,38707.426000,-136.566,161.897,-225.359,-232.363,-429.260,-103.219,-721.500,365.760,1947.780
872,38707.443000,-108.176,167.968,-227.336,-241.179,-422.405,-106.024,-785.500,713.760,1979.780
873,38707.460000,-45.522,186.182,-232.278,-272.703,-404.710,-102.534,-808.500,123.760,2046.780
874,38707.486000,-38.669,216.538,-229.313,-301.526,-384.151,-87.281,-717.500,-767.240,2050.780
875,38707.511000,-116.008,232.727,-250.069,-321.314,-375.275,-79.066,-605.500,-529.240,2104.780
876,38707.529000,-134.608,234.751,-285.652,-347.003,-353.763,-75.683,-468.500,51.760,2174.780
877,38707.557000,-109.155,246.893,-294.548,-351.066,-343.089,-72.670,-345.500,137.760,2242.780
878,38707.586000,-104.260,249.929,-283.676,-385.588,-316.660,-70.122,-73.500,158.760,2285.780
879,38707.600000,-98.386,246.893,-291.583,-389.540,-306.947,-73.016,109.500,-8.240,2458.780
880,38707.614000,-97.407,264.095,-308.386,-414.313,-272.866,-72.618,368.500,-267.240,2702.780
881,38707.636000,-94.470,282.308,-312.340,-420.452,-241.854,-73.530,662.500,-696.240,2861.780
882,38707.653000,-116.987,312.664,-341.004,-443.118,-220.365,-75.123,1044.500,-991.240,2957.780
883,38707.671000,-145.377,326.830,-355.830,-451.059,-183.520,-87.824,1404.500,-876.240,2999.780
884,38707.691000,-167.893,330.877,-364.726,-461.800,-168.902,-96.511,1685.500,-484.240,2964.780
885,38707.714000,-129.713,280.285,-348.911,-465.646,-133.050,-119.127,1906.500,-305.240,2794.780
886,38707.738000,-116.987,256.000,-341.004,-474.334,-119.413,-132.772,1973.500,-335.240,2650.780
887,38707.760000,-85.660,250.941,-332.108,-464.340,-93.356,-158.575,2076.500,-386.240,2352.780
888,38707.780000,-74.891,241.834,-314.317,-465.218,-79.791,-171.373,2191.500,-555.240,2058.780
889,38707.795000,-65.101,222.609,-298.502,-459.984,-60.458,-201.022,2301.500,-672.240,1731.780
890,38707.820000,-53.354,198.324,-272.803,-448.773,-52.788,-230.763,2395.500,-659.240,1414.780
891,38707.842000,-38.669,171.004,-242.162,-433.828,-50.002,-247.766,2376.500,-703.240,1109.780
892,38707.857000,-19.090,161.897,-217.452,-420.649,-52.996,-272.607,2289.500,-999.240,777.780
893,38707.872000,-32.795,157.850,-201.637,-414.500,-56.905,-286.494,2198.500,-1464.240,369.780
894,38707.891000,-69.017,144.696,-192.741,-392.423,-75.460,-308.521,2161.500,-1570.240,24.780
895,38707.911000,-86.639,127.494,-187.799,-382.316,-84.242,-322.472,2096.500,-1384.240,-112.220
896,38707.942000,-89.576,115.352,-168.031,-359.339,-101.843,-340.578,2083.500,-1081.240,-359.220
897,38707.958000,-101.323,92.079,-155.181,-349.913,-124.150,-364.345,2091.500,-975.240,-644.220
898,38707.976000,-119.924,78.925,-145.297,-318.364,-137.004,-371.780,2094.500,-847.240,-983.220
899,38708.4000,-135.587,63.747,-136.402,-291.474,-152.704,-390.942,2123.500,-430.240,-1268.220
900,38708.24000,-142.440,51.605,-116.633,-275.566,-157.672,-403.031,2121.500,186.760,-1498.220
901,38708.39000,-116.987,40.474,-89.946,-237.006,-161.868,-424.382,2113.500,719.760,-1672.220
902,38708.65000,-84.681,27.320,-65.236,-214.362,-162.064,-432.658,2113.500,856.760,-1827.220
903,38708.82000,-78.807,4.047,-50.409,-166.123,-158.612,-452.220,2091.500,814.760,-1904.220
904,38708.110000,-70.975,-14.166,-48.432,-154.295,-154.843,-459.325,1970.500,794.760,-2043.220
905,38708.137000,-68.038,-24.285,-37.560,-113.971,-149.388,-474.811,1786.500,905.760,-2133.220
906,38708.141000,-69.996,-30.356,-26.687,-75.841,-131.347,-483.383,1592.500,1150.760,-2110.220
907,38708.167000,-42.585,-54.640,-20.757,-61.157,-120.833,-489.561,1344.500,1365.760,-2054.220
908,38708.190000,0.489,-74.877,-18.780,-35.869,-100.747,-492.001,1072.500,1096.760,-2071.220
909,38708.232000,-15.174,-69.818,-34.595,-25.081,-96.004,-496.135,838.500,651.760,-2156.220
910,38708.232000,-20.069,-51.605,-47.444,4.228,-83.691,-500.606,625.500,752.760,-2145.220
911,38708.246000,9.300,-45.534,-57.328,5.117,-72.090,-501.620,548.500,812.760,-2096.220
912,38708.269000,18.111,-62.735,-62.270,19.652,-56.745,-501.895,461.500,713.760,-2094.220
913,38708.288000,13.216,-69.818,-77.097,26.341,-37.458,-503.020,348.500,700.760,-2113.220
914,38708.306000,27.901,-61.723,-73.143,35.031,-24.962,-503.189,233.500,842.760,-2207.220
915,38708.329000,54.333,-39.462,-69.189,37.772,-5.641,-502.276,105.500,820.760,-2388.220
916,38708.351000,57.270,-36.427,-62.270,30.860,1.193,-502.161,-12.500,734.760,-2558.220
917,38708.369000,90.554,-41.486,-53.375,29.608,23.448,-498.227,-240.500,761.760,-2777.220
918,38708.397000,134.608,-24.285,-67.212,27.631,31.208,-501.155,-450.500,376.760,-3052.220
919,38708.412000,150.272,-2.024,-95.876,14.692,40.023,-493.061,-533.500,-18.240,-3184.220
920,38708.435000,134.608,8.095,-99.830,12.708,46.814,-495.002,-581.500,81.760,-3195.220
921,38708.470000,161.040,41.486,-112.680,-5.126,65.352,-491.755,-754.500,849.760,-3171.220
922,38708.479000,225.652,64.759,-111.691,-25.843,81.984,-490.424,-746.500,1124.760,-3132.220
923,38708.497000,255.021,73.866,-121.575,-40.688,94.690,-487.222,-753.500,774.760,-3079.220
924,38708.516000,251.105,90.055,-136.402,-56.518,100.630,-480.058,-781.500,677.760,-3036.220
925,38708.545000,258.937,120.411,-141.344,-71.327,107.532,-475.866,-744.500,685.760,-2983.220
926,38708.551000,263.832,125.470,-152.216,-93.938,113.538,-472.520,-797.500,740.760,-2929.220
927,38708.579000,309.843,118.387,-188.788,-109.663,115.612,-469.291,-725.500,512.760,-2982.220
928,38708.601000,291.243,135.589,-187.799,-131.249,110.965,-462.997,-683.500,360.760,-2931.220
929,38708.623000,255.021,174.040,-184.834,-141.113,112.018,-458.886,-587.500,388.760,-2630.220
930,38708.638000,288.306,179.099,-198.672,-155.876,110.210,-452.716,-528.500,635.760,-2468.220
931,38708.659000,311.801,162.909,-224.371,-165.668,105.459,-449.583,-417.500,366.760,-2459.220
932,38708.681000,284.390,167.968,-224.371,-173.503,98.755,-445.499,-267.500,-109.240,-2239.220
933,38708.714000,228.589,184.158,-228.324,-183.112,87.239,-449.254,-167.500,-184.240,-1910.220
934,38708.724000,217.820,191.241,-241.174,-189.035,87.289,-446.195,-47.500,67.760,-1755.220
935,38708.751000,260.895,195.289,-234.255,-195.777,71.871,-444.089,110.500,-178.240,-1941.220
936,38708.766000,234.463,195.289,-244.139,-185.921,64.043,-444.254,268.500,-317.240,-1950.220
937,38708.791000,198.241,194.277,-242.162,-189.632,51.507,-449.096,335.500,-207.240,-1831.220
938,38708.800000,210.967,192.253,-239.197,-189.543,41.833,-449.087,463.500,-190.240,-1600.220
939,38708.822000,213.904,193.265,-241.174,-184.519,33.085,-452.119,600.500,-617.240,-1492.220
940,38708.855000,172.788,207.431,-242.162,-174.504,11.715,-454.240,701.500,-812.240,-1445.220
941,38708.884000,138.524,212.490,-241.174,-167.549,5.851,-457.309,793.500,-582.240,-1383.220
942,38708.887000,154.187,210.466,-239.197,-151.655,-10.732,-462.493,894.500,-705.240,-1392.220
943,38708.910000,163.977,208.443,-245.127,-139.737,-22.444,-466.628,977.500,-1213.240,-1488.220
944,38708.935000,131.671,215.526,-261.931,-123.781,-47.735,-470.819,1049.500,-1412.240,-1582.220
945,38708.938000,87.618,220.585,-273.792,-105.003,-68.219,-471.127,1075.500,-1294.240,-1619.220
946,38708.961000,87.618,227.668,-278.734,-97.042,-80.866,-472.238,1156.500,-974.240,-1639.220
947,38708.984000,100.344,229.692,-281.699,-68.498,-95.633,-474.694,1244.500,-934.240,-1669.220
948,38709.6000,105.239,223.621,-286.641,-52.821,-109.325,-469.049,1307.500,-1098.240,-1653.220
949,38709.24000,99.365,223.621,-299.490,-24.258,-127.962,-470.517,1398.500,-1253.240,-1635.220
950,38709.46000,72.933,222.609,-309.375,0.285,-138.827,-469.954,1519.500,-1123.240,-1596.220
951,38709.69000,78.807,207.431,-315.305,29.625,-150.710,-463.568,1628.500,-989.240,-1528.220
952,38709.111000,80.765,202.372,-310.363,47.291,-156.674,-463.873,1737.500,-1093.240,-1475.220
953,38709.141000,68.038,192.253,-314.317,85.386,-168.640,-454.689,1833.500,-1168.240,-1430.220
954,38709.141000,61.185,175.051,-321.236,124.399,-179.650,-442.568,1887.500,-1146.240,-1388.220
955,38709.156000,53.354,169.992,-306.409,147.762,-183.742,-434.117,2016.500,-1074.240,-1316.220
956,38709.177000,52.375,159.874,-292.571,191.501,-186.095,-417.168,2130.500,-895.240,-1250.220
957,38709.201000,69.017,146.719,-276.757,209.011,-190.132,-409.597,2218.500,-631.240,-1113.220
958,38709.210000,78.807,126.482,-262.919,257.554,-186.727,-390.771,2285.500,-549.240,-945.220
959,38709.232000,75.870,110.292,-249.081,272.005,-183.002,-380.202,2327.500,-558.240,-793.220
960,38709.255000,70.975,91.067,-238.208,312.591,-182.436,-352.372,2367.500,-459.240,-618.220
961,38709.272000,88.597,75.889,-223.382,349.263,-177.964,-326.445,2379.500,-322.240,-393.220
962,38709.295000,93.491,55.652,-192.741,362.650,-180.041,-307.975,2387.500,-379.240,-170.220
963,38709.311000,74.891,34.403,-175.938,392.440,-185.187,-275.025,2372.500,-540.240,-71.220
964,38709.332000,73.912,17.202,-161.112,403.897,-186.278,-258.491,2317.500,-421.240,170.780
965,38709.355000,88.597,1.012,-136.402,414.187,-197.050,-226.173,2253.500,-339.240,424.780
966,38709.377000,75.870,-14.166,-123.552,433.481,-203.051,-207.803,2151.500,-528.240,630.780
967,38709.395000,64.122,-26.308,-107.737,442.804,-220.588,-172.507,2044.500,-598.240,847.780
968,38709.427000,48.459,-39.462,-88.958,439.663,-228.316,-156.691,1923.500,-569.240,1057.780
969,38709.446000,41.606,-56.664,-77.097,440.205,-248.676,-121.236,1744.500,-532.240,1280.780
970,38709.475000,27.901,-62.735,-70.178,438.992,-277.717,-92.632,1577.500,-574.240,1454.780
971,38709.490000,-0.489,-63.747,-71.166,427.062,-287.300,-76.658,1510.500,-561.240,1527.780
972,38709.504000,-17.132,-68.806,-73.143,417.101,-311.418,-53.811,1393.500,-338.240,1674.780
973,38709.526000,-16.153,-69.818,-71.166,408.211,-322.958,-42.812,1262.500,-149.240,1819.780
974,38709.542000,-44.543,-69.818,-81.050,390.632,-350.865,-29.670,1134.500,-156.240,1940.780
975,38709.565000,-63.143,-65.771,-84.015,371.974,-362.315,-19.482,1025.500,16.760,2047.780
976,38709.587000,-72.933,-58.688,-85.992,342.660,-387.211,-8.105,904.500,125.760,2157.780
977,38709.605000,-88.597,-56.664,-85.992,309.537,-415.938,-0.594,777.500,21.760,2244.780
978,38709.627000,-114.050,-37.439,-99.830,301.807,-426.508,-0.445,662.500,12.760,2277.780
979,38709.645000,-132.650,-28.332,-108.726,259.814,-442.575,4.254,603.500,69.760,2391.780
980,38709.667000,-142.440,-24.285,-98.842,240.335,-459.814,8.557,556.500,14.760,2440.780
981,38709.692000,-160.061,-7.083,-104.772,205.157,-474.010,14.118,447.500,-93.240,2411.780
982,38709.725000,-172.788,4.047,-120.587,180.721,-478.625,15.541,371.500,-59.240,2411.780
983,38709.744000,-186.493,1.012,-104.772,146.599,-491.858,16.160,333.500,-176.240,2432.780
984,38709.747000,-205.094,1.012,-105.761,127.092,-500.387,17.499,220.500,-128.240,2288.780
985,38709.769000,-209.010,13.154,-114.656,86.179,-508.714,12.326,113.500,228.760,2124.780
986,38709.790000,-204.115,10.119,-111.691,53.941,-508.418,9.943,-5.500,251.760,2096.780
987,38709.815000,-195.304,7.083,-100.819,43.195,-510.255,10.135,-159.500,62.760,1933.780
988,38709.837000,-198.241,28.332,-111.691,2.272,-511.807,2.001,-224.500,120.760,1822.780
989,38709.864000,-200.199,44.522,-121.575,-6.448,-513.658,-1.780,-312.500,486.760,1721.780
990,38709.872000,-179.641,40.474,-109.714,-43.511,-505.570,-11.963,-411.500,483.760,1780.780
991,38709.895000,-177.683,47.557,-118.610,-57.166,-508.347,-12.703,-532.500,236.760,1678.780
992,38709.915000,-178.662,61.723,-134.425,-81.491,-504.245,-22.122,-616.500,458.760,1583.780
993,38709.936000,-142.440,73.866,-134.425,-107.879,-492.388,-29.544,-729.500,553.760,1590.780
994,38709.956000,-128.734,80.949,-142.332,-126.522,-492.222,-26.261,-808.500,254.760,1660.780
995,38709.989000,-141.461,91.067,-154.193,-158.945,-477.417,-25.705,-849.500,30.760,1658.780
996,38709.991000,-161.040,103.209,-170.996,-167.717,-479.271,-26.532,-906.500,102.760,1679.780
997,38710.6000,-134.608,120.411,-182.857,-196.149,-463.530,-30.970,-938.500,393.760,1705.780
998,38710.37000,-91.533,136.601,-191.753,-212.836,-459.510,-29.695,-971.500,239.760,1765.780
999,38710.57000,-96.428,155.826,-217.452,-240.549,-443.792,-19.378,-928.500,-170.240,1764.780
1000,38710.77000,-119.924,179.099,-238.208,-253.368,-433.035,-19.164,-782.500,-117.240,1768.780
