Sample, Time, ACCX, ACCY, ACCZ, MAGX, MAGY, MAGZ, GYRX, GYRY, GYRZ
0,38633.438000,-9.300,10.119,-246.116,18.957,-322.894,-378.515,6.500,-1.240,0.780
1,38633.461000,-8.321,11.130,-246.116,19.840,-320.004,-374.596,5.500,-1.240,3.780
2,38633.478000,-9.300,10.119,-247.104,16.922,-319.977,-375.529,6.500,-12.240,8.780
3,38633.503000,-9.300,11.130,-246.116,15.918,-320.937,-373.541,8.500,-8.240,9.780
4,38633.524000,-7.342,10.119,-245.127,13.996,-322.853,-374.489,10.500,-8.240,9.780
5,38633.546000,-9.300,10.119,-243.151,12.982,-318.975,-374.476,8.500,-11.240,7.780
6,38633.564000,-10.279,10.119,-244.139,11.995,-321.870,-372.486,7.500,-14.240,3.780
7,38633.584000,-9.300,9.107,-242.162,19.849,-322.908,-373.608,6.500,-7.240,4.780
8,38633.614000,-8.321,9.107,-241.174,15.987,-320.933,-377.480,4.500,-11.240,6.780
9,38633.629000,-8.321,9.107,-244.139,20.880,-322.914,-376.580,-2.500,-11.240,5.780
10,38633.654000,-9.300,10.119,-241.174,14.965,-321.895,-374.507,-4.500,-14.240,9.780
11,38633.668000,-10.279,10.119,-242.162,15.010,-326.732,-374.502,-9.500,-14.240,4.780
12,38633.684000,-11.258,10.119,-242.162,13.969,-319.951,-374.492,-12.500,-6.240,1.780
13,38633.701000,-10.279,8.095,-243.151,13.996,-322.853,-374.489,-16.500,-6.240,-0.220
14,38633.729000,-10.279,9.107,-245.127,18.862,-321.931,-373.592,-18.500,-14.240,-3.220
15,38633.744000,-10.279,9.107,-246.116,17.953,-323.854,-376.527,-18.500,-14.240,-7.220
16,38633.770000,-10.279,10.119,-248.093,15.918,-322.873,-372.554,-16.500,-5.240,-7.220
17,38633.788000,-8.321,10.119,-246.116,12.973,-318.007,-374.477,-12.500,1.760,-5.220
18,38633.813000,-7.342,10.119,-247.104,15.978,-321.902,-376.494,-11.500,-5.240,-2.220
19,38633.844000,-8.321,10.119,-248.093,20.871,-321.946,-376.581,-10.500,-7.240,1.780
20,38633.873000,-7.342,10.119,-249.081,16.923,-323.848,-373.555,-9.500,-8.240,1.780
21,38633.879000,-8.321,11.130,-248.093,12.048,-323.803,-374.453,-3.500,-11.240,7.780
22,38633.896000,-10.279,11.130,-247.104,10.021,-323.789,-370.480,3.500,-10.240,13.780
23,38633.919000,-9.300,11.130,-246.116,15.935,-322.872,-373.539,7.500,-0.240,6.780
24,38633.935000,-8.321,12.142,-246.116,15.953,-322.871,-374.524,3.500,0.760,9.780
25,38633.955000,-10.279,10.119,-246.116,17.000,-322.876,-378.480,0.500,-19.240,3.780
26,38633.983000,-11.258,10.119,-246.116,15.926,-321.905,-373.540,0.500,-3.240,7.780
27,38634.6000,-9.300,13.154,-245.127,16.931,-322.880,-374.541,5.500,9.760,8.780
28,38634.16000,-8.321,10.119,-245.127,12.021,-320.901,-374.456,11.500,-14.240,4.780
29,38634.30000,-7.342,12.142,-246.116,13.934,-319.953,-372.522,14.500,-28.240,6.780
30,38634.49000,-9.300,10.119,-248.093,17.918,-323.856,-374.557,16.500,-21.240,8.780
31,38634.81000,-12.237,10.119,-247.104,13.961,-320.919,-373.506,21.500,1.760,8.780
32,38634.101000,-10.279,11.130,-246.116,11.095,-322.825,-376.407,24.500,0.760,10.780
33,38634.121000,-11.258,10.119,-245.127,22.811,-325.836,-373.657,24.500,-13.240,6.780
34,38634.144000,-10.279,9.107,-245.127,13.034,-322.843,-375.456,28.500,-28.240,-1.220
35,38634.165000,-12.237,11.130,-248.093,15.944,-321.904,-374.525,29.500,-18.240,-11.220
36,38634.185000,-11.258,10.119,-247.104,19.814,-320.974,-372.625,30.500,7.760,-6.220
37,38634.205000,-7.342,11.130,-246.116,17.902,-325.793,-372.586,30.500,-11.240,-0.220
38,38634.239000,-8.321,9.107,-243.151,18.853,-322.900,-372.606,29.500,-24.240,-0.220
39,38634.253000,-10.279,8.095,-244.139,14.948,-321.896,-373.523,30.500,-22.240,-0.220
40,38634.271000,-9.300,8.095,-241.174,15.927,-323.840,-372.553,26.500,-30.240,-0.220
41,38634.294000,-10.279,9.107,-244.139,19.806,-321.942,-371.639,26.500,-37.240,-1.220
42,38634.309000,-14.195,7.083,-243.151,20.854,-325.819,-373.622,24.500,-20.240,-4.220
43,38634.331000,-12.237,9.107,-244.139,-228.644,-323.549,-370.195,20.500,-1.240,-1.220
44,38634.349000,-13.216,6.071,-244.139,20.846,-326.787,-372.637,16.500,-17.240,-3.220
45,38634.371000,-13.216,8.095,-243.151,20.854,-325.819,-373.622,10.500,-11.240,-5.220
46,38634.388000,-13.216,8.095,-242.162,16.853,-321.916,-370.603,8.500,-2.240,-4.220
47,38634.409000,-12.237,8.095,-243.151,15.936,-324.808,-372.552,2.500,-7.240,-9.220
48,38634.434000,-11.258,8.095,-244.139,22.785,-324.870,-372.673,0.500,-16.240,-12.220
49,38634.456000,-12.237,8.095,-243.151,24.742,-324.888,-372.708,0.500,-19.240,-12.220
50,38634.476000,-11.258,9.107,-243.151,17.884,-325.794,-371.601,-0.500,-10.240,-11.220
51,38634.489000,-8.321,7.083,-243.151,18.898,-327.737,-372.601,-1.500,6.760,-5.220
52,38634.506000,-9.300,8.095,-244.139,19.893,-325.809,-374.590,-4.500,-7.240,-4.220
53,38634.529000,-12.237,6.071,-245.127,16.958,-325.782,-374.538,-4.500,-16.240,-8.220
54,38634.556000,-10.279,7.083,-244.139,20.802,-321.950,-372.642,-6.500,8.760,-7.220
55,38634.579000,-8.321,6.071,-246.116,18.898,-327.737,-372.601,-8.500,2.760,-2.220
56,38634.599000,-13.216,5.059,-244.139,22.777,-325.838,-371.688,-3.500,-13.240,-1.220
57,38634.611000,-13.216,7.083,-244.139,16.879,-322.883,-371.587,-5.500,11.760,-4.220
58,38634.639000,-9.300,7.083,-242.162,24.812,-326.820,-375.660,-8.500,11.760,-7.220
59,38634.656000,-10.279,8.095,-244.139,15.840,-321.909,-368.616,-13.500,-11.240,-8.220
60,38634.676000,-12.237,8.095,-244.139,21.868,-325.826,-375.609,-17.500,-13.240,-4.220
61,38634.703000,-11.258,9.107,-246.116,21.877,-328.729,-374.622,-17.500,8.760,-4.220
62,38634.720000,-9.300,8.095,-245.127,21.885,-325.825,-376.594,-13.500,7.760,-2.220
63,38634.742000,-9.300,9.107,-246.116,24.777,-324.886,-374.677,-12.500,-1.240,-1.220
64,38634.758000,-9.300,9.107,-246.116,18.923,-324.832,-375.558,-14.500,2.760,4.780
65,38634.780000,-10.279,9.107,-245.127,22.820,-326.804,-373.656,-12.500,10.760,5.780
66,38634.805000,-10.279,10.119,-244.139,21.833,-325.828,-373.640,-11.500,9.760,5.780
67,38634.826000,-10.279,9.107,-245.127,20.837,-325.820,-372.638,-11.500,5.760,5.780
68,38634.848000,-12.237,8.095,-246.116,24.768,-323.918,-374.678,-10.500,1.760,6.780
69,38634.865000,-12.237,9.107,-244.139,14.983,-323.829,-374.505,-8.500,12.760,6.780
70,38634.903000,-9.300,9.107,-245.127,21.789,-322.926,-372.658,-8.500,21.760,5.780
71,38634.922000,-8.321,9.107,-246.116,15.945,-325.775,-372.551,-10.500,9.760,3.780
72,38634.925000,-10.279,9.107,-245.127,16.904,-319.978,-374.544,-9.500,6.760,3.780
73,38634.944000,-9.300,8.095,-244.139,16.940,-325.783,-373.553,-8.500,19.760,2.780
74,38634.966000,-9.300,9.107,-244.139,20.827,-320.981,-374.612,-13.500,7.760,-2.220
75,38634.989000,-9.300,9.107,-245.127,-227.657,-320.654,-372.185,-12.500,-3.240,-1.220
76,38635.6000,-11.258,8.095,-245.127,18.880,-325.802,-372.603,-14.500,-4.240,-3.220
77,38635.29000,-9.300,9.107,-245.127,14.939,-318.992,-374.510,-17.500,9.760,-0.220
78,38635.35000,-7.342,10.119,-246.116,17.857,-320.956,-372.591,-18.500,-2.240,-0.220
79,38635.63000,-10.279,9.107,-245.127,20.853,-321.947,-375.596,-18.500,-14.240,-0.220
80,38635.85000,-11.258,9.107,-245.127,12.030,-323.804,-373.469,-16.500,2.760,2.780
81,38635.103000,-9.300,9.107,-246.116,13.060,-321.874,-377.427,-14.500,1.760,0.780
82,38635.129000,-10.279,9.107,-246.116,11.042,-320.892,-374.439,-11.500,-7.240,-2.220
83,38635.149000,-12.237,9.107,-247.104,14.012,-320.916,-376.460,-11.500,-0.240,-0.220
84,38635.165000,-8.321,9.107,-248.093,17.926,-320.952,-376.530,-12.500,-1.240,-0.220
85,38635.188000,-9.300,11.130,-247.104,15.962,-323.838,-374.523,-9.500,-15.240,-2.220
86,38635.210000,-11.258,10.119,-246.116,20.880,-322.914,-376.580,-7.500,-11.240,-6.220
87,38635.247000,-10.279,10.119,-245.127,12.082,-321.865,-377.410,-8.500,2.760,-2.220
88,38635.264000,-8.321,9.107,-245.127,16.957,-323.846,-375.525,-13.500,-13.240,-2.220
89,38635.278000,-8.321,12.142,-246.116,22.785,-324.870,-372.673,-7.500,-23.240,-4.220
90,38635.300000,-12.237,10.119,-244.139,21.911,-326.791,-377.578,-2.500,-3.240,-0.220
91,38635.319000,-9.300,10.119,-244.139,14.041,-329.626,-373.497,-898.500,282.760,-50.220
92,38635.349000,-89.576,-346.055,-247.104,11.971,-330.582,-366.569,941.500,-1515.240,-213.220
93,38635.353000,-32.795,62.735,-216.463,15.886,-334.490,-364.664,65.500,-200.240,149.780
94,38635.365000,-57.270,-54.640,-252.046,12.041,-330.579,-370.508,-17.500,-35.240,-42.220
95,38635.393000,-61.185,0.000,-265.884,11.987,-322.838,-371.500,-0.500,620.760,-134.220
96,38635.415000,4.405,1.012,-259.954,16.013,-321.900,-378.464,-28.500,620.760,-92.220
97,38635.433000,50.417,34.403,-237.220,15.961,-321.903,-375.509,-153.500,-256.240,-178.220
98,38635.455000,-29.859,41.486,-267.861,9.120,-322.808,-375.387,4.500,-268.240,-78.220
99,38635.486000,-35.732,10.119,-264.896,9.060,-321.843,-372.434,14.500,156.760,-22.220
100,38635.514000,0.489,17.202,-252.046,11.069,-321.858,-375.423,39.500,108.760,-22.220
101,38635.543000,9.300,15.178,-249.081,16.983,-322.877,-377.495,45.500,3.760,-24.220
102,38635.546000,-5.384,11.130,-249.081,22.802,-322.933,-374.645,55.500,-101.240,-27.220
103,38635.569000,-14.195,12.142,-250.069,15.935,-322.872,-373.539,61.500,-32.240,-15.220
104,38635.584000,-8.321,12.142,-246.116,19.918,-322.904,-377.547,64.500,31.760,-5.220
105,38635.611000,-5.384,10.119,-241.174,17.909,-320.953,-375.545,58.500,6.760,-1.220
106,38635.626000,-9.300,9.107,-241.174,25.754,-321.023,-376.668,49.500,12.760,2.780
107,38635.649000,-7.342,8.095,-241.174,19.841,-323.876,-372.622,41.500,16.760,5.780
108,38635.663000,-7.342,7.083,-238.208,18.870,-320.963,-374.577,30.500,1.760,6.780
109,38635.685000,-5.384,8.095,-238.208,21.841,-322.923,-375.612,27.500,-12.240,6.780
110,38635.703000,-6.363,8.095,-241.174,22.776,-321.967,-373.661,19.500,-30.240,7.780
111,38635.730000,-9.300,8.095,-241.174,18.914,-321.928,-376.546,14.500,-17.240,12.780
112,38635.748000,-8.321,9.107,-241.174,19.859,-325.811,-372.620,9.500,-20.240,18.780
113,38635.770000,-8.321,8.095,-244.139,19.902,-324.840,-375.576,8.500,-27.240,23.780
114,38635.786000,128.734,-114.340,-129.483,15.969,-318.998,-377.482,-733.500,584.760,24.780
115,38635.812000,-95.449,-89.043,-207.568,11.873,-349.946,-350.793,-423.500,-2548.240,118.780
116,38635.839000,-239.358,-24.285,-281.699,13.739,-366.423,-337.024,-102.500,-1338.240,-107.220
117,38635.842000,-106.218,4.047,-260.942,6.878,-357.651,-340.851,-104.500,1188.760,81.780
118,38635.873000,-45.522,9.107,-265.884,7.097,-334.409,-365.493,-81.500,1649.760,63.780
119,38635.910000,47.480,11.130,-254.023,11.069,-323.794,-374.436,-48.500,1872.760,35.780
120,38635.929000,76.849,67.794,-243.151,10.140,-316.039,-381.320,-185.500,879.760,29.780
121,38635.935000,-23.985,29.344,-283.676,6.193,-321.813,-376.321,-45.500,-521.240,-128.220
122,38635.951000,-59.228,12.142,-289.606,2.281,-329.520,-372.305,-12.500,-412.240,-54.220
123,38635.974000,-25.943,23.273,-267.861,7.146,-322.791,-374.368,13.500,218.760,-6.220
124,38635.994000,9.300,18.213,-250.069,5.223,-320.835,-377.290,47.500,297.760,12.780
125,38636.23000,8.321,18.213,-244.139,6.150,-322.783,-373.366,59.500,-35.240,-16.220
126,38636.31000,-11.258,19.225,-245.127,11.095,-324.760,-375.420,57.500,-161.240,-30.220
127,38636.59000,-19.090,16.190,-244.139,9.104,-324.745,-373.416,56.500,-177.240,-26.220
128,38636.76000,-14.195,16.190,-240.185,16.991,-321.909,-378.481,50.500,-42.240,-13.220
129,38636.95000,-9.300,15.178,-235.243,13.997,-328.661,-371.529,41.500,3.760,-9.220
130,38636.116000,-11.258,15.178,-238.208,14.957,-322.863,-373.522,34.500,-8.240,-13.220
131,38636.136000,-11.258,15.178,-238.208,12.983,-322.846,-372.502,23.500,10.760,-8.220
132,38636.184000,-9.300,13.154,-236.232,11.969,-320.904,-371.502,15.500,45.760,-6.220
133,38636.184000,-6.363,12.142,-238.208,11.086,-323.793,-375.421,8.500,50.760,-1.220
134,38636.204000,-5.384,13.154,-241.174,10.047,-320.884,-373.437,3.500,1.760,3.780
135,38636.213000,-7.342,13.154,-246.116,12.013,-323.805,-372.484,3.500,-20.240,4.780
136,38636.234000,186.493,407.779,-38.548,9.042,-321.844,-371.449,1.500,-50.240,8.780
137,38636.260000,21.048,-3.036,-214.486,8.093,-334.416,-366.495,-58.500,-1557.240,244.780
138,38636.278000,-101.323,-16.190,-230.301,6.997,-347.965,-352.678,-177.500,-1190.240,-37.220
139,38636.295000,-107.197,-12.142,-248.093,5.048,-345.043,-354.616,-222.500,11.760,-21.220
140,38636.318000,-46.501,30.356,-247.104,0.118,-335.321,-357.493,-167.500,786.760,-38.220
141,38636.338000,-16.153,26.308,-259.954,7.096,-330.537,-367.467,-44.500,788.760,-39.220
142,38636.359000,16.153,13.154,-267.861,2.228,-323.716,-372.311,8.500,418.760,-67.220
143,38636.385000,8.321,51.605,-263.907,1.224,-324.676,-370.323,-60.500,-52.240,-108.220
144,38636.405000,-26.922,28.332,-280.710,1.251,-327.578,-370.320,-31.500,-101.240,-72.220
145,38636.436000,-18.111,20.237,-272.803,7.147,-324.727,-373.381,6.500,125.760,-24.220
146,38636.455000,3.426,24.285,-258.965,4.167,-321.799,-372.347,34.500,141.760,-6.220
147,38636.469000,-3.426,21.249,-253.035,9.094,-321.841,-374.403,51.500,-16.240,-17.220
148,38636.491000,-7.342,20.237,-248.093,4.193,-322.765,-373.331,61.500,-44.240,-21.220
149,38636.514000,-11.258,19.225,-244.139,6.116,-324.721,-370.410,63.500,-48.240,-24.220
150,38636.539000,-14.195,18.213,-244.139,8.160,-324.734,-375.368,61.500,-13.240,-21.220
151,38636.542000,-11.258,17.202,-240.185,6.168,-322.782,-374.351,53.500,18.760,-16.220
152,38636.568000,-10.279,18.213,-235.243,4.307,-325.663,-378.252,47.500,24.760,-17.220
153,38636.589000,-8.321,16.190,-236.232,9.095,-323.777,-373.417,37.500,43.760,-18.220
154,38636.605000,-6.363,15.178,-237.220,8.081,-319.899,-373.403,26.500,42.760,-14.220
155,38636.625000,-5.384,16.190,-240.185,5.171,-318.903,-375.322,16.500,16.760,-9.220
156,38636.643000,-5.384,17.202,-241.174,8.176,-320.861,-378.326,13.500,-5.240,-2.220
157,38636.668000,-5.384,15.178,-244.139,12.030,-323.804,-373.469,10.500,-34.240,2.780
158,38636.681000,-144.398,-24.285,94.888,2.245,-321.779,-374.282,-572.500,-301.240,236.780
159,38636.709000,-23.985,-160.885,-187.799,0.103,-345.001,-351.575,-433.500,-1283.240,-52.220
160,38636.730000,-69.996,23.273,-218.440,6.954,-350.871,-348.736,-178.500,-1062.240,-70.220
161,38636.756000,-143.419,-18.213,-250.069,2.019,-353.733,-344.707,-216.500,-359.240,9.780
162,38636.779000,-78.807,28.332,-245.127,6.077,-341.177,-359.561,-183.500,870.760,-31.220
163,38636.796000,-25.943,27.320,-247.104,3.167,-338.246,-362.466,-82.500,1016.760,-5.220
164,38636.814000,-19.090,19.225,-271.815,4.246,-326.634,-374.312,41.500,858.760,-37.220
165,38636.839000,24.964,30.356,-265.884,0.314,-322.728,-375.232,-59.500,457.760,-17.220
166,38636.861000,15.174,54.640,-262.919,-3.626,-323.661,-373.192,-20.500,-156.240,-68.220
167,38636.880000,-30.837,24.285,-281.699,2.273,-328.553,-372.306,21.500,33.760,-10.220
168,38636.903000,-13.216,24.285,-267.861,4.202,-321.797,-374.317,47.500,128.760,7.780
169,38636.919000,-2.447,25.296,-256.988,-1.618,-319.805,-378.154,58.500,71.760,-3.220
170,38636.941000,-9.300,24.285,-251.058,-1.651,-323.678,-374.211,69.500,13.760,-5.220
171,38636.960000,-6.363,24.285,-245.127,9.095,-325.713,-372.430,74.500,-42.240,-10.220
172,38636.983000,-10.279,22.261,-242.162,7.155,-323.758,-374.367,75.500,-74.240,-19.220
173,38636.989000,-15.174,21.249,-241.174,5.207,-324.708,-374.331,70.500,-0.240,-18.220
174,38637.8000,-13.216,21.249,-237.220,2.271,-322.745,-375.266,60.500,52.760,-12.220
175,38637.65000,-9.300,18.213,-235.243,7.155,-323.758,-374.367,47.500,54.760,-8.220
176,38637.74000,-6.363,21.249,-235.243,10.037,-317.981,-374.425,37.500,33.760,-7.220
177,38637.88000,-6.363,19.225,-236.232,11.016,-319.925,-373.455,27.500,19.760,-3.220
178,38637.108000,-5.384,19.225,-236.232,9.094,-319.906,-375.390,21.500,10.760,-1.220
179,38637.128000,-5.384,19.225,-240.185,13.008,-321.877,-374.473,15.500,-20.240,4.780
180,38637.145000,-5.384,19.225,-242.162,10.982,-321.863,-370.499,10.500,-57.240,10.780
181,38637.164000,-12.237,19.225,-245.127,8.072,-320.867,-372.418,10.500,-55.240,15.780
182,38637.194000,467.457,516.047,-89.946,0.383,-320.788,-380.157,18.500,-31.240,16.780
183,38637.208000,13.216,-82.972,-228.324,6.095,-341.176,-360.545,555.500,-3230.240,454.780
184,38637.228000,-116.008,67.794,-221.405,-6.742,-362.361,-342.573,-162.500,-2084.240,-142.220
185,38637.250000,-197.262,-9.107,-264.896,-4.939,-368.195,-330.785,-102.500,-508.240,72.780
186,38637.268000,-123.839,21.249,-262.919,-2.854,-361.430,-341.659,-134.500,660.760,-23.220
187,38637.291000,-60.207,18.213,-280.710,-1.667,-329.487,-370.266,-49.500,2042.760,-3.220
188,38637.307000,144.398,0.000,-229.313,-8.460,-314.902,-380.992,158.500,2265.760,-3.220
189,38637.333000,66.080,98.150,-256.000,-10.426,-311.982,-381.945,-140.500,355.760,-172.220
190,38637.355000,-52.375,19.225,-296.525,0.331,-320.791,-377.203,-6.500,-870.240,-123.220
191,38637.370000,-56.291,22.261,-292.571,0.323,-323.695,-375.231,13.500,-318.240,-92.220
192,38637.393000,-20.069,31.368,-272.803,-7.496,-324.591,-375.091,56.500,222.760,-57.220
193,38637.415000,7.342,28.332,-256.000,-4.544,-320.745,-378.101,89.500,223.760,-48.220
194,38637.433000,10.279,25.296,-245.127,8.142,-322.799,-375.370,107.500,-84.240,-69.220
195,38637.455000,-10.279,25.296,-248.093,-1.652,-321.742,-375.198,109.500,-209.240,-81.220
196,38637.483000,-20.069,25.296,-246.116,4.185,-325.669,-371.359,111.500,-189.240,-79.220
197,38637.519000,-11.258,24.285,-241.174,7.190,-325.692,-375.350,111.500,-23.240,-62.220
198,38637.528000,-8.321,21.249,-242.162,7.147,-324.727,-373.381,106.500,6.760,-44.220
199,38637.536000,-19.090,21.249,-250.069,9.086,-322.810,-373.418,104.500,-12.240,-49.220
200,38637.559000,-29.859,19.225,-266.873,18.897,-325.801,-373.588,113.500,67.760,-47.220
201,38637.581000,-22.027,24.285,-290.595,16.040,-324.802,-378.461,132.500,117.760,-59.220
202,38637.605000,-23.006,27.320,-303.444,18.905,-322.897,-375.560,210.500,-8.240,-105.220
203,38637.619000,-38.669,28.332,-312.340,24.742,-324.888,-372.708,307.500,-116.240,-174.220
204,38637.650000,-45.522,32.379,-317.282,22.820,-324.868,-374.643,357.500,-100.240,-204.220
205,38637.665000,-30.837,35.415,-311.351,32.561,-323.992,-372.847,472.500,-12.240,-245.220
206,38637.674000,-25.943,27.320,-308.386,39.436,-323.085,-374.939,569.500,-56.240,-266.220
207,38637.696000,-23.006,29.344,-301.467,52.106,-327.075,-370.236,647.500,-89.240,-276.220
208,38637.719000,-23.006,21.249,-299.490,59.917,-327.147,-369.390,732.500,-146.240,-288.220
209,38637.741000,-27.901,16.190,-299.490,77.461,-331.182,-363.789,815.500,-145.240,-293.220
210,38637.764000,-23.006,12.142,-309.375,93.144,-334.227,-364.063,900.500,-134.240,-304.220
211,38637.781000,-20.069,15.178,-315.305,96.849,-328.467,-355.275,1011.500,-175.240,-337.220
212,38637.808000,-30.837,8.095,-317.282,115.442,-336.379,-351.657,1075.500,-164.240,-346.220
213,38637.823000,-24.964,4.047,-311.351,129.070,-330.700,-350.920,1186.500,-57.240,-334.220
214,38637.851000,-17.132,1.012,-299.490,145.566,-330.859,-343.336,1295.500,-30.240,-323.220
215,38637.869000,-17.132,-1.012,-291.583,163.137,-335.861,-338.719,1388.500,-40.240,-320.220
216,38637.891000,-18.111,-8.095,-278.734,179.572,-335.056,-328.182,1473.500,-13.240,-310.220
217,38637.914000,-14.195,-14.166,-267.861,193.122,-328.414,-323.507,1529.500,25.760,-305.220
218,38637.929000,-12.237,-23.273,-255.012,211.532,-329.561,-313.002,1581.500,48.760,-298.220
219,38637.966000,-4.405,-29.344,-239.197,241.632,-328.882,-300.738,1617.500,107.760,-274.220
220,38637.980000,9.300,-43.510,-229.313,248.351,-327.983,-293.966,1630.500,36.760,-242.220
221,38637.994000,8.321,-58.688,-220.417,269.610,-329.162,-278.590,1636.500,-17.240,-232.220
222,38638.3000,7.342,-68.806,-210.533,279.204,-327.326,-268.917,1628.500,-72.240,-205.220
223,38638.28000,3.426,-80.949,-207.568,298.497,-329.455,-252.520,1618.500,-89.240,-193.220
224,38638.50000,9.300,-91.067,-202.625,304.204,-328.550,-243.762,1606.500,-45.240,-170.220
225,38638.68000,13.216,-102.198,-199.660,320.509,-326.784,-226.333,1593.500,-103.240,-149.220
226,38638.89000,14.195,-113.328,-195.707,335.741,-327.918,-201.989,1599.500,-189.240,-134.220
227,38638.110000,7.342,-122.435,-187.799,345.328,-330.922,-189.358,1600.500,-210.240,-126.220
228,38638.138000,5.384,-128.506,-179.892,354.714,-329.098,-167.868,1607.500,-119.240,-102.220
229,38638.153000,12.237,-133.565,-167.042,362.387,-331.114,-158.157,1601.500,-102.240,-66.220
230,38638.173000,17.132,-142.672,-155.181,376.623,-330.304,-133.798,1572.500,-129.240,-51.220
231,38638.195000,19.090,-148.743,-145.297,380.382,-334.220,-123.031,1558.500,-172.240,-15.220
232,38638.218000,13.216,-160.885,-136.402,384.807,-332.355,-97.516,1534.500,-190.240,24.780
233,38638.240000,0.489,-171.004,-128.494,383.665,-337.195,-85.677,1516.500,-47.240,66.780
234,38638.256000,-1.468,-181.123,-109.714,395.123,-340.221,-68.156,1491.500,234.760,114.780
235,38638.278000,13.216,-186.182,-97.853,393.798,-340.232,-48.443,1442.500,364.760,168.780
236,38638.298000,11.258,-194.277,-87.969,394.707,-340.245,-44.521,1394.500,455.760,231.780
237,38638.320000,10.279,-197.312,-76.108,392.482,-341.210,-28.730,1329.500,606.760,289.780
238,38638.343000,17.132,-199.336,-69.189,396.387,-340.278,-28.800,1299.500,665.760,317.780
239,38638.365000,25.943,-205.407,-52.386,395.273,-348.020,-16.957,1231.500,738.760,397.780
240,38638.398000,35.732,-213.502,-39.537,384.458,-349.861,-12.826,1134.500,709.760,491.780
241,38638.426000,37.690,-213.502,-34.595,382.469,-359.524,-5.888,1034.500,668.760,603.780
242,38638.429000,38.669,-217.549,-25.699,369.777,-370.054,-1.714,939.500,708.760,759.780
243,38638.448000,39.648,-226.656,-14.826,369.761,-375.862,2.231,813.500,692.760,891.780
244,38638.463000,33.774,-235.763,-8.896,357.190,-386.385,-0.488,698.500,703.760,1008.780
245,38638.485000,31.816,-235.763,-4.942,346.481,-394.027,0.695,598.500,768.760,1129.780
246,38638.510000,35.732,-227.668,0.000,330.067,-410.318,-2.933,562.500,771.760,1288.780
247,38638.533000,32.795,-236.775,9.884,318.464,-414.075,-8.630,461.500,738.760,1372.780
248,38638.546000,27.901,-231.715,23.722,298.190,-434.199,-13.170,327.500,753.760,1541.780
249,38638.570000,23.985,-224.632,30.641,285.696,-441.814,-21.800,166.500,809.760,1725.780
250,38638.588000,18.111,-210.466,36.571,259.661,-457.038,-35.104,-12.500,917.760,1926.780
251,38638.610000,11.258,-199.336,40.525,221.954,-472.152,-52.139,-234.500,976.760,2092.780
252,38638.633000,-26.922,-176.063,18.780,195.761,-475.771,-62.501,-419.500,1010.760,2180.780
253,38638.656000,-52.375,-155.826,14.826,156.173,-487.959,-85.413,-563.500,1184.760,2275.780
254,38638.663000,-50.417,-141.660,-3.954,141.765,-492.650,-97.950,-735.500,1335.760,2318.780
255,38638.690000,-65.101,-126.482,-10.873,95.213,-492.199,-120.754,-805.500,1291.760,2320.780
256,38638.713000,-73.912,-99.162,-15.815,74.916,-494.902,-133.190,-964.500,1191.760,2316.780
257,38638.730000,-86.639,-77.913,-18.780,32.286,-493.519,-157.049,-1133.500,1220.760,2327.780
258,38638.753000,-107.197,-67.794,-43.490,-12.442,-482.446,-177.928,-1321.500,1310.760,2231.780
259,38638.770000,-95.449,-50.593,-68.201,-28.878,-477.445,-191.426,-1462.500,1489.760,2101.780
260,38638.793000,-114.050,-28.332,-78.085,-73.643,-458.631,-214.282,-1546.500,1532.760,2043.780
261,38638.824000,-131.671,-25.296,-81.050,-92.106,-451.680,-224.793,-1642.500,1666.760,1933.780
262,38638.854000,-112.092,-9.107,-101.807,-136.993,-427.066,-243.717,-1804.500,1946.760,1750.780
263,38638.868000,-96.428,25.296,-140.355,-161.372,-413.288,-255.115,-1908.500,1945.760,1587.780
264,38638.881000,-130.692,33.391,-145.297,-192.751,-386.874,-264.435,-1887.500,1702.760,1510.780
265,38638.899000,-132.650,40.474,-149.251,-205.441,-373.205,-273.087,-1945.500,1948.760,1317.780
266,38638.913000,-95.449,64.759,-182.857,-241.731,-339.004,-285.283,-2114.500,2258.760,1077.780
267,38638.935000,-77.828,91.067,-195.707,-271.301,-309.713,-287.747,-2214.500,2080.760,890.780
268,38638.953000,-92.512,113.328,-171.985,-284.041,-299.919,-291.471,-2298.500,2050.760,708.780
269,38638.969000,-55.312,136.601,-210.533,-310.857,-271.632,-283.154,-2498.500,2117.760,552.780
270,38638.986000,-26.922,147.731,-244.139,-326.620,-257.945,-283.876,-2415.500,1547.760,486.780
271,38639.14000,-89.576,151.779,-240.185,-349.616,-234.538,-267.745,-2211.500,1122.760,412.780
272,38639.37000,-126.776,165.945,-203.614,-357.585,-224.796,-264.662,-2155.500,1387.760,376.780
273,38639.59000,-29.859,195.289,-200.649,-377.594,-195.605,-254.498,-2230.500,2208.760,363.780
274,38639.79000,45.522,220.585,-189.776,-397.618,-179.967,-236.441,-2290.500,1781.760,285.780
275,38639.102000,-28.880,233.739,-194.718,-409.620,-176.003,-223.436,-2345.500,671.760,53.780
276,38639.115000,-97.407,243.858,-192.741,-426.716,-165.231,-202.472,-2434.500,869.760,-187.220
277,38639.138000,-27.901,277.249,-174.950,-434.839,-159.369,-188.553,-2576.500,1661.760,-444.220
278,38639.166000,27.901,314.688,-185.822,-443.144,-156.421,-162.814,-2661.500,1461.760,-714.220
279,38639.190000,12.237,318.735,-194.718,-448.305,-155.423,-147.957,-2679.500,1113.760,-856.220
280,38639.210000,-20.069,328.854,-209.544,-453.620,-158.306,-122.264,-2625.500,1136.760,-1028.220
281,38639.225000,-23.006,342.008,-226.347,-461.673,-158.248,-109.323,-2586.500,1589.760,-1111.220
282,38639.253000,4.405,350.103,-240.185,-463.022,-163.100,-85.667,-2494.500,2048.760,-1280.220
283,38639.266000,25.943,364.269,-227.336,-465.175,-175.676,-67.894,-2311.500,2222.760,-1383.220
284,38639.304000,51.396,367.304,-207.568,-452.567,-176.765,-61.225,-2107.500,2039.760,-1435.220
285,38639.304000,63.143,358.198,-203.614,-462.408,-193.134,-49.218,-1891.500,1701.760,-1629.220
286,38639.326000,12.237,336.949,-203.614,-455.547,-205.778,-43.418,-1568.500,1844.760,-1795.220
287,38639.349000,21.048,317.723,-178.903,-446.616,-219.402,-43.560,-1308.500,2247.760,-1798.220
288,38639.371000,45.522,302.545,-163.089,-442.657,-228.146,-41.651,-1076.500,2111.760,-1815.220
289,38639.394000,37.690,297.486,-163.089,-427.706,-246.655,-47.800,-997.500,1965.760,-1809.220
290,38639.414000,19.090,306.593,-157.158,-412.791,-263.229,-52.967,-815.500,1844.760,-1842.220
291,38639.435000,-2.447,325.818,-151.228,-410.677,-270.981,-57.918,-669.500,2002.760,-1903.220
292,38639.452000,3.426,335.937,-143.320,-397.563,-287.529,-71.913,-537.500,2165.760,-1886.220
293,38639.469000,3.426,332.901,-157.158,-394.400,-295.286,-80.820,-408.500,1978.760,-1977.220
294,38639.494000,-34.753,338.972,-169.019,-371.415,-313.854,-98.925,-238.500,2048.760,-2087.220
295,38639.516000,-24.964,347.067,-163.089,-360.425,-317.811,-109.944,-37.500,2186.760,-2128.220
296,38639.539000,-14.195,345.043,-159.135,-342.229,-334.392,-134.857,186.500,1995.760,-2149.220
297,38639.556000,-28.880,331.889,-162.100,-333.196,-340.267,-144.855,405.500,1937.760,-2150.220
298,38639.574000,-31.816,331.889,-167.042,-305.216,-349.195,-173.889,508.500,2000.760,-2155.220
299,38639.591000,-2.447,327.842,-166.054,-276.190,-354.255,-208.852,671.500,1987.760,-2122.220
300,38639.614000,8.321,317.723,-164.077,-262.343,-357.275,-215.985,815.500,1539.760,-2083.220
301,38639.638000,-7.342,303.557,-163.089,-229.594,-360.447,-241.172,918.500,1379.760,-2023.220
302,38639.651000,1.468,286.356,-161.112,-216.656,-363.454,-252.226,981.500,1421.760,-1926.220
303,38639.676000,40.627,271.178,-161.112,-183.068,-360.835,-272.513,1005.500,996.760,-1823.220
304,38639.696000,15.174,256.000,-172.973,-168.225,-367.734,-278.674,1046.500,663.760,-1732.220
305,38639.714000,-8.321,247.905,-185.822,-144.465,-365.996,-295.832,1125.500,679.760,-1632.220
306,38639.739000,-24.964,250.941,-207.568,-109.914,-369.194,-312.191,1189.500,678.760,-1578.220
307,38639.756000,-44.543,246.893,-209.544,-91.333,-360.653,-316.467,1349.500,717.760,-1454.220
308,38639.776000,-58.249,230.704,-212.510,-60.785,-356.077,-331.780,1427.500,889.760,-1333.220
309,38639.802000,-42.585,225.644,-218.440,-39.181,-353.365,-338.072,1532.500,745.760,-1228.220
310,38639.830000,-65.101,209.455,-214.486,-5.809,-351.726,-345.556,1630.500,506.760,-1198.220
311,38639.844000,-113.071,201.360,-220.417,8.926,-341.209,-354.689,1729.500,962.760,-1182.220
312,38639.876000,-85.660,185.170,-211.521,44.209,-328.943,-365.172,1776.500,1183.760,-1148.220
313,38639.895000,-61.185,173.028,-207.568,70.591,-319.506,-368.603,1789.500,1068.760,-1103.220
314,38639.909000,-47.480,156.838,-209.544,109.745,-304.375,-378.174,1752.500,865.760,-1041.220
315,38639.926000,-36.711,139.636,-223.382,145.816,-292.129,-377.842,1747.500,688.760,-1037.220
316,38639.943000,-59.228,133.565,-237.220,155.495,-284.481,-376.053,1789.500,583.760,-1049.220
317,38639.972000,-62.164,123.447,-240.185,188.579,-274.147,-371.728,1807.500,700.760,-970.220
318,38639.984000,-45.522,109.281,-246.116,206.995,-262.711,-368.130,1832.500,562.760,-905.220
319,38640.6000,-44.543,97.138,-252.046,243.950,-253.383,-360.919,1869.500,441.760,-881.220
320,38640.29000,-53.354,92.079,-248.093,261.370,-245.810,-354.345,1908.500,511.760,-822.220
321,38640.45000,-38.669,63.747,-238.208,294.290,-232.582,-342.145,1920.500,555.760,-740.220
322,38640.65000,-29.859,52.617,-236.232,323.121,-213.520,-322.988,1931.500,468.760,-661.220
323,38640.86000,-42.585,38.451,-233.266,335.676,-212.677,-314.351,1951.500,386.760,-598.220
324,38640.109000,-47.480,24.285,-244.139,364.569,-200.387,-295.187,1971.500,391.760,-574.220
325,38640.129000,-38.669,12.142,-260.942,385.766,-194.794,-279.818,1980.500,534.760,-521.220
326,38640.151000,-50.417,5.059,-270.826,410.675,-180.537,-257.633,2040.500,527.760,-516.220
327,38640.169000,-51.396,-2.024,-256.000,418.138,-174.821,-240.051,2151.500,765.760,-516.220
328,38640.196000,-23.006,-17.202,-243.151,444.000,-157.671,-217.887,2224.500,1056.760,-408.220
329,38640.216000,10.279,-31.368,-221.405,456.994,-141.381,-186.633,2272.500,1062.760,-272.220
330,38640.231000,-4.405,-47.557,-210.533,475.255,-135.761,-171.211,2294.500,868.760,-187.220
331,38640.254000,4.405,-57.676,-191.753,489.178,-131.097,-131.101,2306.500,1060.760,-105.220
332,38640.276000,23.006,-68.806,-163.089,503.534,-124.473,-116.595,2307.500,1125.760,-54.220
333,38640.324000,33.774,-82.972,-150.239,510.686,-120.711,-80.302,2259.500,1088.760,60.780
334,38640.338000,43.564,-96.126,-129.483,511.371,-122.672,-62.591,2203.500,1052.760,214.780
335,38640.338000,40.627,-108.269,-117.622,512.724,-128.532,-25.199,2135.500,958.760,340.780
336,38640.355000,23.006,-122.435,-109.714,523.227,-126.708,-11.605,2075.500,974.760,450.780
337,38640.370000,23.006,-133.565,-98.842,514.882,-134.410,22.023,2002.500,1131.760,549.780
338,38640.395000,18.111,-151.779,-87.969,512.530,-146.029,50.628,1916.500,1256.760,643.780
339,38640.413000,20.069,-163.921,-69.189,514.264,-151.867,66.355,1805.500,1405.760,718.780
340,38640.435000,20.069,-168.980,-56.340,506.215,-169.230,88.176,1677.500,1465.760,795.780
341,38640.455000,13.216,-179.099,-45.467,499.299,-176.915,96.183,1615.500,1614.760,838.780
342,38640.483000,25.943,-186.182,-36.571,483.587,-195.166,109.280,1473.500,1930.760,926.780
343,38640.500000,41.606,-194.277,-24.710,489.557,-211.668,112.147,1329.500,2134.760,1037.780
344,38640.518000,50.417,-195.289,-15.815,471.163,-236.654,114.471,1184.500,2148.760,1182.780
345,38640.540000,47.480,-202.372,-4.942,459.670,-265.570,115.692,1040.500,2057.760,1365.780
346,38640.558000,57.270,-207.431,8.896,440.277,-280.868,114.084,877.500,1931.760,1578.780
347,38640.580000,50.417,-214.514,18.780,423.061,-310.691,107.533,675.500,1541.760,1718.780
348,38640.608000,28.880,-213.502,14.826,411.505,-325.092,104.801,475.500,1254.760,1738.780
349,38640.614000,11.258,-203.383,6.919,394.340,-352.976,94.308,391.500,1200.760,1742.780
350,38640.633000,9.300,-192.253,0.988,377.934,-364.427,87.721,255.500,1187.760,1822.780
351,38640.658000,18.111,-168.980,-13.838,352.985,-391.269,74.411,180.500,1106.760,1970.780
352,38640.680000,-13.216,-164.933,-38.548,332.691,-407.522,68.882,199.500,1032.760,2233.780
353,38640.703000,-23.006,-175.051,-37.560,297.991,-434.274,53.776,223.500,1198.760,2557.780
354,38640.725000,-61.185,-189.217,-36.571,253.593,-460.931,33.920,118.500,1291.760,2611.780
355,38640.763000,-73.912,-172.016,-63.259,236.303,-471.400,21.440,78.500,1576.760,2563.780
356,38640.776000,-73.912,-147.731,-62.270,189.011,-491.253,-4.280,105.500,1606.760,2619.780
357,38640.815000,-91.533,-147.731,-30.641,165.815,-497.799,-16.660,-15.500,1407.760,2660.780
358,38640.819000,-107.197,-168.980,-27.676,125.257,-507.074,-41.528,-147.500,1329.760,2555.780
359,38640.831000,-108.176,-128.506,-55.351,103.937,-506.867,-52.964,-311.500,1286.760,2328.780
360,38640.851000,-139.503,-116.364,-46.456,66.297,-512.298,-78.872,-359.500,1286.760,2245.780
361,38640.874000,-130.692,-125.470,-29.653,24.575,-507.056,-100.782,-587.500,1365.760,2138.780
362,38640.896000,-124.818,-95.115,-39.537,11.145,-507.884,-115.311,-738.500,1313.760,1929.780
363,38640.911000,-152.229,-84.996,-56.340,-22.769,-493.035,-141.308,-857.500,1585.760,1814.780
364,38640.934000,-137.545,-92.079,-59.305,-43.093,-490.900,-154.734,-1079.500,1691.760,1700.780
365,38640.963000,-121.881,-62.735,-62.270,-75.066,-478.005,-178.794,-1186.500,1538.760,1527.780
366,38640.971000,-140.482,-39.462,-72.154,-86.637,-470.146,-192.381,-1220.500,1662.760,1455.780
367,38640.993000,-123.839,-44.522,-104.772,-123.636,-442.696,-216.370,-1391.500,1868.760,1446.780
368,38641.13000,-111.113,-26.308,-100.819,-137.188,-441.595,-224.992,-1530.500,1652.760,1410.780
369,38641.34000,-127.755,-4.047,-104.772,-161.579,-417.171,-241.324,-1627.500,1679.760,1238.780
370,38641.56000,-116.008,-9.107,-101.807,-194.777,-388.795,-259.475,-1913.500,2088.760,1123.780
371,38641.81000,-66.080,9.107,-152.216,-204.651,-379.032,-259.312,-2111.500,1515.760,995.780
372,38641.97000,-103.281,42.498,-157.158,-243.977,-358.361,-258.640,-2133.500,1197.760,877.780
373,38641.121000,-133.629,56.664,-163.089,-251.774,-346.673,-266.391,-2305.500,1710.760,715.780
374,38641.143000,-90.554,79.937,-190.764,-278.398,-324.183,-265.947,-2408.500,1694.760,617.780
375,38641.165000,-61.185,97.138,-228.324,-298.126,-312.399,-262.658,-2397.500,1394.760,576.780
376,38641.179000,-104.260,118.387,-233.266,-317.952,-293.845,-257.407,-2281.500,1305.760,478.780
377,38641.206000,-113.071,133.565,-228.324,-340.679,-269.455,-257.033,-2279.500,1995.760,382.780
378,38641.234000,-46.501,143.684,-221.405,-349.749,-253.904,-250.000,-2307.500,2166.760,348.780
379,38641.248000,-13.216,163.921,-232.278,-371.636,-233.402,-239.792,-2209.500,1561.760,269.780
380,38641.261000,-45.522,175.051,-216.463,-376.651,-227.557,-235.772,-2182.500,1606.760,168.780
381,38641.285000,-46.501,193.265,-215.475,-392.666,-209.045,-224.682,-2199.500,1784.760,45.780
382,38641.305000,-11.258,194.277,-221.405,-405.640,-198.297,-215.604,-2230.500,1514.760,-52.220
383,38641.323000,2.447,205.407,-215.475,-418.769,-189.493,-196.678,-2263.500,1313.760,-313.220
384,38641.343000,-33.774,240.822,-208.556,-422.927,-183.663,-185.782,-2313.500,1509.760,-428.220
385,38641.365000,-10.279,283.320,-197.683,-434.056,-173.907,-169.845,-2374.500,1777.760,-646.220
386,38641.388000,16.153,301.534,-184.834,-445.244,-172.865,-146.022,-2455.500,1612.760,-828.220
387,38641.405000,3.426,301.534,-220.417,-451.321,-176.695,-132.127,-2511.500,1613.760,-1034.220
388,38641.425000,-0.489,313.676,-246.116,-449.666,-179.634,-113.449,-2390.500,1765.760,-1226.220
389,38641.450000,-27.901,329.866,-255.012,-452.731,-180.582,-105.518,-2044.500,2153.760,-1322.220
390,38641.473000,17.132,330.877,-225.359,-452.737,-191.230,-99.598,-1769.500,2604.760,-1446.220
391,38641.493000,40.627,325.818,-226.347,-442.951,-195.190,-97.798,-1498.500,2230.760,-1580.220
392,38641.509000,-6.363,309.628,-203.614,-445.927,-205.813,-89.857,-1337.500,1883.760,-1638.220
393,38641.528000,-38.669,297.486,-177.915,-433.013,-219.468,-94.008,-1001.500,1641.760,-1802.220
394,38641.544000,-6.363,300.522,-173.961,-434.829,-229.121,-96.917,-845.500,2005.760,-1887.220
395,38641.570000,27.901,317.723,-169.019,-420.971,-244.723,-98.129,-799.500,1924.760,-1924.220
396,38641.598000,-16.153,327.842,-163.089,-416.960,-251.529,-100.161,-676.500,1376.760,-2121.220
397,38641.611000,-61.185,337.960,-163.089,-400.944,-273.913,-109.278,-545.500,1531.760,-2292.220
398,38641.640000,-49.438,353.138,-168.031,-389.893,-282.706,-121.277,-402.500,2229.760,-2364.220
399,38641.664000,-16.153,360.221,-172.973,-369.843,-297.375,-141.303,-184.500,2617.760,-2417.220
400,38641.674000,-22.027,360.221,-174.950,-358.767,-301.327,-157.246,94.500,2561.760,-2459.220
401,38641.696000,-29.859,355.162,-170.008,-342.564,-310.150,-184.103,234.500,2576.760,-2451.220
402,38641.714000,-15.174,356.174,-174.950,-310.654,-317.176,-215.177,468.500,2560.760,-2429.220
403,38641.731000,-28.880,350.103,-197.683,-293.647,-320.210,-235.163,707.500,2232.760,-2425.220
404,38641.759000,-55.312,345.043,-202.625,-255.988,-321.489,-262.408,982.500,2087.760,-2434.220
405,38641.789000,-34.753,356.174,-210.533,-244.904,-322.537,-280.323,1184.500,2214.760,-2412.220
406,38641.804000,-12.237,356.174,-216.463,-198.414,-320.991,-310.681,1386.500,1877.760,-2394.220
407,38641.824000,-39.648,340.996,-232.278,-187.462,-315.271,-324.664,1553.500,1340.760,-2430.220
408,38641.842000,-39.648,332.901,-237.220,-136.182,-315.711,-348.213,1646.500,1251.760,-2420.220
409,38641.863000,-23.006,330.877,-253.035,-85.969,-312.276,-368.795,1751.500,1143.760,-2408.220
410,38641.878000,-43.564,316.711,-266.873,-63.377,-312.475,-374.117,1825.500,773.760,-2406.220
411,38641.899000,-50.417,309.628,-270.826,-11.398,-305.197,-385.874,1965.500,732.760,-2393.220
412,38641.921000,-24.964,296.474,-278.734,13.080,-299.611,-390.251,2107.500,792.760,-2306.220
413,38641.950000,-23.985,283.320,-274.780,63.907,-286.526,-395.104,2274.500,690.760,-2224.220
414,38641.954000,-21.048,274.213,-280.710,98.091,-278.130,-396.703,2393.500,795.760,-2114.220
415,38641.982000,4.405,260.047,-271.815,150.699,-255.394,-396.676,2525.500,847.760,-1960.220
416,38641.999000,9.300,238.798,-266.873,207.108,-231.731,-390.810,2640.500,793.760,-1802.220
417,38642.16000,17.132,213.502,-265.884,234.270,-223.283,-382.441,2771.500,787.760,-1600.220
418,38642.39000,10.279,184.158,-258.965,289.483,-196.720,-365.728,2839.500,803.760,-1419.220
419,38642.75000,17.132,164.933,-247.104,309.664,-179.505,-354.292,2940.500,1047.760,-1336.220
420,38642.104000,28.880,146.719,-232.278,366.661,-151.034,-328.754,3038.500,1384.760,-1098.220
421,38642.113000,42.585,127.494,-222.394,382.885,-136.690,-313.306,3098.500,1657.760,-840.220
422,38642.121000,58.249,101.186,-201.637,427.949,-106.188,-277.714,3135.500,1909.760,-548.220
423,38642.145000,82.723,67.794,-172.973,433.280,-92.721,-254.198,3112.500,1928.760,-261.220
424,38642.166000,83.702,40.474,-153.205,467.662,-72.763,-217.420,3055.500,1858.760,52.780
425,38642.189000,67.059,18.213,-130.471,489.256,-62.372,-171.545,2986.500,2049.760,364.780
426,38642.206000,91.533,-6.071,-105.761,502.540,-62.519,-148.153,2849.500,2205.760,677.780
427,38642.224000,123.839,-27.320,-92.911,517.400,-64.642,-102.144,2768.500,2156.760,815.780
428,38642.251000,108.176,-39.462,-75.120,525.940,-71.513,-83.582,2610.500,2054.760,1076.780
429,38642.269000,88.597,-64.759,-59.305,527.365,-88.983,-44.209,2408.500,2231.760,1351.780
430,38642.291000,79.786,-84.996,-43.490,522.328,-99.594,-30.325,2192.500,2421.760,1600.780
431,38642.314000,78.807,-104.221,-40.525,520.206,-128.622,-5.642,1960.500,2638.760,1808.780
432,38642.332000,68.038,-124.459,-32.618,508.429,-160.458,13.308,1696.500,2850.760,1968.780
433,38642.354000,74.891,-140.648,-20.757,508.615,-178.838,12.342,1404.500,2794.760,2099.780
434,38642.371000,69.996,-146.719,-26.687,484.423,-219.252,18.724,1141.500,2639.760,2232.780
435,38642.389000,63.143,-155.826,-21.745,475.916,-240.449,12.992,840.500,2568.760,2413.780
436,38642.418000,69.996,-154.814,-20.757,453.939,-278.931,3.582,688.500,2344.760,2497.780
437,38642.433000,56.291,-153.802,-24.710,440.444,-295.250,0.886,452.500,1702.760,2616.780
438,38642.460000,36.711,-145.708,-21.745,407.775,-341.373,-8.326,280.500,1088.760,2678.780
439,38642.478000,26.922,-116.364,-18.780,398.159,-357.729,-9.122,198.500,655.760,2755.780
440,38642.500000,-14.195,-110.292,-23.722,355.521,-393.126,-13.248,131.500,467.760,2871.780
441,38642.518000,-68.038,-127.494,-27.676,314.933,-419.825,-27.265,-7.500,675.760,2928.780
442,38642.538000,-59.228,-125.470,-39.537,288.752,-437.962,-30.719,-61.500,790.760,2918.780
443,38642.560000,-55.312,-114.340,-31.629,243.254,-464.617,-43.665,-161.500,799.760,2897.780
444,38642.580000,-85.660,-133.565,-14.826,219.996,-470.198,-53.091,-290.500,770.760,2668.780
445,38642.595000,-85.660,-134.577,-50.409,178.331,-482.376,-69.076,-533.500,701.760,2564.780
446,38642.610000,-111.113,-112.316,-74.131,154.087,-490.852,-76.513,-575.500,739.760,2492.780
447,38642.635000,-134.608,-97.138,-70.178,108.550,-500.087,-96.370,-570.500,1120.760,2495.780
448,38642.659000,-152.229,-100.174,-59.305,74.874,-499.744,-128.261,-716.500,1613.760,2363.780
449,38642.681000,-106.218,-99.162,-91.923,45.717,-494.626,-141.534,-836.500,1480.760,2213.780
450,38642.704000,-107.197,-66.783,-111.691,7.909,-487.484,-164.500,-823.500,1375.760,2193.780
451,38642.734000,-139.503,-59.700,-97.853,-11.507,-479.554,-176.964,-932.500,1739.760,2205.780
452,38642.744000,-116.008,-71.842,-95.876,-52.183,-468.510,-205.791,-1111.500,1670.760,2150.780
453,38642.764000,-85.660,-65.771,-109.714,-80.518,-457.602,-213.178,-1178.500,1412.760,2079.780
454,38642.790000,-118.945,-32.379,-126.517,-117.549,-441.769,-229.277,-1188.500,1207.760,1975.780
455,38642.813000,-133.629,-19.225,-128.494,-133.133,-419.361,-244.778,-1321.500,1537.760,1923.780
456,38642.828000,-82.723,27.320,-155.181,-168.327,-407.424,-252.045,-1433.500,1436.760,1801.780
457,38642.850000,-121.881,47.557,-168.031,-203.584,-386.780,-260.306,-1487.500,1288.760,1696.780
458,38642.868000,-115.029,42.498,-151.228,-218.239,-374.062,-267.937,-1566.500,1697.760,1577.780
459,38642.891000,-58.249,58.688,-164.077,-248.658,-341.850,-279.250,-1828.500,2028.760,1391.780
460,38642.927000,-73.912,95.115,-177.915,-270.353,-325.210,-277.901,-1925.500,1557.760,1232.780
461,38642.940000,-118.945,106.245,-190.764,-292.059,-301.794,-279.513,-1965.500,1359.760,1174.780
462,38642.958000,-106.218,111.304,-192.741,-303.969,-287.178,-277.351,-2015.500,1445.760,1085.780
463,38642.967000,-73.912,140.648,-214.486,-330.810,-259.861,-267.063,-2213.500,1601.760,891.780
464,38642.987000,-102.302,175.051,-233.266,-361.529,-240.248,-254.729,-2265.500,1175.760,768.780
465,38643.6000,-134.608,182.134,-216.463,-375.446,-231.425,-246.618,-2142.500,995.760,707.780
466,38643.38000,-98.386,196.300,-194.718,-392.537,-208.070,-232.561,-2162.500,1435.760,524.780
467,38643.61000,-43.564,218.561,-217.452,-404.540,-198.299,-222.515,-2299.500,1621.760,244.780
468,38643.84000,-34.753,221.597,-242.162,-415.757,-186.611,-202.641,-2380.500,1223.760,2.780
469,38643.99000,-61.185,223.621,-239.197,-423.785,-181.712,-193.645,-2401.500,928.760,-264.220
470,38643.115000,-76.849,245.881,-239.197,-434.021,-175.841,-170.828,-2426.500,1026.760,-397.220
471,38643.137000,-47.480,275.225,-247.104,-446.275,-170.924,-144.037,-2444.500,1397.760,-558.220
472,38643.163000,-16.153,285.344,-255.012,-444.420,-174.819,-136.190,-2381.500,1323.760,-678.220
473,38643.195000,-65.101,283.320,-277.745,-457.591,-174.728,-110.361,-2259.500,1063.760,-935.220
474,38643.209000,-85.660,292.427,-270.826,-450.827,-176.731,-104.571,-2064.500,1486.760,-1062.220
475,38643.223000,-34.753,294.451,-258.965,-452.003,-185.445,-88.789,-1865.500,1901.760,-1164.220
476,38643.231000,-34.753,289.391,-255.012,-455.941,-190.250,-84.776,-1664.500,1798.760,-1421.220
477,38643.260000,-35.732,289.391,-240.185,-449.106,-201.928,-77.992,-1472.500,1780.760,-1502.220
478,38643.274000,-16.153,294.451,-226.347,-452.993,-204.795,-77.920,-1282.500,1538.760,-1567.220
479,38643.294000,-44.543,295.462,-229.313,-440.138,-225.229,-75.170,-1168.500,1426.760,-1657.220
480,38643.321000,-56.291,284.332,-214.486,-437.070,-237.831,-76.194,-939.500,1668.760,-1817.220
481,38643.339000,-27.901,296.474,-203.614,-425.144,-246.638,-82.302,-793.500,1955.760,-1885.220
482,38643.361000,1.468,309.628,-202.625,-412.151,-265.129,-88.417,-644.500,1723.760,-1908.220
483,38643.379000,-41.606,307.605,-220.417,-401.203,-275.863,-93.520,-507.500,1447.760,-2059.220
484,38643.404000,-57.270,307.605,-221.405,-394.020,-293.329,-103.471,-312.500,1700.760,-2128.220
485,38643.424000,-48.459,313.676,-201.637,-384.035,-300.182,-111.515,-68.500,1808.760,-2141.220
486,38643.449000,-39.648,310.640,-190.764,-361.014,-318.748,-131.590,115.500,1699.760,-2193.220
487,38643.463000,-42.585,307.605,-193.730,-343.858,-330.484,-155.507,250.500,1640.760,-2310.220
488,38643.485000,-47.480,309.628,-195.707,-323.982,-341.292,-167.659,334.500,1617.760,-2353.220
489,38643.514000,-46.501,303.557,-186.811,-296.036,-354.093,-192.750,487.500,1692.760,-2402.220
490,38643.528000,-26.922,291.415,-179.892,-285.039,-355.146,-205.741,585.500,1624.760,-2427.220
491,38643.549000,-17.132,291.415,-197.683,-251.361,-366.072,-224.044,619.500,1237.760,-2466.220
492,38643.564000,-42.585,289.391,-215.475,-229.599,-374.966,-233.279,694.500,965.760,-2469.220
493,38643.582000,-44.543,277.249,-227.336,-192.060,-380.123,-251.657,749.500,816.760,-2476.220
494,38643.604000,-41.606,273.202,-251.058,-178.195,-387.014,-257.801,836.500,470.760,-2511.220
495,38643.626000,-58.249,273.202,-267.861,-137.841,-396.076,-267.365,962.500,344.760,-2508.220
496,38643.649000,-61.185,264.095,-272.803,-91.669,-401.324,-276.051,1014.500,346.760,-2493.220
497,38643.665000,-45.522,258.024,-283.676,-72.003,-404.400,-280.333,1123.500,226.760,-2454.220
498,38643.692000,-61.185,254.988,-287.629,-25.009,-405.794,-282.148,1273.500,41.760,-2412.220
499,38643.709000,-74.891,244.870,-284.664,5.358,-406.067,-284.653,1434.500,163.760,-2332.220
500,38643.734000,-59.228,227.668,-274.780,52.351,-403.589,-288.441,1572.500,241.760,-2222.220
501,38643.754000,-48.459,209.455,-268.849,69.886,-402.786,-284.815,1673.500,31.760,-2145.220
502,38643.774000,-68.038,198.324,-266.873,125.511,-396.526,-280.884,1778.500,-3.240,-2082.220
503,38643.795000,-73.912,183.146,-258.965,176.165,-385.387,-274.902,1860.500,144.760,-2024.220
504,38643.813000,-68.038,159.874,-248.093,191.628,-375.861,-269.280,1902.500,180.760,-1984.220
505,38643.833000,-62.164,145.708,-246.116,244.065,-360.878,-255.458,1928.500,168.760,-1963.220
506,38643.853000,-62.164,123.447,-235.243,264.430,-354.299,-248.935,1980.500,254.760,-1904.220
507,38643.873000,-54.333,103.209,-230.301,306.076,-334.380,-235.913,2004.500,366.760,-1827.220
508,38643.890000,-55.312,86.008,-229.313,329.262,-321.060,-226.494,2064.500,420.760,-1747.220
509,38643.918000,-53.354,68.806,-228.324,365.790,-297.237,-202.557,2141.500,645.760,-1638.220
510,38643.958000,-44.543,56.664,-222.394,385.070,-282.913,-194.055,2199.500,814.760,-1504.220
511,38643.976000,-40.627,37.439,-218.440,424.525,-260.085,-169.184,2270.500,889.760,-1360.220
512,38643.982000,-27.901,12.142,-206.579,451.163,-232.308,-141.138,2319.500,1023.760,-1202.220
513,38644.7000,-10.279,-7.083,-195.707,459.604,-222.730,-125.548,2332.500,1066.760,-1050.220
514,38644.25000,0.489,-20.237,-185.822,477.489,-200.677,-97.341,2343.500,1102.760,-949.220
515,38644.40000,17.132,-27.320,-170.996,483.946,-190.114,-80.732,2378.500,1059.760,-727.220
516,38644.60000,10.279,-47.557,-155.181,496.933,-180.600,-45.532,2411.500,1270.760,-470.220
517,38644.78000,33.774,-64.759,-135.413,502.466,-177.768,-27.913,2409.500,1500.760,-200.220
518,38644.105000,49.438,-83.984,-113.668,507.722,-174.953,5.462,2381.500,1598.760,71.780
519,38644.127000,55.312,-105.233,-88.958,504.313,-181.728,36.048,2325.500,1756.760,404.780
520,38644.148000,75.870,-124.459,-51.398,497.257,-187.485,50.946,2168.500,1729.760,753.780
521,38644.170000,106.218,-142.672,-30.641,490.144,-205.828,75.705,1947.500,1351.760,947.780
522,38644.183000,70.975,-145.708,-33.606,488.024,-210.659,87.562,1866.500,1362.760,1039.780
523,38644.203000,44.543,-164.933,-15.815,468.504,-238.547,99.753,1665.500,1855.760,1270.780
524,38644.223000,51.396,-169.992,-14.826,458.836,-254.906,101.912,1457.500,2177.760,1496.780
525,38644.240000,12.237,-178.087,-27.676,442.521,-285.710,100.268,1257.500,2110.760,1667.780
526,38644.266000,-5.384,-177.075,-36.571,430.983,-305.917,99.511,1084.500,2257.760,1855.780
527,38644.284000,10.279,-166.957,-30.641,403.151,-336.602,85.273,931.500,2417.760,2000.780
528,38644.307000,1.468,-161.897,-47.444,372.366,-365.324,71.084,738.500,2160.760,2116.780
529,38644.324000,-25.943,-159.874,-54.363,362.914,-382.639,61.427,623.500,1815.760,2241.780
530,38644.346000,-29.859,-145.708,-45.467,330.207,-411.342,45.304,540.500,1637.760,2375.780
531,38644.363000,-30.837,-135.589,-49.421,304.008,-427.544,41.849,480.500,1537.760,2424.780
532,38644.392000,-50.417,-125.470,-49.421,266.424,-452.330,22.854,346.500,1267.760,2510.780
533,38644.423000,-71.954,-116.364,-47.444,250.051,-459.907,12.323,236.500,1099.760,2552.780
534,38644.462000,-87.618,-108.269,-37.560,211.401,-478.882,-4.691,140.500,1252.760,2612.780
535,38644.462000,-105.239,-103.209,-34.595,162.011,-489.046,-27.432,-14.500,1589.760,2637.780
536,38644.465000,-109.155,-115.352,-36.571,143.906,-498.529,-49.743,-208.500,2015.760,2569.780
537,38644.495000,-84.681,-109.281,-35.583,97.657,-497.093,-90.274,-486.500,2352.760,2463.780
538,38644.514000,-83.702,-86.008,-41.514,77.506,-496.884,-112.560,-737.500,2326.760,2371.780
539,38644.536000,-117.966,-80.949,-53.375,29.167,-484.791,-151.097,-819.500,2289.760,2294.780
540,38644.556000,-102.302,-69.818,-69.189,13.855,-476.886,-174.462,-1027.500,2644.760,2247.780
541,38644.580000,-69.996,-49.581,-84.015,-26.615,-456.151,-220.040,-1262.500,2814.760,2109.780
542,38644.605000,-63.143,-15.178,-98.842,-48.772,-431.729,-252.163,-1467.500,2511.760,2031.780
543,38644.622000,-88.597,-3.036,-109.714,-92.694,-420.676,-263.212,-1622.500,2281.760,1951.780
544,38644.644000,-78.807,4.047,-132.448,-132.612,-391.263,-289.121,-1820.500,2280.760,1784.780
545,38644.659000,-82.723,28.332,-146.286,-152.144,-372.692,-300.611,-1982.500,2195.760,1591.780
546,38644.681000,-77.828,62.735,-163.089,-194.279,-341.340,-312.700,-2192.500,2080.760,1452.780
547,38644.701000,-62.164,90.055,-163.089,-210.025,-325.716,-315.393,-2421.500,1863.760,1281.780
548,38644.724000,-71.954,122.435,-203.614,-242.547,-298.334,-315.834,-2504.500,1678.760,1153.780
549,38644.744000,-112.092,127.494,-216.463,-267.204,-282.636,-312.463,-2443.500,1518.760,972.780
550,38644.764000,-96.428,147.731,-208.556,-300.826,-253.317,-306.980,-2436.500,1985.760,829.780
551,38644.784000,-50.417,176.063,-209.544,-325.633,-223.109,-302.638,-2464.500,2138.760,677.780
552,38644.806000,-31.816,203.383,-235.243,-345.405,-210.359,-297.381,-2448.500,1596.760,600.780
553,38644.826000,-69.996,210.466,-238.208,-369.405,-187.913,-279.263,-2374.500,1234.760,491.780
554,38644.846000,-69.017,222.609,-223.382,-378.560,-176.238,-265.332,-2417.500,1480.760,261.780
555,38644.864000,-22.027,254.988,-221.405,-398.575,-163.502,-246.288,-2559.500,1301.760,-39.220
556,38644.884000,-34.753,294.451,-241.174,-414.500,-156.600,-234.201,-2514.500,1031.760,-349.220
557,38644.902000,-58.249,305.581,-226.347,-427.664,-147.798,-213.305,-2493.500,1015.760,-479.220
558,38644.919000,-37.690,316.711,-209.544,-439.899,-146.751,-185.525,-2503.500,1563.760,-799.220
559,38644.967000,-7.342,335.937,-223.382,-436.150,-145.828,-176.732,-2489.500,1845.760,-1119.220
560,38644.967000,8.321,340.996,-217.452,-443.345,-147.721,-155.929,-2380.500,1971.760,-1402.220
561,38644.981000,-22.027,349.091,-248.093,-452.254,-151.518,-147.892,-2185.500,2259.760,-1800.220
562,38645.4000,-52.375,342.008,-252.046,-448.382,-158.331,-142.045,-1826.500,3302.760,-2118.220
563,38645.21000,15.174,353.138,-217.452,-451.316,-162.176,-140.020,-1511.500,3798.760,-2337.220
564,38645.46000,86.639,363.257,-215.475,-446.222,-174.792,-145.018,-1149.500,3082.760,-2529.220
565,38645.74000,73.912,361.233,-218.440,-437.309,-184.545,-146.148,-998.500,2670.760,-2634.220
566,38645.95000,41.606,373.376,-213.498,-426.212,-203.983,-155.182,-720.500,2476.760,-2755.220
567,38645.121000,60.207,374.387,-198.672,-405.357,-220.606,-164.392,-461.500,2585.760,-2785.220
568,38645.136000,77.828,373.376,-198.672,-404.073,-231.245,-176.215,-193.500,2294.760,-2809.220
569,38645.156000,58.249,377.423,-205.591,-386.031,-249.771,-191.280,78.500,2106.760,-2767.220
570,38645.174000,49.438,382.482,-213.498,-373.007,-252.774,-207.258,358.500,2157.760,-2748.220
571,38645.196000,58.249,369.328,-206.579,-347.044,-266.526,-230.344,614.500,2138.760,-2710.220
572,38645.214000,63.143,369.328,-205.591,-331.066,-273.426,-245.385,862.500,1936.760,-2686.220
573,38645.236000,40.627,369.328,-207.568,-299.191,-280.454,-274.490,1109.500,2024.760,-2679.220
574,38645.264000,31.816,351.115,-196.695,-263.376,-282.677,-307.608,1214.500,2151.760,-2653.220
575,38645.280000,69.996,336.949,-195.707,-248.501,-279.895,-320.672,1371.500,1990.760,-2570.220
576,38645.302000,70.975,332.901,-199.660,-208.902,-281.193,-346.967,1538.500,1408.760,-2527.220
577,38645.315000,27.901,338.972,-197.683,-183.271,-279.478,-359.236,1652.500,1412.760,-2443.220
578,38645.334000,48.459,318.735,-201.637,-137.917,-272.125,-383.674,1699.500,1360.760,-2274.220
579,38645.358000,73.912,305.581,-213.498,-119.221,-276.160,-387.938,1816.500,796.760,-2212.220
580,38645.374000,24.964,297.486,-218.440,-77.927,-267.811,-404.430,1887.500,786.760,-2114.220
581,38645.395000,16.153,274.213,-224.371,-53.414,-264.159,-409.790,1932.500,854.760,-1974.220
582,38645.418000,34.753,257.012,-234.255,-4.423,-252.985,-420.514,2036.500,722.760,-1938.220
583,38645.435000,20.069,247.905,-238.208,41.581,-243.724,-427.246,2068.500,628.760,-1907.220
584,38645.463000,23.006,225.644,-241.174,73.853,-240.147,-428.805,2077.500,614.760,-1780.220
585,38645.489000,41.606,202.372,-249.081,116.713,-226.998,-425.641,2121.500,307.760,-1685.220
586,38645.504000,25.943,195.289,-248.093,133.173,-221.352,-419.048,2176.500,237.760,-1625.220
587,38645.518000,10.279,184.158,-250.069,184.812,-205.381,-416.042,2208.500,476.760,-1492.220
588,38645.540000,25.943,162.909,-253.035,210.069,-196.912,-410.592,2254.500,522.760,-1356.220
589,38645.560000,36.711,146.719,-251.058,249.707,-178.914,-393.595,2313.500,510.760,-1234.220
590,38645.574000,22.027,122.435,-241.174,291.300,-157.062,-378.605,2373.500,756.760,-1047.220
591,38645.602000,36.711,101.186,-235.243,316.505,-146.659,-371.187,2400.500,868.760,-917.220
592,38645.628000,38.669,79.937,-235.243,352.055,-126.699,-345.259,2455.500,904.760,-668.220
593,38645.645000,37.690,63.747,-230.301,365.449,-116.194,-333.695,2504.500,966.760,-440.220
594,38645.667000,55.312,40.474,-226.347,402.931,-99.157,-304.845,2531.500,1096.760,-163.220
595,38645.691000,56.291,22.261,-217.452,420.161,-93.531,-286.452,2567.500,1014.760,2.780
596,38645.706000,51.396,1.012,-190.764,448.838,-82.222,-254.485,2572.500,926.760,89.780
597,38645.728000,48.459,-17.202,-175.938,462.208,-82.365,-236.017,2486.500,883.760,130.780
598,38645.750000,33.774,-36.427,-162.100,478.114,-74.814,-198.898,2403.500,935.760,108.780
599,38645.778000,46.501,-44.522,-144.309,494.020,-67.263,-161.779,2284.500,1216.760,184.780
600,38645.807000,56.291,-56.664,-125.529,509.399,-67.421,-146.300,2224.500,1281.760,242.780
601,38645.813000,51.396,-72.854,-113.668,514.595,-67.512,-107.998,2097.500,1336.760,370.780
602,38645.835000,65.101,-91.067,-109.714,523.108,-69.545,-90.426,1953.500,1523.760,566.780
603,38645.850000,73.912,-111.304,-98.842,523.673,-75.384,-63.849,1839.500,1553.760,773.780
604,38645.873000,69.996,-127.494,-95.876,523.467,-83.139,-48.085,1725.500,1434.760,925.780
605,38645.901000,74.891,-130.530,-101.807,528.008,-95.786,-21.570,1586.500,1394.760,1055.780
606,38645.905000,72.933,-142.672,-106.749,528.802,-117.099,0.099,1505.500,1317.760,1182.780
607,38645.940000,62.164,-165.945,-99.830,525.808,-125.787,8.038,1427.500,1260.760,1302.780
608,38645.959000,56.291,-185.170,-80.062,511.025,-151.793,28.019,1391.500,1262.760,1408.780
609,38645.974000,61.185,-188.206,-65.236,506.066,-163.367,37.964,1281.500,1325.760,1423.780
610,38645.991000,62.164,-181.123,-65.236,508.169,-192.414,44.852,1138.500,1366.760,1463.780
611,38646.20000,56.291,-163.921,-70.178,492.533,-203.885,50.065,988.500,1442.760,1500.780
612,38646.39000,42.585,-172.016,-69.189,477.083,-231.801,53.324,853.500,1532.760,1608.780
613,38646.57000,27.901,-177.075,-61.282,473.506,-264.655,51.457,739.500,1635.760,1703.780
614,38646.104000,19.090,-177.075,-55.351,456.096,-279.002,47.844,646.500,1768.760,1810.780
615,38646.104000,10.279,-185.170,-52.386,439.045,-309.783,32.430,535.500,1896.760,1954.780
616,38646.122000,10.279,-181.123,-42.502,416.820,-325.049,24.966,377.500,1890.760,2085.780
617,38646.149000,16.153,-182.134,-33.606,399.770,-359.702,11.526,290.500,1754.760,2142.780
618,38646.155000,20.069,-171.004,-27.676,376.549,-371.088,3.090,120.500,1326.760,2167.780
619,38646.178000,1.468,-160.885,-49.421,349.546,-395.014,-6.249,-29.500,858.760,2168.780
620,38646.198000,-41.606,-157.850,-59.305,329.244,-408.365,-12.765,-62.500,644.760,2210.780
621,38646.212000,-37.690,-157.850,-41.514,300.319,-430.335,-25.026,-161.500,769.760,2226.780
622,38646.240000,-30.837,-143.684,-57.328,268.388,-448.412,-35.269,-312.500,618.760,2101.780
623,38646.258000,-92.512,-141.660,-90.934,247.045,-456.917,-40.788,-283.500,704.760,2070.780
624,38646.275000,-101.323,-164.933,-74.131,211.406,-467.202,-66.725,-366.500,1282.760,2107.780
625,38646.299000,-54.333,-145.708,-60.293,200.851,-470.965,-76.379,-534.500,1358.760,2071.780
626,38646.321000,-66.080,-129.518,-85.004,160.224,-482.179,-96.320,-585.500,1026.760,2038.780
627,38646.339000,-107.197,-120.411,-91.923,138.905,-483.908,-106.770,-675.500,908.760,2052.780
628,38646.362000,-109.155,-110.292,-74.131,104.191,-488.398,-132.731,-755.500,1107.760,2032.780
629,38646.387000,-93.491,-83.984,-72.154,85.911,-488.211,-150.128,-898.500,1254.760,2000.780
630,38646.415000,-95.449,-79.937,-115.645,43.956,-482.015,-159.237,-1003.500,1077.760,2012.780
631,38646.430000,-111.113,-70.830,-94.888,3.074,-474.853,-174.274,-1049.500,1033.760,2037.780
632,38646.459000,-105.239,-53.628,-70.178,-11.397,-470.837,-187.805,-1239.500,1151.760,2006.780
633,38646.493000,-96.428,-39.462,-107.737,-52.331,-463.679,-199.887,-1407.500,954.760,1963.780
634,38646.510000,-111.113,-33.391,-131.459,-74.812,-456.697,-204.420,-1462.500,768.760,1966.780
635,38646.519000,-148.314,-12.142,-133.436,-109.001,-445.736,-212.688,-1527.500,623.760,1844.780
636,38646.528000,-154.187,0.000,-112.680,-125.569,-437.837,-220.279,-1616.500,1104.760,1731.780
637,38646.550000,-111.113,15.178,-151.228,-163.839,-416.203,-224.550,-1838.500,992.760,1613.780
638,38646.573000,-115.029,34.403,-164.077,-203.137,-404.241,-220.915,-1858.500,450.760,1589.780
639,38646.598000,-153.208,54.640,-150.239,-218.916,-396.362,-217.692,-1881.500,522.760,1511.780
640,38646.619000,-143.419,64.759,-127.506,-251.426,-381.562,-212.212,-2077.500,810.760,1438.780
641,38646.636000,-85.660,84.996,-152.216,-269.232,-371.734,-206.001,-2238.500,109.760,1341.780
642,38646.654000,-105.239,121.423,-166.054,-297.144,-358.931,-182.880,-2253.500,-413.240,1353.780
643,38646.681000,-165.935,140.648,-170.008,-307.138,-349.175,-175.824,-2207.500,-183.240,1338.780
644,38646.696000,-155.166,148.743,-163.089,-336.940,-328.607,-160.554,-2256.500,573.760,1334.780
645,38646.714000,-142.440,156.838,-194.718,-358.826,-310.041,-149.359,-2223.500,657.760,1396.780
646,38646.741000,-112.092,178.087,-181.869,-372.803,-302.189,-137.308,-2139.500,376.760,1413.780
647,38646.762000,-128.734,203.383,-166.054,-405.619,-278.696,-119.034,-2135.500,366.760,1341.780
648,38646.790000,-136.566,214.514,-164.077,-412.800,-265.101,-107.110,-2168.500,647.760,1386.780
649,38646.822000,-100.344,240.822,-154.193,-424.018,-249.543,-89.209,-2184.500,544.760,1273.780
650,38646.823000,-92.512,262.071,-154.193,-434.135,-233.986,-78.219,-2212.500,721.760,1113.780
651,38646.840000,-104.260,287.368,-149.251,-447.283,-219.376,-61.268,-2270.500,977.760,889.780
652,38646.860000,-84.681,310.640,-153.205,-456.387,-207.697,-50.292,-2440.500,1445.760,724.780
653,38646.883000,-52.375,314.688,-167.042,-456.900,-197.079,-26.668,-2602.500,1656.760,361.780
654,38646.889000,-58.249,333.913,-175.938,-468.098,-189.263,-5.806,-2689.500,1884.760,144.780
655,38646.917000,-76.849,355.162,-194.718,-467.301,-188.314,4.024,-2594.500,2145.760,-48.220
656,38646.934000,-87.618,344.032,-202.625,-463.716,-186.432,21.678,-2461.500,2540.760,-289.220
657,38646.961000,-58.249,339.984,-191.753,-464.814,-192.238,31.549,-2288.500,2369.760,-590.220
658,38646.984000,-67.059,363.257,-178.903,-462.050,-200.017,45.291,-2038.500,1950.760,-875.220
659,38647.1000,-88.597,355.162,-170.008,-461.044,-204.864,46.264,-1851.500,2189.760,-1067.220
660,38647.24000,-81.744,359.210,-167.042,-451.212,-221.405,52.016,-1781.500,2374.760,-1146.220
661,38647.47000,-94.470,369.328,-165.066,-441.188,-243.742,49.896,-1590.500,2619.760,-1404.220
662,38647.73000,-116.008,385.518,-168.031,-428.256,-259.332,45.747,-1391.500,2945.760,-1762.220
663,38647.87000,-97.407,384.506,-157.158,-415.028,-280.713,27.818,-1157.500,3511.760,-2065.220
664,38647.106000,-69.996,385.518,-155.181,-401.907,-294.357,11.851,-934.500,3764.760,-2322.220
665,38647.126000,-58.249,388.553,-145.297,-383.525,-323.511,-16.990,-665.500,3530.760,-2573.220
666,38647.149000,-62.164,371.352,-138.378,-362.628,-333.357,-32.115,-408.500,3252.760,-2776.220
667,38647.169000,-79.786,365.281,-142.332,-338.238,-360.621,-69.923,-169.500,3154.760,-2959.220
668,38647.192000,-89.576,380.459,-145.297,-323.177,-372.348,-85.927,103.500,3228.760,-3127.220
669,38647.209000,-98.386,383.494,-138.378,-276.208,-381.422,-137.939,266.500,3604.760,-3184.220
670,38647.218000,-69.996,374.387,-122.564,-235.987,-382.685,-199.686,586.500,4217.760,-3170.220
671,38647.250000,-42.585,369.328,-127.506,-208.088,-379.034,-230.702,885.500,4418.760,-3079.220
672,38647.283000,-63.143,352.126,-145.297,-167.145,-358.058,-289.533,1203.500,4231.760,-2973.220
673,38647.301000,-39.648,321.771,-126.517,-143.232,-342.761,-322.461,1483.500,4458.760,-2771.220
674,38647.321000,80.765,299.510,-160.124,-98.735,-301.516,-371.535,1525.500,3843.760,-2409.220
675,38647.336000,59.228,296.474,-218.440,-82.969,-291.005,-383.640,1645.500,1705.760,-2234.220
676,38647.355000,-27.901,289.391,-232.278,-37.822,-285.599,-395.274,1763.500,724.760,-2107.220
677,38647.375000,-36.711,266.119,-245.127,12.191,-277.335,-406.997,1791.500,721.760,-1996.220
678,38647.409000,-41.606,253.976,-260.942,34.642,-265.928,-410.361,1923.500,697.760,-1884.220
679,38647.415000,-36.711,244.870,-270.826,89.322,-255.786,-410.356,2046.500,667.760,-1832.220
680,38647.438000,-25.943,234.751,-272.803,109.869,-248.230,-414.666,2135.500,548.760,-1800.220
681,38647.460000,-41.606,217.549,-267.861,159.526,-233.211,-409.656,2224.500,558.760,-1753.220
682,38647.478000,-31.816,199.336,-268.849,178.875,-216.947,-406.079,2290.500,839.760,-1662.220
683,38647.500000,-14.195,185.170,-270.826,234.261,-190.374,-399.215,2381.500,999.760,-1589.220
684,38647.533000,-1.468,172.016,-267.861,254.529,-175.091,-391.716,2473.500,1158.760,-1440.220
685,38647.552000,23.006,155.826,-250.069,307.802,-146.573,-376.940,2576.500,1263.760,-1197.220
686,38647.568000,45.522,130.530,-240.185,346.294,-117.929,-355.997,2601.500,1252.760,-1068.220
687,38647.587000,58.249,110.292,-232.278,359.600,-103.557,-341.482,2643.500,1252.760,-828.220
688,38647.606000,69.017,83.984,-224.371,406.762,-80.807,-309.856,2677.500,1264.760,-589.220
689,38647.626000,89.576,59.700,-204.602,413.236,-68.308,-295.219,2680.500,1287.760,-328.220
690,38647.644000,96.428,37.439,-187.799,441.817,-52.164,-260.303,2652.500,1174.760,-82.220
691,38647.664000,93.491,17.202,-171.985,459.992,-46.549,-239.957,2595.500,1145.760,178.780
692,38647.687000,98.386,2.024,-154.193,485.656,-40.056,-201.041,2511.500,1238.760,471.780
693,38647.704000,85.660,-5.059,-153.205,498.741,-41.183,-165.831,2434.500,1317.760,764.780
694,38647.738000,78.807,-33.391,-145.297,501.385,-48.970,-145.195,2392.500,1474.760,1058.780
695,38647.742000,80.765,-57.676,-132.448,516.490,-62.694,-107.052,2290.500,1690.760,1177.780
696,38647.769000,79.786,-83.984,-116.633,518.136,-64.665,-88.375,2187.500,1668.760,1371.780
697,38647.786000,75.870,-94.103,-108.726,519.762,-88.899,-56.873,2045.500,1538.760,1505.780
698,38647.809000,60.207,-98.150,-102.795,522.528,-102.486,-40.170,1921.500,1514.760,1627.780
699,38647.831000,64.122,-113.328,-89.946,521.402,-133.458,-15.502,1784.500,1536.760,1809.780
700,38647.847000,63.143,-123.447,-76.108,511.533,-144.989,-4.485,1644.500,1347.760,1949.780
701,38647.864000,41.606,-127.494,-62.270,498.832,-184.556,15.475,1510.500,1326.760,2059.780
702,38647.878000,34.753,-127.494,-52.386,488.147,-223.170,31.460,1346.500,1523.760,2176.780
703,38647.903000,38.669,-129.518,-52.386,475.569,-238.533,31.701,1249.500,1593.760,2227.780
704,38647.935000,24.964,-131.542,-50.409,448.501,-276.014,33.208,1065.500,1651.760,2299.780
705,38647.955000,11.258,-133.565,-43.490,438.911,-295.272,32.416,883.500,1810.760,2381.780
706,38647.975000,14.195,-135.589,-33.606,415.056,-332.764,18.115,649.500,1913.760,2477.780
707,38647.996000,26.922,-133.565,-39.537,394.780,-349.016,11.602,410.500,1696.760,2573.780
708,38648.13000,8.321,-127.494,-55.351,359.129,-382.532,-1.511,252.500,1375.760,2667.780
709,38648.46000,-12.237,-120.411,-62.270,320.568,-413.117,-17.528,121.500,1264.760,2768.780
710,38648.62000,-32.795,-109.281,-59.305,299.348,-427.422,-26.981,-32.500,1326.760,2785.780
711,38648.80000,-45.522,-100.174,-81.050,257.884,-450.235,-48.863,-162.500,1381.760,2828.780
712,38648.95000,-47.480,-87.020,-88.958,228.913,-461.561,-64.088,-204.500,1402.760,2877.780
713,38648.120000,-60.207,-62.735,-81.050,178.571,-474.619,-86.809,-266.500,1372.760,2981.780
714,38648.139000,-69.017,-57.676,-73.143,154.361,-477.286,-99.176,-438.500,1540.760,3030.780
715,38648.156000,-42.585,-57.676,-86.981,106.989,-490.368,-123.918,-675.500,1187.760,3010.780
716,38648.174000,-72.933,-30.356,-105.761,78.751,-490.102,-131.294,-697.500,754.760,2995.780
717,38648.197000,-126.776,-21.249,-92.911,30.181,-490.605,-150.124,-808.500,1127.760,2961.780
718,38648.214000,-109.155,-28.332,-91.923,-23.396,-480.424,-167.892,-1104.500,1195.760,2818.780
719,38648.237000,-85.660,-11.130,-97.853,-46.854,-477.305,-170.434,-1314.500,691.760,2624.780
720,38648.258000,-126.776,12.142,-99.830,-101.575,-466.155,-179.324,-1384.500,540.760,2520.780
721,38648.279000,-156.145,14.166,-81.050,-118.281,-454.393,-181.011,-1623.500,819.760,2332.780
722,38648.297000,-135.587,46.545,-103.784,-166.152,-443.306,-190.021,-1852.500,927.760,2089.780
723,38648.317000,-144.398,68.806,-141.344,-188.791,-430.526,-188.651,-1952.500,757.760,2041.780
724,38648.362000,-160.061,93.091,-141.344,-228.039,-410.818,-191.918,-2022.500,733.760,1952.780
725,38648.380000,-135.587,139.636,-141.344,-258.610,-394.102,-186.474,-2178.500,974.760,1760.780
726,38648.389000,-115.029,164.933,-164.077,-278.287,-380.379,-187.126,-2381.500,977.760,1697.780
727,38648.407000,-121.881,183.146,-170.996,-316.038,-355.875,-166.798,-2462.500,293.760,1712.780
728,38648.424000,-178.662,209.455,-187.799,-332.900,-347.994,-157.649,-2450.500,-24.240,1582.780
729,38648.441000,-212.925,214.514,-201.637,-355.868,-329.425,-140.529,-2400.500,126.760,1503.780
730,38648.464000,-140.482,230.704,-177.915,-374.740,-315.721,-131.351,-2390.500,977.760,1475.780
731,38648.481000,-105.239,254.988,-170.996,-400.680,-291.320,-115.169,-2451.500,946.760,1364.780
732,38648.503000,-144.398,265.107,-194.718,-404.943,-279.689,-101.325,-2432.500,358.760,1275.780
733,38648.523000,-170.830,265.107,-184.834,-424.111,-258.259,-79.353,-2198.500,550.760,1223.780
734,38648.540000,-152.229,268.142,-180.880,-440.204,-238.783,-64.324,-2053.500,1357.760,1065.780
735,38648.563000,-100.344,258.024,-172.973,-444.181,-230.040,-65.248,-1991.500,1946.760,841.780
736,38648.583000,-77.828,252.964,-168.031,-449.459,-210.659,-53.364,-1957.500,2002.760,549.780
737,38648.610000,-78.807,273.202,-174.950,-461.332,-203.784,-49.224,-1945.500,2010.760,236.780
738,38648.628000,-78.807,293.439,-186.811,-461.559,-196.054,-40.369,-1937.500,2247.760,72.780
739,38648.648000,-43.564,319.747,-182.857,-462.571,-197.983,-37.396,-1951.500,2673.760,-249.220
740,38648.665000,0.489,355.162,-180.880,-458.848,-196.093,-27.619,-2023.500,2683.760,-620.220
741,38648.689000,0.489,360.221,-192.741,-459.972,-202.868,-15.778,-2086.500,2176.760,-921.220
742,38648.717000,-33.774,359.210,-194.718,-458.126,-207.731,-6.945,-1962.500,1656.760,-1081.220
743,38648.744000,-74.891,364.269,-184.834,-450.338,-222.323,2.779,-1672.500,1729.760,-1214.220
744,38648.773000,-76.849,356.174,-185.822,-446.397,-227.197,3.699,-1446.500,2392.760,-1329.220
745,38648.788000,-39.648,354.150,-182.857,-436.340,-241.789,-4.337,-1257.500,2868.760,-1511.220
746,38648.796000,-28.880,342.008,-173.961,-435.203,-253.404,-7.297,-1154.500,2903.760,-1621.220
747,38648.814000,-22.027,333.913,-160.124,-415.266,-267.112,-21.416,-926.500,2824.760,-1761.220
748,38648.832000,-18.111,334.925,-152.216,-414.759,-288.377,-39.120,-704.500,2696.760,-1860.220
749,38648.857000,-18.111,331.889,-158.147,-397.950,-294.326,-46.302,-530.500,2602.760,-1933.220
750,38648.879000,-20.069,326.830,-156.170,-384.645,-314.735,-69.156,-360.500,2527.760,-1968.220
751,38648.899000,-14.195,323.794,-148.263,-369.681,-319.692,-83.197,-195.500,2466.760,-2067.220
752,38648.921000,-16.153,312.664,-139.367,-351.425,-333.366,-113.038,-26.500,2471.760,-2170.220
753,38648.939000,3.426,302.545,-132.448,-336.495,-338.325,-125.110,71.500,2357.760,-2218.220
754,38648.959000,3.426,306.593,-142.332,-311.415,-353.031,-153.101,192.500,2037.760,-2215.220
755,38648.977000,-30.837,305.581,-154.193,-302.426,-354.069,-163.103,280.500,1961.760,-2208.220
756,38649.0,-50.417,294.451,-146.286,-275.365,-363.952,-195.073,472.500,2151.760,-2200.220
757,38649.28000,-26.922,288.379,-157.158,-248.393,-360.290,-229.026,554.500,2246.760,-2154.220
758,38649.50000,-51.396,296.474,-170.996,-226.667,-361.442,-240.238,725.500,1915.760,-2164.220
759,38649.82000,-87.618,292.427,-170.996,-190.905,-357.860,-273.362,912.500,2138.760,-2189.220
760,38649.100000,-60.207,280.285,-172.973,-178.906,-352.145,-291.301,962.500,2417.760,-2134.220
761,38649.114000,-32.795,289.391,-198.672,-145.181,-343.711,-322.426,1091.500,1921.760,-2121.220
762,38649.124000,-65.101,283.320,-207.568,-118.634,-335.233,-334.719,1243.500,1697.760,-2161.220
763,38649.145000,-63.143,260.047,-209.544,-84.105,-319.074,-359.960,1259.500,1825.760,-2130.220
764,38649.165000,-33.774,261.059,-233.266,-39.861,-301.072,-382.422,1300.500,1775.760,-2048.220
765,38649.188000,-41.606,259.036,-239.197,-20.189,-295.437,-391.636,1496.500,1428.760,-1991.220
766,38649.194000,-23.985,229.692,-232.278,21.856,-279.367,-399.290,1573.500,1374.760,-1876.220
767,38649.222000,-9.300,218.561,-258.965,38.531,-268.869,-407.473,1663.500,951.760,-1802.220
768,38649.239000,-31.816,213.502,-268.849,81.511,-251.842,-413.176,1828.500,805.760,-1717.220
769,38649.262000,-26.922,198.324,-263.907,106.862,-240.464,-414.622,1924.500,960.760,-1563.220
770,38649.284000,-7.342,191.241,-270.826,149.703,-221.509,-413.433,2063.500,803.760,-1429.220
771,38649.307000,-16.153,177.075,-273.792,173.081,-213.985,-411.887,2205.500,835.760,-1266.220
772,38649.338000,-14.195,158.862,-262.919,211.860,-190.164,-404.725,2262.500,920.760,-1181.220
773,38649.342000,3.426,143.684,-258.965,255.464,-172.198,-390.751,2323.500,897.760,-1037.220
774,38649.369000,-5.384,129.518,-252.046,274.813,-155.934,-387.175,2402.500,881.760,-924.220
775,38649.382000,-4.405,114.340,-243.151,313.376,-135.029,-366.223,2437.500,1036.760,-758.220
776,38649.409000,22.027,90.055,-249.081,338.520,-125.598,-354.866,2463.500,878.760,-603.220
777,38649.427000,23.006,73.866,-230.301,372.166,-107.553,-330.871,2510.500,689.760,-491.220
778,38649.447000,1.468,60.711,-220.417,392.374,-97.112,-317.458,2511.500,966.760,-357.220
779,38649.474000,18.111,40.474,-209.544,416.105,-79.953,-285.411,2480.500,1237.760,-173.220
780,38649.492000,43.564,25.296,-202.625,448.714,-68.678,-254.499,2454.500,1219.760,-30.220
781,38649.509000,49.438,6.071,-188.788,461.009,-62.042,-234.051,2426.500,1154.760,51.780
782,38649.537000,58.249,-12.142,-176.927,476.993,-57.391,-199.883,2354.500,1176.760,221.780
783,38649.568000,63.143,-24.285,-158.147,487.392,-55.573,-180.380,2270.500,1193.760,416.780
784,38649.586000,55.312,-44.522,-151.228,504.443,-54.797,-149.180,2173.500,1329.760,635.780
785,38649.599000,69.017,-63.747,-134.425,507.085,-58.712,-130.518,2061.500,1365.760,841.780
786,38649.621000,77.828,-77.913,-107.737,516.458,-70.439,-101.136,1896.500,1258.760,987.780
787,38649.639000,70.975,-83.984,-87.969,520.174,-77.261,-86.427,1710.500,1264.760,1142.780
788,38649.657000,65.101,-104.221,-79.073,522.845,-91.821,-63.815,1484.500,1313.760,1243.780
789,38649.680000,69.017,-116.364,-89.946,522.643,-111.191,-42.131,1394.500,1329.760,1278.780
790,38649.705000,58.249,-117.375,-98.842,514.810,-127.574,-33.113,1257.500,1311.760,1388.780
791,38649.714000,44.543,-132.553,-96.865,510.903,-152.704,-20.216,1146.500,1372.760,1515.780
792,38649.739000,41.606,-149.755,-105.761,504.056,-162.320,-15.162,1025.500,1491.760,1639.780
793,38649.765000,50.417,-165.945,-100.819,499.310,-193.241,-7.166,923.500,1442.760,1760.780
794,38649.780000,38.669,-168.980,-99.830,489.632,-208.632,-5.008,819.500,1178.760,1826.780
795,38649.803000,17.132,-156.838,-104.772,483.024,-238.561,-2.887,723.500,1039.760,1842.780
796,38649.820000,5.384,-166.957,-102.795,460.778,-270.283,-0.487,657.500,1228.760,1906.780
797,38649.845000,22.027,-166.957,-92.911,453.118,-282.785,-3.290,547.500,1474.760,1988.780
798,38649.863000,27.901,-156.838,-89.946,432.023,-314.506,-10.756,479.500,1445.760,2016.780
799,38649.880000,3.426,-148.743,-91.923,414.604,-327.885,-14.370,375.500,1285.760,2087.780
800,38649.898000,-6.363,-146.719,-84.015,384.753,-353.716,-27.594,298.500,1346.760,2224.780
801,38649.925000,-2.447,-142.672,-84.015,371.387,-370.995,-37.181,183.500,1448.760,2320.780
802,38649.943000,-14.195,-132.553,-81.050,342.557,-393.928,-54.365,60.500,1399.760,2334.780
803,38649.965000,-51.396,-126.482,-79.073,323.233,-405.351,-61.885,-52.500,1447.760,2364.780
804,38650.0,-61.185,-126.482,-83.027,282.816,-424.297,-89.697,-192.500,1776.760,2340.780
805,38650.14000,-36.711,-122.435,-67.212,251.160,-436.551,-118.656,-373.500,2021.760,2284.780
806,38650.49000,-23.985,-115.352,-61.282,235.869,-442.195,-136.099,-498.500,1965.760,2256.780
807,38650.49000,-51.396,-104.221,-82.039,198.315,-449.557,-165.944,-746.500,1646.760,2178.780
808,38650.67000,-61.185,-105.233,-85.992,172.155,-447.367,-181.235,-913.500,1527.760,2164.780
809,38650.97000,-51.396,-87.020,-83.027,130.539,-447.926,-206.094,-1089.500,1400.760,2174.780
810,38650.115000,-59.228,-62.735,-94.888,112.173,-449.680,-217.581,-1253.500,1206.760,2141.780
811,38650.135000,-81.744,-51.605,-138.378,69.438,-444.431,-237.504,-1367.500,1128.760,2132.780
812,38650.150000,-97.407,-47.557,-140.355,21.774,-431.397,-259.318,-1387.500,1308.760,2137.780
813,38650.165000,-69.996,-32.379,-120.587,3.337,-425.411,-270.813,-1517.500,1540.760,2046.780
814,38650.179000,-53.354,-11.130,-137.390,-36.586,-408.581,-289.815,-1705.500,1315.760,1935.780
815,38650.212000,-81.744,2.024,-168.031,-63.994,-401.557,-292.292,-1749.500,1085.760,1898.780
816,38650.234000,-94.470,7.083,-145.297,-105.016,-390.533,-301.423,-1794.500,947.760,1827.780
817,38650.249000,-67.059,31.368,-145.297,-123.688,-377.785,-303.077,-2052.500,1050.760,1673.780
818,38650.272000,-66.080,58.688,-194.718,-168.842,-359.962,-303.283,-2293.500,624.760,1487.780
819,38650.289000,-107.197,74.877,-207.568,-188.534,-355.919,-298.017,-2252.500,184.760,1407.780
820,38650.317000,-101.323,97.138,-203.614,-224.039,-344.000,-287.559,-2320.500,250.760,1337.780
821,38650.334000,-93.491,119.399,-215.475,-258.706,-328.225,-271.213,-2350.500,342.760,1232.780
822,38650.369000,-105.239,141.660,-240.185,-268.622,-323.304,-266.121,-2259.500,289.760,1220.780
823,38650.384000,-119.924,149.755,-223.382,-313.074,-303.569,-251.575,-2162.500,316.760,1191.780
824,38650.400000,-100.344,150.767,-199.660,-319.120,-295.783,-245.570,-2121.500,615.760,1146.780
825,38650.420000,-65.101,172.016,-205.591,-348.939,-273.280,-230.302,-2242.500,681.760,1043.780
826,38650.439000,-78.807,188.206,-216.463,-365.825,-268.304,-218.196,-2192.500,262.760,1044.780
827,38650.467000,-72.933,196.300,-193.730,-388.862,-251.675,-196.150,-2162.500,136.760,1012.780
828,38650.494000,-95.449,218.561,-212.510,-405.016,-233.170,-177.181,-2090.500,313.760,878.780
829,38650.513000,-104.260,214.514,-225.359,-411.114,-225.386,-168.222,-2009.500,954.760,788.780
830,38650.532000,-62.164,222.609,-220.417,-431.147,-206.844,-151.154,-2033.500,1194.760,603.780
831,38650.547000,-31.816,249.929,-204.602,-434.265,-201.988,-143.229,-2083.500,1004.760,318.780
832,38650.567000,-26.922,272.190,-194.718,-443.647,-186.454,-118.469,-2135.500,941.760,184.780
833,38650.584000,-26.922,286.356,-212.510,-456.549,-185.381,-108.398,-2234.500,928.760,-50.220
834,38650.620000,-22.027,284.332,-224.371,-456.003,-183.478,-84.783,-2258.500,989.760,-263.220
835,38650.623000,-37.690,294.451,-233.266,-457.190,-183.481,-72.948,-2134.500,1143.760,-460.220
836,38650.647000,-49.438,301.534,-224.371,-465.303,-184.394,-56.068,-1928.500,1567.760,-625.220
837,38650.669000,-38.669,298.498,-216.463,-462.548,-189.270,-43.313,-1760.500,2010.760,-781.220
838,38650.703000,-7.342,299.510,-208.556,-452.789,-188.393,-42.502,-1640.500,2072.760,-879.220
839,38650.717000,2.447,297.486,-197.683,-454.779,-196.120,-36.551,-1425.500,1666.760,-1025.220
840,38650.734000,-26.922,293.439,-184.834,-458.673,-203.827,-33.520,-1293.500,1574.760,-1223.220
841,38650.754000,-55.312,297.486,-175.938,-449.786,-214.549,-32.680,-1082.500,1926.760,-1320.220
842,38650.773000,-55.312,320.759,-170.996,-445.750,-220.385,-36.683,-986.500,2673.760,-1432.220
843,38650.795000,-14.195,334.925,-160.124,-433.702,-233.058,-47.710,-847.500,2756.760,-1577.220
844,38650.815000,-2.447,318.735,-155.181,-420.666,-248.642,-57.767,-657.500,2292.760,-1797.220
845,38650.829000,-46.501,318.735,-159.135,-420.386,-262.177,-66.616,-451.500,2394.760,-1992.220
846,38650.842000,-65.101,322.783,-158.147,-404.181,-276.807,-90.513,-276.500,2978.760,-2128.220
847,38650.864000,-27.901,333.913,-148.263,-395.062,-282.677,-105.434,-104.500,3076.760,-2247.220
848,38650.891000,-3.426,335.937,-144.309,-375.862,-296.362,-133.322,85.500,2699.760,-2362.220
849,38650.927000,-22.027,326.830,-142.332,-358.870,-305.204,-149.364,172.500,2589.760,-2428.220
850,38650.930000,-35.732,329.866,-142.332,-332.812,-317.984,-178.359,327.500,2672.760,-2532.220
851,38650.950000,-27.901,326.830,-144.309,-322.802,-318.060,-191.334,444.500,2779.760,-2581.220
852,38650.975000,-22.027,331.889,-156.170,-295.681,-323.100,-229.217,622.500,2637.760,-2605.220
853,38650.999000,-37.690,329.866,-161.112,-254.022,-322.474,-262.442,850.500,2665.760,-2588.220
854,38651.19000,-23.006,325.818,-156.170,-236.056,-317.775,-285.408,975.500,2589.760,-2515.220
855,38651.28000,-3.426,325.818,-170.996,-206.201,-310.270,-318.432,1147.500,2214.760,-2463.220
856,38651.50000,-32.795,323.794,-183.846,-183.438,-306.589,-335.575,1312.500,2291.760,-2377.220
857,38651.73000,-33.774,298.498,-184.834,-145.809,-291.415,-369.730,1383.500,2295.760,-2225.220
858,38651.97000,6.363,296.474,-207.568,-124.242,-280.962,-377.999,1472.500,1991.760,-2182.220
859,38651.114000,-21.048,271.178,-219.429,-85.868,-266.778,-398.384,1636.500,1501.760,-2107.220
860,38651.137000,12.237,272.190,-239.197,-44.637,-251.658,-414.882,1680.500,1432.760,-1959.220
861,38651.163000,-3.426,264.095,-249.081,-15.197,-246.113,-423.285,1807.500,971.760,-1888.220
862,38651.180000,-20.069,247.905,-249.081,24.934,-229.054,-433.860,1913.500,849.760,-1809.220
863,38651.207000,8.321,239.810,-253.035,51.291,-220.587,-435.320,1961.500,989.760,-1731.220
864,38651.229000,13.216,223.621,-261.931,89.336,-206.422,-436.994,2048.500,785.760,-1626.220
865,38651.242000,6.363,206.419,-262.919,114.739,-196.976,-440.408,2156.500,703.760,-1507.220
866,38651.269000,11.258,200.348,-272.803,155.484,-174.140,-433.280,2195.500,781.760,-1365.220
867,38651.289000,30.837,191.241,-265.884,184.495,-150.229,-426.930,2314.500,955.760,-1265.220
868,38651.308000,32.795,173.028,-267.861,229.295,-139.035,-421.829,2447.500,1057.760,-1040.220
869,38651.330000,50.417,156.838,-271.815,272.872,-116.231,-408.845,2540.500,1120.760,-808.220
870,38651.354000,53.354,138.625,-257.977,292.145,-104.811,-398.370,2667.500,1023.760,-557.220
871,38651.374000,40.627,122.435,-251.058,339.403,-86.896,-369.694,2741.500,999.760,-322.220
872,38651.394000,59.228,106.245,-247.104,354.779,-77.375,-359.148,2825.500,1070.760,-85.220
873,38651.423000,46.501,96.126,-236.232,396.072,-62.315,-323.471,2905.500,1001.760,96.780
874,38651.442000,32.795,72.854,-211.521,410.392,-53.757,-307.983,2920.500,1319.760,264.780
875,38651.470000,57.270,51.605,-179.892,448.742,-43.511,-269.296,2892.500,1516.760,348.780
876,38651.473000,64.122,20.237,-159.135,470.423,-35.051,-227.358,2802.500,1679.760,540.780
877,38651.495000,76.849,1.012,-147.274,483.680,-30.361,-204.955,2674.500,1823.760,736.780
878,38651.509000,88.597,-16.190,-124.541,497.700,-32.467,-166.807,2550.500,1975.760,952.780
879,38651.532000,88.597,-38.451,-99.830,509.124,-39.367,-145.343,2393.500,2069.760,1224.780
880,38651.554000,109.155,-66.783,-75.120,520.367,-53.053,-110.086,2175.500,2076.760,1476.780
881,38651.572000,126.776,-82.972,-58.317,516.291,-61.737,-96.221,1921.500,1763.760,1661.780
882,38651.589000,132.650,-94.103,-54.363,527.754,-87.993,-66.860,1667.500,1290.760,1827.780
883,38651.612000,122.860,-106.245,-48.432,515.926,-121.768,-43.968,1443.500,1074.760,1967.780
884,38651.637000,126.776,-113.328,-49.421,514.909,-140.151,-32.115,1324.500,725.760,2036.780
885,38651.654000,108.176,-115.352,-54.363,506.129,-178.786,-13.210,1134.500,187.760,2161.780
886,38651.677000,44.543,-117.375,-59.305,491.466,-198.978,-3.083,1025.500,-111.240,2233.780
887,38651.697000,12.237,-122.435,-69.189,476.990,-241.421,8.052,915.500,312.760,2305.780
888,38651.719000,8.321,-124.459,-83.027,462.333,-254.837,14.234,814.500,823.760,2338.780
889,38651.757000,-4.405,-130.530,-78.085,442.175,-293.344,12.667,737.500,1232.760,2379.780
890,38651.770000,-6.363,-130.530,-73.143,427.728,-312.556,9.992,595.500,1568.760,2409.780
891,38651.785000,-10.279,-130.530,-78.085,403.845,-347.145,-4.312,430.500,1754.760,2462.780
892,38651.800000,-10.279,-133.565,-77.097,369.172,-374.863,-20.402,355.500,1766.760,2491.780
893,38651.817000,-4.405,-123.447,-74.131,346.939,-391.098,-26.881,170.500,1636.760,2542.780
894,38651.844000,-20.069,-113.328,-85.004,309.337,-412.013,-46.865,17.500,1334.760,2592.780
895,38651.867000,-51.396,-101.186,-88.958,293.944,-425.407,-54.452,-73.500,1181.760,2619.780
896,38651.887000,-69.996,-92.079,-83.027,250.497,-447.235,-75.316,-176.500,1324.760,2638.780
897,38651.902000,-81.744,-82.972,-82.039,229.318,-454.763,-90.684,-311.500,1513.760,2626.780
898,38651.923000,-77.828,-77.913,-86.981,186.864,-464.985,-118.470,-514.500,1586.760,2599.780
899,38651.940000,-70.975,-70.830,-87.969,143.266,-470.367,-139.350,-736.500,1354.760,2557.780
900,38651.958000,-74.891,-62.735,-82.039,126.909,-472.136,-153.825,-942.500,860.760,2445.780
901,38651.989000,-97.407,-55.652,-87.969,68.407,-473.526,-163.618,-1047.500,655.760,2390.780
902,38652.13000,-120.902,-45.534,-115.645,52.831,-478.219,-165.306,-1198.500,353.760,2326.780
903,38652.30000,-138.524,-33.391,-132.448,11.838,-477.840,-170.487,-1267.500,218.760,2317.780
904,38652.44000,-151.250,-16.190,-128.494,-20.392,-476.575,-173.857,-1298.500,184.760,2271.780
905,38652.62000,-160.061,-5.059,-128.494,-60.564,-468.470,-174.140,-1373.500,188.760,2165.780
906,38652.84000,-170.830,4.047,-151.228,-80.091,-467.322,-176.749,-1402.500,205.760,2005.780
907,38652.105000,-178.662,14.166,-164.077,-119.338,-455.357,-176.069,-1435.500,355.760,1911.780
908,38652.128000,-190.409,25.296,-164.077,-150.643,-444.425,-181.434,-1450.500,637.760,1825.780
909,38652.171000,-169.851,38.451,-151.228,-171.203,-435.527,-185.019,-1497.500,767.760,1789.780
910,38652.171000,-149.293,56.664,-165.066,-199.737,-423.663,-181.574,-1607.500,642.760,1639.780
911,38652.198000,-159.082,71.842,-178.903,-221.353,-413.794,-181.203,-1590.500,489.760,1570.780
912,38652.210000,-178.662,81.960,-184.834,-247.881,-396.137,-183.708,-1551.500,759.760,1518.780
913,38652.233000,-175.725,93.091,-193.730,-258.630,-384.424,-190.423,-1462.500,1223.760,1479.780
914,38652.254000,-138.524,99.162,-165.066,-287.193,-361.914,-190.928,-1535.500,1326.760,1425.780
915,38652.274000,-105.239,123.447,-158.147,-318.743,-343.253,-186.454,-1667.500,918.760,1353.780
916,38652.299000,-107.197,138.625,-154.193,-331.640,-331.532,-182.302,-1819.500,515.760,1283.780
917,38652.317000,-137.545,136.601,-190.764,-353.518,-311.998,-172.093,-1765.500,519.760,1216.780
918,38652.343000,-166.914,145.708,-201.637,-360.534,-301.298,-168.044,-1674.500,693.760,1178.780
919,38652.362000,-181.598,160.885,-191.753,-383.304,-281.751,-162.741,-1551.500,1317.760,1090.780
920,38652.377000,-129.713,177.075,-162.100,-389.308,-269.122,-161.666,-1623.500,1688.760,936.780
921,38652.399000,-67.059,203.383,-155.181,-404.319,-249.649,-152.563,-1855.500,1237.760,734.780
922,38652.417000,-66.080,239.810,-170.996,-411.457,-235.085,-143.593,-1978.500,696.760,537.780
923,38652.434000,-117.966,247.905,-190.764,-429.375,-228.166,-129.502,-2037.500,899.760,248.780
924,38652.457000,-120.902,252.964,-190.764,-440.495,-221.313,-112.578,-2137.500,1414.760,-149.220
925,38652.465000,-48.459,290.403,-193.730,-434.745,-221.373,-105.788,-2273.500,1474.760,-484.220
926,38652.498000,-50.417,296.474,-183.846,-443.828,-221.309,-89.876,-2223.500,1325.760,-720.220
927,38652.520000,-56.291,296.474,-184.834,-444.017,-225.191,-77.070,-2202.500,1121.760,-811.220
928,38652.558000,-69.017,303.557,-203.614,-446.207,-230.026,-61.275,-2163.500,1287.760,-1012.220
929,38652.577000,-64.122,310.640,-209.544,-439.469,-232.998,-53.515,-2063.500,1658.760,-1114.220
930,38652.585000,-54.333,321.771,-189.776,-441.441,-242.660,-47.562,-1831.500,1896.760,-1194.220
931,38652.603000,-55.312,320.759,-185.822,-432.571,-253.384,-45.737,-1624.500,1980.760,-1350.220
932,38652.622000,-55.312,343.020,-207.568,-427.625,-261.169,-44.831,-1523.500,2107.760,-1514.220
933,38652.642000,-61.185,346.055,-204.602,-416.720,-272.873,-46.980,-1313.500,2215.760,-1657.220
934,38652.664000,-72.933,348.079,-196.695,-406.725,-284.565,-53.049,-1046.500,2405.760,-1828.220
935,38652.689000,-63.143,343.020,-190.764,-398.522,-295.262,-68.933,-921.500,2543.760,-1889.220
936,38652.704000,-38.669,343.020,-190.764,-391.410,-306.925,-77.906,-699.500,2635.760,-2026.220
937,38652.730000,-38.669,345.043,-190.764,-371.421,-320.630,-94.979,-489.500,2386.760,-2218.220
938,38652.743000,-57.270,339.984,-192.741,-347.345,-336.296,-120.982,-287.500,2243.760,-2406.220
939,38652.764000,-38.669,335.937,-181.869,-334.250,-347.038,-136.953,-77.500,2471.760,-2544.220
940,38652.785000,-7.342,330.877,-184.834,-301.361,-357.945,-166.071,78.500,2388.760,-2645.220
941,38652.799000,-30.837,336.949,-193.730,-291.289,-362.857,-180.026,292.500,2002.760,-2691.220
942,38652.813000,-9.300,323.794,-172.973,-258.451,-371.831,-207.176,436.500,1913.760,-2625.220
943,38652.844000,21.048,314.688,-190.764,-235.746,-374.928,-217.419,457.500,1238.760,-2543.220
944,38652.863000,-10.279,307.605,-205.591,-201.177,-383.932,-231.803,511.500,801.760,-2502.220
945,38652.885000,-43.564,291.415,-218.440,-183.389,-393.762,-237.028,585.500,267.760,-2416.220
946,38652.903000,-70.975,285.344,-236.232,-150.906,-403.723,-243.498,663.500,127.760,-2364.220
947,38652.925000,-91.533,281.296,-242.162,-110.621,-412.790,-249.122,824.500,271.760,-2343.220
948,38652.948000,-88.597,263.083,-243.151,-90.912,-414.896,-256.360,955.500,455.760,-2348.220
949,38652.966000,-87.618,256.000,-250.069,-44.776,-414.338,-266.037,1078.500,474.760,-2359.220
950,38652.990000,-94.470,244.870,-250.069,-19.257,-417.469,-269.438,1196.500,448.760,-2373.220
951,38653.4000,-104.260,233.739,-253.035,27.769,-409.181,-278.155,1309.500,567.760,-2361.220
952,38653.52000,-98.386,224.632,-255.012,51.252,-405.523,-280.544,1378.500,644.760,-2310.220
953,38653.65000,-95.449,212.490,-256.988,98.242,-391.430,-290.252,1519.500,710.760,-2284.220
954,38653.83000,-81.744,197.312,-256.988,147.084,-373.490,-296.059,1652.500,811.760,-2223.220
955,38653.93000,-69.996,185.170,-258.965,171.475,-364.037,-297.486,1774.500,800.760,-2136.220
956,38653.113000,-74.891,161.897,-257.977,217.217,-345.111,-294.380,1906.500,853.760,-2038.220
957,38653.145000,-59.228,141.660,-248.093,243.468,-332.778,-291.905,2027.500,1029.760,-1896.220
958,38653.168000,-40.627,122.435,-243.151,290.048,-304.190,-285.872,2105.500,1105.760,-1752.220
959,38653.182000,-27.901,104.221,-242.162,310.367,-288.903,-281.327,2187.500,1155.760,-1559.220
960,38653.203000,-4.405,87.020,-240.185,346.028,-262.161,-265.253,2280.500,1077.760,-1317.220
961,38653.225000,-4.405,67.794,-229.313,369.082,-236.266,-254.863,2326.500,1020.760,-1216.220
962,38653.245000,-3.426,49.581,-224.371,402.858,-223.053,-235.787,2401.500,1094.760,-1022.220
963,38653.260000,8.321,28.332,-214.486,430.572,-202.054,-209.721,2466.500,1242.760,-789.220
964,38653.278000,13.216,11.130,-205.591,440.926,-193.464,-191.210,2506.500,1257.760,-562.220
965,38653.303000,12.237,-8.095,-190.764,461.749,-179.181,-159.108,2533.500,1448.760,-367.220
966,38653.330000,27.901,-15.178,-170.996,475.125,-168.677,-146.559,2510.500,1727.760,-121.220
967,38653.359000,34.753,-30.356,-158.147,486.164,-160.112,-111.324,2511.500,1914.760,179.780
968,38653.377000,41.606,-52.617,-145.297,495.742,-162.149,-98.693,2459.500,2155.760,489.780
969,38653.390000,61.185,-63.747,-122.564,503.094,-165.150,-70.271,2378.500,2219.760,823.780
970,38653.408000,73.912,-73.866,-109.714,502.691,-177.756,-40.715,2331.500,2095.760,967.780
971,38653.438000,62.164,-99.162,-100.819,495.688,-187.381,-26.798,2224.500,1920.760,1250.780
972,38653.450000,58.249,-114.340,-87.969,493.478,-210.607,-0.151,2063.500,1771.760,1479.780
973,38653.459000,42.585,-125.470,-77.097,484.656,-220.207,5.923,1893.500,1702.760,1658.780
974,38653.478000,19.090,-134.577,-76.108,473.875,-250.115,22.884,1715.500,1773.760,1808.780
975,38653.500000,13.216,-142.672,-64.247,455.400,-268.330,26.186,1520.500,1875.760,1945.780
976,38653.528000,13.216,-140.648,-54.363,435.137,-301.036,27.567,1316.500,1827.760,2074.780
977,38653.549000,7.342,-135.589,-40.525,411.913,-332.749,29.984,1113.500,1646.760,2181.780
978,38653.567000,-1.468,-135.589,-35.583,401.352,-349.094,27.237,1011.500,1595.760,2219.780
979,38653.589000,4.405,-136.601,-25.699,367.527,-375.860,18.022,767.500,1493.760,2298.780
980,38653.612000,-1.468,-131.542,-24.710,356.032,-393.161,13.323,516.500,1236.760,2349.780
981,38653.629000,-17.132,-129.518,-29.653,324.181,-418.009,2.102,289.500,1092.760,2357.780
982,38653.659000,-23.006,-112.316,-40.525,296.102,-429.349,-8.216,100.500,1037.760,2352.780
983,38653.674000,-48.459,-108.269,-56.340,264.310,-449.353,-25.351,-38.500,1152.760,2414.780
984,38653.697000,-65.101,-113.328,-65.236,244.958,-457.874,-32.874,-149.500,1298.760,2489.780
985,38653.719000,-72.933,-101.186,-60.293,205.406,-471.996,-56.769,-266.500,1353.760,2547.780
986,38653.740000,-99.365,-88.032,-71.166,155.132,-481.178,-85.402,-377.500,1497.760,2599.780
987,38653.759000,-115.029,-86.008,-82.039,130.949,-488.683,-96.779,-437.500,1599.760,2617.780
988,38653.777000,-104.260,-70.830,-79.073,95.265,-492.196,-123.708,-603.500,1467.760,2554.780
989,38653.788000,-116.008,-50.593,-77.097,63.077,-488.025,-131.020,-735.500,1364.760,2454.780
990,38653.814000,-105.239,-37.439,-87.969,25.451,-481.841,-163.832,-957.500,1481.760,2375.780
991,38653.834000,-118.945,-20.237,-92.911,5.967,-477.786,-170.384,-1162.500,1266.760,2224.780
992,38653.857000,-144.398,-1.012,-106.749,-34.769,-467.713,-195.271,-1307.500,1329.760,2102.780
993,38653.875000,-114.050,5.059,-105.761,-79.552,-445.029,-219.116,-1436.500,1790.760,2052.780
994,38653.903000,-80.765,25.296,-123.552,-103.894,-438.993,-228.537,-1675.500,1743.760,1967.780
995,38653.923000,-116.987,45.534,-158.147,-145.949,-418.283,-239.631,-1764.500,1475.760,1820.780
996,38653.938000,-132.650,62.735,-161.112,-161.486,-410.391,-250.194,-1817.500,1372.760,1786.780
997,38653.963000,-77.828,91.067,-150.239,-200.729,-376.164,-261.353,-1927.500,1742.760,1724.780
998,38653.985000,-97.407,111.304,-204.602,-213.477,-369.274,-263.105,-2134.500,1327.760,1629.780
999,38654.5000,-138.524,116.364,-234.255,-253.904,-346.665,-256.509,-2100.500,867.760,1551.780
1000,38654.23000,-173.767,133.565,-242.162,-275.476,-335.825,-259.093,-1911.500,1161.760,1397.780
