Sample, Time, ACCX, ACCY, ACCZ, MAGX, MAGY, MAGZ, GYRX, GYRY, GYRZ
0,38431.984000,0.489,-11.130,-246.116,29.736,-315.248,-383.636,-18.500,-0.240,26.780
1,38432.13000,0.489,-9.107,-245.127,21.890,-313.242,-383.500,-15.500,-10.240,27.780
2,38432.35000,-2.447,-10.119,-246.116,23.821,-312.293,-382.551,-15.500,-14.240,24.780
3,38432.54000,-1.468,-10.119,-246.116,29.684,-315.250,-380.682,-11.500,-16.240,23.780
4,38432.73000,0.489,-9.107,-246.116,26.722,-312.322,-380.633,-8.500,0.760,22.780
5,38432.95000,-1.468,-9.107,-246.116,27.736,-314.264,-381.633,-5.500,1.760,21.780
6,38432.115000,-0.489,-8.095,-246.116,19.951,-313.223,-384.450,-7.500,-0.240,19.780
7,38432.135000,-0.489,-10.119,-247.104,27.780,-317.166,-382.615,-4.500,-5.240,16.780
8,38432.157000,-1.468,-9.107,-246.116,26.792,-314.253,-383.586,-5.500,-4.240,15.780
9,38432.175000,-1.468,-9.107,-245.127,18.902,-311.282,-381.481,-2.500,-1.240,12.780
10,38432.198000,-1.468,-10.119,-245.127,25.822,-315.212,-383.567,-1.500,-0.240,9.780
11,38432.218000,-1.468,-9.107,-245.127,22.826,-314.221,-380.562,1.500,0.760,9.780
12,38432.235000,-1.468,-10.119,-245.127,20.903,-314.201,-382.497,1.500,-2.240,8.780
13,38432.258000,-0.489,-10.119,-245.127,22.790,-308.415,-381.553,-0.500,2.760,7.780
14,38432.266000,-0.489,-9.107,-244.139,24.860,-313.266,-385.521,-2.500,1.760,4.780
15,38432.294000,-1.468,-10.119,-244.139,21.881,-312.274,-383.501,-3.500,-1.240,7.780
16,38432.311000,-0.489,-9.107,-244.139,20.903,-312.265,-383.484,-6.500,4.760,7.780
17,38432.334000,1.468,-8.095,-243.151,22.860,-312.283,-383.518,-8.500,-4.240,4.780
18,38432.356000,0.489,-9.107,-245.127,25.831,-316.179,-383.566,-4.500,-12.240,-2.220
19,38432.374000,-0.489,-9.107,-245.127,23.856,-314.227,-383.534,-4.500,0.760,1.780
20,38432.411000,1.468,-10.119,-244.139,25.727,-316.185,-377.658,-8.500,2.760,3.780
21,38432.440000,1.468,-9.107,-246.116,18.963,-312.246,-384.434,-9.500,-1.240,4.780
22,38432.446000,-1.468,-11.130,-244.139,21.890,-313.242,-383.500,-1.500,-8.240,5.780
23,38432.471000,0.489,-11.130,-243.151,24.843,-313.267,-384.537,-2.500,7.760,0.780
24,38432.486000,4.405,-10.119,-245.127,24.844,-315.203,-383.550,-6.500,1.760,-4.220
25,38432.509000,2.447,-9.107,-246.116,23.865,-315.194,-383.533,-11.500,-11.240,-1.220
26,38432.524000,0.489,-9.107,-246.116,28.731,-312.336,-383.622,-10.500,-6.240,2.780
27,38432.546000,-1.468,-7.083,-247.104,15.993,-310.286,-383.399,-5.500,6.760,5.780
28,38432.564000,2.447,-7.083,-245.127,20.929,-313.232,-384.467,-2.500,-3.240,3.780
29,38432.586000,1.468,-8.095,-247.104,20.895,-313.234,-382.498,-2.500,-13.240,5.780
30,38432.609000,-0.489,-8.095,-245.127,20.868,-312.267,-381.514,-4.500,-14.240,5.780
31,38432.629000,-0.489,-8.095,-245.127,20.842,-311.301,-380.530,-2.500,4.760,7.780
32,38432.644000,0.489,-7.083,-244.139,22.877,-312.282,-384.503,-1.500,5.760,6.780
33,38432.665000,0.489,-8.095,-244.139,22.851,-313.251,-382.533,-2.500,-6.240,5.780
34,38432.688000,-0.489,-9.107,-245.127,24.818,-316.172,-381.579,-0.500,-1.240,4.780
35,38432.720000,-0.489,-9.107,-244.139,18.929,-312.248,-382.464,-4.500,9.760,-2.220
36,38432.739000,0.489,-8.095,-244.139,19.924,-312.256,-383.466,-5.500,2.760,-6.220
37,38432.758000,1.468,-10.119,-245.127,22.808,-312.286,-380.564,-8.500,-3.240,-8.220
38,38432.775000,0.489,-9.107,-245.127,25.813,-314.245,-383.568,-9.500,-5.240,-9.220
39,38432.806000,0.489,-8.095,-244.139,19.951,-315.159,-383.463,-8.500,-11.240,-12.220
40,38432.809000,0.489,-9.107,-244.139,23.847,-311.324,-384.521,-8.500,-2.240,-12.220
41,38432.828000,1.468,-9.107,-245.127,18.920,-311.281,-382.465,-8.500,-2.240,-11.220
42,38432.850000,2.447,-9.107,-244.139,20.902,-310.329,-384.470,-9.500,-4.240,-7.220
43,38432.868000,-1.468,-8.095,-244.139,21.908,-315.176,-383.498,-11.500,-1.240,-8.220
44,38432.890000,0.489,-9.107,-244.139,22.964,-314.213,-388.440,-9.500,0.760,-5.220
45,38432.921000,0.489,-6.071,-245.127,24.791,-311.334,-382.569,-9.500,-12.240,-7.220
46,38432.939000,-0.489,-8.095,-246.116,20.886,-312.266,-382.499,-10.500,-15.240,-8.220
47,38432.959000,-1.468,-8.095,-246.116,21.925,-315.175,-384.483,-12.500,-10.240,-11.220
48,38432.976000,-0.489,-6.071,-245.127,21.899,-312.273,-384.486,-9.500,1.760,-11.220
49,38433.6000,2.447,-7.083,-247.104,22.903,-311.313,-386.474,-9.500,-7.240,-12.220
50,38433.21000,2.447,-8.095,-246.116,26.826,-314.251,-385.555,-9.500,-9.240,-13.220
51,38433.35000,0.489,-7.083,-246.116,18.963,-312.246,-384.434,-8.500,1.760,-10.220
52,38433.58000,2.447,-10.119,-247.104,17.976,-313.206,-383.431,-9.500,1.760,-9.220
53,38433.78000,5.384,-8.095,-246.116,19.977,-314.189,-385.434,-3.500,-14.240,-3.220
54,38433.111000,-0.489,-10.119,-246.116,16.002,-313.189,-382.411,-1.500,-7.240,-9.220
55,38433.134000,1.468,-9.107,-246.116,20.964,-313.230,-386.437,-4.500,5.760,-8.220
56,38433.163000,6.363,-9.107,-246.116,21.899,-312.273,-384.486,-7.500,-8.240,-6.220
57,38433.181000,3.426,-10.119,-246.116,19.933,-313.224,-383.465,-8.500,-27.240,-5.220
58,38433.190000,0.489,-6.071,-248.093,24.852,-314.235,-384.536,-6.500,-4.240,-1.220
59,38433.204000,2.447,-8.095,-246.116,15.984,-311.254,-382.413,0.500,-5.240,2.780
60,38433.221000,4.405,-8.095,-244.139,23.820,-308.421,-384.524,0.500,-18.240,3.780
61,38433.249000,0.489,-6.071,-245.127,18.911,-310.314,-382.466,-0.500,-8.240,5.780
62,38433.271000,2.447,-6.071,-243.151,20.947,-317.102,-383.479,-2.500,-8.240,8.780
63,38433.286000,0.489,-5.059,-245.127,20.929,-313.232,-384.467,-0.500,-12.240,6.780
64,38433.309000,-0.489,-6.071,-244.139,18.946,-312.247,-383.449,-1.500,-11.240,9.780
65,38433.325000,-1.468,-6.071,-245.127,18.929,-312.248,-382.464,-2.500,-6.240,9.780
66,38433.351000,-0.489,-7.083,-245.127,18.946,-312.247,-383.449,-0.500,-7.240,8.780
67,38433.369000,0.489,-7.083,-246.116,21.864,-312.275,-382.516,-3.500,-17.240,0.780
68,38433.392000,1.468,-8.095,-244.139,24.817,-314.237,-382.566,-2.500,-14.240,2.780
69,38433.414000,-0.489,-7.083,-245.127,23.848,-315.195,-382.548,-3.500,-18.240,3.780
70,38433.450000,-0.489,-7.083,-246.116,26.836,-317.155,-384.567,-2.500,-17.240,3.780
71,38433.459000,-0.489,-7.083,-245.127,21.838,-311.309,-381.532,-0.500,-11.240,3.780
72,38433.473000,-2.447,-8.095,-246.116,23.804,-314.230,-380.579,0.500,-12.240,3.780
73,38433.495000,0.489,-8.095,-245.127,23.795,-313.262,-380.580,0.500,-8.240,1.780
74,38433.513000,-1.468,-8.095,-244.139,20.895,-315.169,-381.511,1.500,-12.240,1.780
75,38433.535000,-2.447,-8.095,-245.127,25.796,-316.181,-381.597,-0.500,-15.240,0.780
76,38433.553000,-1.468,-9.107,-245.127,22.835,-315.188,-380.561,-1.500,-12.240,-2.220
77,38433.566000,-1.468,-7.083,-247.104,18.964,-314.182,-383.447,1.500,-16.240,-3.220
78,38433.585000,-1.468,-8.095,-247.104,25.779,-314.246,-381.599,-1.500,-16.240,-9.220
79,38433.610000,-2.447,-7.083,-246.116,23.857,-316.163,-382.547,0.500,-10.240,-8.220
80,38433.633000,-1.468,-8.095,-244.139,18.982,-316.117,-383.445,1.500,-2.240,-9.220
81,38433.655000,-1.468,-6.071,-244.139,19.969,-317.093,-383.462,1.500,-11.240,-13.220
82,38433.673000,-1.468,-7.083,-246.116,22.800,-315.190,-378.592,1.500,-12.240,-13.220
83,38433.700000,-1.468,-9.107,-246.116,20.903,-314.201,-382.497,3.500,-7.240,-14.220
84,38433.723000,201.178,48.569,-240.185,13.935,-323.824,-370.549,-584.500,-175.240,37.780
85,38433.745000,-117.966,-14.166,-239.197,19.819,-340.332,-362.758,-51.500,-1771.240,-148.220
86,38433.776000,-218.799,-92.079,-288.618,22.754,-336.487,-364.783,124.500,-2.240,-50.220
87,38433.780000,-24.964,-37.439,-256.000,16.931,-320.944,-375.528,-42.500,2216.760,-65.220
88,38433.804000,107.197,10.119,-240.185,15.089,-297.690,-394.227,-85.500,1647.760,-163.220
89,38433.829000,132.650,45.534,-225.359,15.020,-299.630,-389.301,-275.500,-296.240,-208.220
90,38433.848000,-14.195,11.130,-264.896,24.781,-306.495,-384.544,-33.500,-1146.240,-236.220
91,38433.863000,-42.585,-16.190,-277.745,18.896,-321.929,-375.561,-6.500,-503.240,-146.220
92,38433.885000,-29.859,-2.024,-271.815,19.900,-319.033,-378.536,1.500,-213.240,-140.220
93,38433.909000,-2.447,-1.012,-264.896,23.857,-316.163,-382.547,30.500,226.760,-74.220
94,38433.918000,31.816,-1.012,-251.058,22.816,-309.382,-382.536,56.500,290.760,-11.220
95,38433.939000,25.943,-2.024,-245.127,23.804,-314.230,-380.579,75.500,-55.240,-9.220
96,38433.965000,-1.468,-7.083,-247.104,26.809,-316.188,-383.584,84.500,-182.240,-3.220
97,38433.988000,-7.342,-9.107,-243.151,25.770,-313.279,-381.600,82.500,-14.240,10.780
98,38434.10000,4.405,-10.119,-239.197,28.697,-314.274,-380.666,71.500,79.760,22.780
99,38434.28000,7.342,-10.119,-236.232,30.689,-316.226,-381.683,54.500,54.760,25.780
100,38434.48000,6.363,-10.119,-235.243,29.745,-316.215,-383.635,39.500,19.760,28.780
101,38434.64000,4.405,-10.119,-237.220,25.743,-310.377,-381.603,32.500,14.760,29.780
102,38434.90000,7.342,-12.142,-239.197,26.774,-312.319,-383.587,22.500,2.760,28.780
103,38434.125000,5.384,-9.107,-240.185,29.701,-315.249,-381.667,17.500,-20.240,28.780
104,38434.144000,3.426,-9.107,-239.197,28.749,-314.271,-383.620,10.500,-42.240,31.780
105,38434.171000,1.468,-9.107,-241.174,28.698,-318.146,-378.692,3.500,-32.240,41.780
106,38434.171000,1.468,-8.095,-244.139,23.769,-312.296,-379.597,-4.500,-29.240,48.780
107,38434.196000,-0.489,-7.083,-244.139,29.719,-317.184,-381.665,-522.500,155.760,-33.220
108,38434.216000,-14.195,-263.083,-123.552,27.653,-329.755,-368.816,-170.500,-1928.240,362.780
109,38434.245000,-104.260,-107.257,-203.614,24.524,-352.001,-346.092,-141.500,-1734.240,-24.220
110,38434.263000,-176.704,-68.806,-252.046,14.723,-355.785,-342.961,-261.500,-506.240,56.780
111,38434.285000,-69.996,-38.451,-249.081,14.798,-345.134,-352.819,-324.500,708.760,-3.220
112,38434.304000,-50.417,-34.403,-281.699,14.067,-330.592,-374.481,-255.500,1060.760,-144.220
113,38434.318000,-13.216,42.498,-276.757,13.043,-323.811,-375.455,-134.500,1220.760,-114.220
114,38434.340000,47.480,45.534,-246.116,11.094,-318.953,-378.380,-53.500,605.760,10.780
115,38434.361000,27.901,-14.166,-254.023,16.956,-319.975,-377.498,-63.500,-245.240,-160.220
116,38434.385000,-28.880,1.012,-279.722,17.926,-320.952,-376.530,-11.500,-119.240,-109.220
117,38434.400000,-21.048,4.047,-273.792,12.029,-317.996,-376.429,27.500,126.760,-41.220
118,38434.418000,0.489,1.012,-262.919,13.059,-316.067,-380.387,51.500,128.760,-30.220
119,38434.448000,8.321,2.024,-255.012,20.878,-317.106,-379.540,60.500,94.760,-24.220
120,38434.468000,9.300,-1.012,-249.081,20.861,-319.043,-377.568,69.500,-38.240,-16.220
121,38434.485000,-0.489,-1.012,-244.139,19.823,-320.005,-373.611,79.500,-135.240,-27.220
122,38434.505000,-12.237,-4.047,-242.162,17.944,-320.951,-377.514,76.500,-49.240,-27.220
123,38434.538000,-6.363,-7.083,-239.197,18.852,-317.092,-375.566,56.500,28.760,-30.220
124,38434.566000,-1.468,-3.036,-238.208,24.793,-319.078,-378.622,44.500,31.760,-26.220
125,38434.569000,-1.468,-7.083,-238.208,21.805,-317.118,-376.603,34.500,28.760,-24.220
126,38434.581000,-2.447,-6.071,-237.220,24.775,-317.143,-378.624,23.500,35.760,-23.220
127,38434.604000,-0.489,-7.083,-236.232,28.697,-316.210,-379.679,14.500,35.760,-23.220
128,38434.624000,2.447,-7.083,-236.232,24.757,-315.208,-378.626,8.500,21.760,-23.220
129,38434.646000,5.384,-4.047,-237.220,22.827,-318.092,-378.589,-2.500,-22.240,-14.220
130,38434.666000,4.405,-4.047,-239.197,27.703,-322.009,-375.717,-13.500,-65.240,0.780
131,38434.683000,-0.489,-3.036,-240.185,28.672,-319.115,-376.722,-16.500,-67.240,12.780
132,38434.710000,-6.363,-6.071,-242.162,18.861,-318.060,-375.565,-15.500,-16.240,18.780
133,38434.731000,-5.384,-9.107,-245.127,22.802,-320.998,-375.631,-16.500,21.760,15.780
134,38434.758000,-5.384,-6.071,-245.127,20.862,-320.979,-376.582,-13.500,41.760,12.780
135,38434.778000,-2.447,-5.059,-247.104,23.840,-318.099,-380.575,-15.500,42.760,4.780
136,38434.825000,-1.468,-5.059,-247.104,22.791,-314.223,-378.593,-13.500,34.760,-0.220
137,38434.825000,-2.447,-4.047,-246.116,23.832,-321.003,-378.603,-16.500,4.760,-0.220
138,38434.839000,-6.363,-7.083,-247.104,23.805,-318.101,-378.606,-11.500,-26.240,-1.220
139,38434.854000,-5.384,-5.059,-247.104,28.707,-319.113,-378.691,-8.500,-19.240,-1.220
140,38434.871000,-3.426,-6.071,-248.093,20.808,-315.174,-376.587,-4.500,-16.240,-1.220
141,38434.885000,-6.363,-5.059,-247.104,19.909,-320.000,-378.535,-2.500,-24.240,-2.220
142,38434.904000,-5.384,-5.059,-246.116,22.827,-318.092,-378.589,2.500,7.760,-0.220
143,38434.929000,-1.468,-3.036,-247.104,17.943,-319.015,-378.501,2.500,28.760,-1.220
144,38434.951000,-1.468,-4.047,-247.104,22.871,-320.994,-379.570,5.500,3.760,4.780
145,38434.971000,-5.384,-5.059,-245.127,19.901,-320.969,-377.549,5.500,-4.240,3.780
146,38434.991000,-2.447,-5.059,-246.116,23.814,-317.133,-379.592,9.500,10.760,4.780
147,38435.14000,-0.489,-5.059,-247.104,19.882,-317.098,-378.538,10.500,6.760,8.780
148,38435.31000,-3.426,-4.047,-247.104,21.891,-317.113,-381.527,14.500,-24.240,4.780
149,38435.54000,-4.405,-5.059,-247.104,23.805,-318.101,-378.606,15.500,-22.240,5.780
150,38435.81000,-4.405,-4.047,-248.093,26.759,-320.063,-378.656,16.500,-6.240,2.780
151,38435.119000,-2.447,-6.071,-247.104,29.676,-318.155,-378.710,17.500,1.760,1.780
152,38435.133000,-1.468,-7.083,-248.093,19.917,-317.096,-380.507,18.500,3.760,-1.220
153,38435.149000,0.489,-8.095,-247.104,22.801,-319.062,-376.618,20.500,-6.240,-11.220
154,38435.171000,6.363,-10.119,-251.058,25.780,-320.054,-378.639,20.500,-14.240,-9.220
155,38435.185000,13.216,-14.166,-257.977,22.792,-318.094,-376.619,15.500,-15.240,-18.220
156,38435.203000,22.027,-13.154,-267.861,24.835,-316.171,-382.564,6.500,25.760,-16.220
157,38435.234000,34.753,-12.142,-272.803,27.771,-318.134,-381.629,30.500,120.760,21.780
158,38435.243000,52.375,-13.154,-268.849,27.736,-314.264,-381.633,71.500,206.760,94.780
159,38435.265000,73.912,-9.107,-264.896,19.873,-312.259,-380.512,92.500,163.760,167.780
160,38435.283000,78.807,-10.119,-265.884,20.869,-316.139,-379.541,126.500,-10.240,270.780
161,38435.305000,72.933,-13.154,-263.907,28.696,-312.338,-381.653,157.500,-41.240,436.780
162,38435.323000,69.996,-11.130,-259.954,18.877,-312.251,-379.510,174.500,63.760,610.780
163,38435.346000,69.017,-11.130,-256.988,15.976,-314.159,-380.441,183.500,116.760,698.780
164,38435.368000,63.143,-14.166,-251.058,9.136,-315.064,-380.319,202.500,180.760,852.780
165,38435.390000,62.164,-12.142,-246.116,6.234,-311.163,-384.210,202.500,215.760,985.780
166,38435.414000,60.207,-12.142,-242.162,-3.612,-310.110,-381.084,193.500,190.760,1082.780
167,38435.428000,52.375,-11.130,-241.174,-13.363,-308.083,-383.867,182.500,148.760,1137.780
168,38435.453000,48.459,-10.119,-237.220,-14.332,-309.042,-383.849,160.500,145.760,1188.780
169,38435.470000,46.501,-6.071,-232.278,-25.026,-308.940,-387.597,132.500,105.760,1251.780
170,38435.498000,42.585,-5.059,-228.324,-34.889,-307.888,-383.486,93.500,-31.240,1310.780
171,38435.530000,38.669,-1.012,-224.371,-48.570,-311.634,-382.255,52.500,-200.240,1348.780
172,38435.530000,27.901,3.036,-225.359,-52.527,-310.633,-380.217,39.500,-283.240,1359.780
173,38435.544000,11.258,5.059,-225.359,-66.277,-316.318,-374.061,24.500,-354.240,1374.780
174,38435.578000,2.447,7.083,-225.359,-82.928,-318.104,-371.795,12.500,-292.240,1402.780
175,38435.591000,-10.279,9.107,-225.359,-82.980,-316.171,-369.828,-1.500,-260.240,1419.780
176,38435.614000,-24.964,11.130,-226.347,-105.493,-320.806,-366.471,-14.500,-156.240,1416.780
177,38435.631000,-26.922,10.119,-229.313,-112.439,-313.974,-364.387,-19.500,-37.240,1392.780
178,38435.649000,-28.880,8.095,-231.290,-124.235,-308.063,-364.185,-34.500,55.760,1351.780
179,38435.670000,-28.880,5.059,-236.232,-128.114,-309.961,-365.099,-60.500,72.760,1321.780
180,38435.691000,-32.795,10.119,-237.220,-141.840,-304.999,-365.846,-59.500,27.760,1286.780
181,38435.714000,-37.690,12.142,-239.197,-154.691,-300.051,-360.702,-57.500,-1.240,1271.780
182,38435.743000,-46.501,12.142,-242.162,-167.394,-299.934,-361.462,-57.500,-60.240,1209.780
183,38435.751000,-55.312,15.178,-246.116,-174.366,-294.071,-357.408,-34.500,-85.240,1153.780
184,38435.789000,-63.143,16.190,-247.104,-182.169,-291.095,-360.227,-28.500,-28.240,1101.780
185,38435.834000,-65.101,12.142,-249.081,-191.063,-285.212,-358.107,-20.500,-20.240,1013.780
186,38435.834000,-65.101,13.154,-249.081,-193.989,-288.089,-357.068,-14.500,-50.240,918.780
187,38435.844000,-62.164,14.166,-247.104,-198.969,-284.178,-354.031,0.500,-152.240,815.780
188,38435.864000,-69.996,10.119,-246.116,-203.914,-282.200,-351.977,2.500,-217.240,699.780
189,38435.874000,-76.849,7.083,-249.081,-210.807,-281.173,-349.887,7.500,-188.240,593.780
190,38435.905000,-74.891,3.036,-245.127,-216.748,-279.187,-346.831,3.500,-184.240,536.780
191,38435.923000,-69.017,1.012,-243.151,-211.812,-278.262,-349.873,-13.500,-225.240,421.780
192,38435.945000,-74.891,2.024,-243.151,-217.787,-280.150,-342.873,-8.500,-266.240,302.780
193,38435.965000,-88.597,0.000,-242.162,-217.725,-283.050,-344.840,-24.500,-142.240,188.780
194,38435.985000,-75.870,0.000,-242.162,-221.709,-281.083,-341.818,-32.500,-63.240,81.780
195,38436.4000,-60.207,-4.047,-239.197,-225.571,-282.980,-343.717,-43.500,-91.240,-35.220
196,38436.25000,-59.228,-3.036,-238.208,-222.704,-283.010,-339.830,-52.500,-52.240,-119.220
197,38436.46000,-62.164,-3.036,-243.151,-222.635,-283.007,-343.769,-63.500,109.760,-150.220
198,38436.69000,-49.438,-7.083,-242.162,-218.739,-281.107,-343.840,-69.500,212.760,-182.220
199,38436.86000,-31.816,-3.036,-244.139,-218.688,-279.169,-347.781,-67.500,230.760,-189.220
200,38436.108000,-22.027,-5.059,-242.162,-222.653,-279.136,-344.757,-60.500,231.760,-177.220
201,38436.131000,-18.111,-3.036,-243.151,-221.614,-280.109,-347.728,-60.500,169.760,-176.220
202,38436.149000,-22.027,-4.047,-246.116,-214.756,-279.203,-348.835,-48.500,52.760,-207.220
203,38436.170000,-31.816,0.000,-248.093,-212.851,-279.224,-345.915,-31.500,-4.240,-228.220
204,38436.196000,-47.480,7.083,-256.000,-216.704,-282.089,-347.813,-12.500,-47.240,-256.220
205,38436.203000,-65.101,9.107,-255.012,-212.789,-285.996,-345.908,23.500,-12.240,-298.220
206,38436.221000,-72.933,6.071,-255.012,-207.810,-284.100,-351.905,40.500,78.760,-348.220
207,38436.249000,-73.912,9.107,-251.058,-206.945,-281.211,-347.002,58.500,130.760,-435.220
208,38436.276000,-75.870,13.154,-255.012,-203.844,-288.004,-352.955,69.500,122.760,-486.220
209,38436.294000,-77.828,14.166,-254.023,-193.106,-289.071,-351.175,85.500,59.760,-596.220
210,38436.313000,-78.807,10.119,-249.081,-188.074,-292.979,-357.166,99.500,-32.240,-720.220
211,38436.333000,-81.744,14.166,-248.093,-174.409,-295.042,-354.452,104.500,-78.240,-873.220
212,38436.355000,-86.639,14.166,-248.093,-176.261,-300.825,-357.366,111.500,-75.240,-1004.220
213,38436.378000,-75.870,14.166,-248.093,-161.513,-304.826,-359.591,110.500,-12.240,-1108.220
214,38436.400000,-64.122,12.142,-248.093,-154.637,-309.727,-358.723,100.500,-61.240,-1225.220
215,38436.418000,-59.228,17.202,-247.104,-139.933,-310.827,-359.966,91.500,-142.240,-1343.220
216,38436.440000,-54.333,14.166,-245.127,-133.022,-315.725,-361.067,78.500,-186.240,-1439.220
217,38436.463000,-54.333,13.154,-244.139,-112.480,-324.623,-356.498,71.500,-204.240,-1482.220
218,38436.489000,-54.333,13.154,-239.197,-109.501,-325.615,-358.518,53.500,-199.240,-1536.220
219,38436.503000,-49.438,12.142,-232.278,-91.860,-334.485,-355.867,20.500,-157.240,-1573.220
220,38436.519000,-32.795,16.190,-235.243,-70.298,-338.551,-356.244,-20.500,-187.240,-1648.220
221,38436.539000,-22.027,17.202,-239.197,-62.503,-342.495,-352.439,-34.500,-265.240,-1743.220
222,38436.556000,-33.774,15.178,-241.174,-41.963,-345.586,-350.830,-35.500,-280.240,-1781.220
223,38436.579000,-30.837,14.166,-240.185,-36.992,-348.530,-353.868,-62.500,-106.240,-1798.220
224,38436.604000,-5.384,17.202,-242.162,-19.363,-344.818,-357.137,-76.500,10.760,-1831.220
225,38436.620000,7.342,15.178,-243.151,-5.638,-345.909,-358.363,-52.500,29.760,-1789.220
226,38436.644000,12.237,10.119,-242.162,15.801,-340.302,-356.780,-48.500,71.760,-1728.220
227,38436.666000,14.195,4.047,-239.197,31.526,-340.440,-360.996,-47.500,64.760,-1601.220
228,38436.709000,16.153,2.024,-243.151,39.328,-339.545,-360.151,-51.500,51.760,-1512.220
229,38436.725000,21.048,2.024,-245.127,58.931,-333.914,-365.427,-41.500,56.760,-1443.220
230,38436.728000,16.153,0.000,-247.104,60.844,-329.094,-365.466,-18.500,47.760,-1392.220
231,38436.754000,10.279,-1.012,-250.069,75.564,-328.258,-368.681,-4.500,103.760,-1346.220
232,38436.771000,8.321,-6.071,-245.127,83.365,-323.491,-369.809,2.500,147.760,-1296.220
233,38436.791000,16.153,-5.059,-244.139,98.959,-318.797,-369.106,-12.500,142.760,-1318.220
234,38436.817000,34.753,3.036,-255.012,111.677,-309.234,-374.264,15.500,107.760,-1368.220
235,38436.831000,30.837,-6.071,-255.012,126.328,-308.401,-373.540,33.500,30.760,-1360.220
236,38436.858000,19.090,-18.213,-243.151,135.089,-299.772,-375.674,38.500,70.760,-1271.220
237,38436.873000,5.384,-23.273,-236.232,137.002,-298.825,-373.740,28.500,97.760,-1147.220
238,38436.886000,17.132,-11.130,-244.139,151.677,-289.279,-378.933,2.500,180.760,-1124.220
239,38436.912000,57.270,-2.024,-247.104,160.449,-287.425,-378.106,35.500,101.760,-1173.220
240,38436.935000,60.207,-13.154,-247.104,169.245,-280.731,-381.223,58.500,-129.240,-1184.220
241,38436.954000,42.585,-23.273,-234.255,181.826,-276.983,-375.543,46.500,-230.240,-1080.220
242,38436.971000,14.195,-31.368,-228.324,189.636,-275.119,-375.684,20.500,-194.240,-971.220
243,38436.994000,-10.279,-26.308,-237.220,197.480,-269.382,-379.767,1.500,-55.240,-937.220
244,38437.11000,11.258,-15.178,-240.185,197.426,-261.642,-380.759,6.500,336.760,-915.220
245,38437.34000,40.627,-20.237,-231.290,207.111,-245.282,-383.903,21.500,424.760,-897.220
246,38437.54000,32.795,-32.379,-226.347,209.103,-245.298,-385.907,18.500,268.760,-872.220
247,38437.74000,21.048,-35.415,-226.347,213.949,-234.698,-388.959,-33.500,246.760,-833.220
248,38437.111000,40.627,-21.249,-229.313,216.893,-231.820,-390.983,-62.500,238.760,-852.220
249,38437.140000,62.164,-16.190,-234.255,224.665,-218.344,-395.074,-72.500,137.760,-878.220
250,38437.144000,65.101,-21.249,-231.290,228.466,-213.546,-391.209,-93.500,11.760,-835.220
251,38437.165000,69.017,-28.332,-229.313,235.314,-209.737,-393.304,-141.500,-121.240,-730.220
252,38437.179000,78.807,-22.261,-236.232,237.262,-208.788,-393.340,-152.500,-248.240,-690.220
253,38437.195000,71.954,-17.202,-244.139,233.358,-211.655,-392.283,-135.500,-467.240,-618.220
254,38437.221000,55.312,-20.237,-255.012,233.366,-210.687,-393.268,-132.500,-372.240,-521.220
255,38437.244000,57.270,-17.202,-259.954,238.258,-210.731,-393.355,-104.500,-239.240,-408.220
256,38437.265000,46.501,-19.225,-258.965,236.179,-206.849,-388.400,-78.500,-130.240,-304.220
257,38437.284000,43.564,-18.213,-257.977,239.132,-206.874,-389.437,-67.500,31.760,-214.220
258,38437.306000,58.249,-14.166,-260.942,239.167,-208.808,-390.420,-25.500,12.760,-154.220
259,38437.326000,46.501,-20.237,-258.965,242.041,-205.935,-388.505,2.500,66.760,-93.220
260,38437.344000,36.711,-26.308,-258.965,234.247,-201.990,-392.310,15.500,159.760,-18.220
261,38437.364000,44.543,-24.285,-256.988,238.144,-203.962,-390.407,22.500,136.760,9.780
262,38437.390000,38.669,-23.273,-256.000,243.063,-204.973,-391.478,39.500,80.760,41.780
263,38437.408000,34.753,-21.249,-254.023,240.083,-200.110,-391.431,58.500,106.760,66.780
264,38437.424000,40.627,-22.261,-251.058,236.221,-202.007,-393.329,65.500,122.760,89.780
265,38437.450000,36.711,-24.285,-251.058,238.099,-197.190,-391.399,66.500,195.760,136.780
266,38437.476000,45.522,-22.261,-244.139,242.118,-199.155,-396.390,74.500,303.760,202.780
267,38437.491000,55.312,-25.296,-239.197,239.112,-195.261,-394.373,74.500,296.760,248.780
268,38437.534000,69.996,-19.225,-239.197,241.095,-194.309,-396.378,67.500,211.760,281.780
269,38437.534000,72.933,-24.285,-241.174,239.138,-196.227,-395.356,64.500,62.760,311.780
270,38437.548000,63.143,-28.332,-245.127,239.165,-199.129,-395.353,62.500,15.760,326.780
271,38437.570000,72.933,-25.296,-244.139,232.298,-199.068,-394.247,54.500,98.760,388.780
272,38437.590000,86.639,-23.273,-236.232,230.393,-199.047,-397.167,54.500,228.760,484.780
273,38437.613000,92.512,-26.308,-232.278,227.502,-203.858,-397.110,43.500,297.760,585.780
274,38437.630000,106.218,-25.296,-228.324,228.506,-202.897,-399.098,13.500,381.760,720.780
275,38437.651000,113.071,-21.249,-225.359,223.657,-203.818,-400.980,-13.500,393.760,870.780
276,38437.674000,107.197,-19.225,-226.347,215.916,-205.678,-404.779,-41.500,401.760,1001.780
277,38437.696000,103.281,-20.237,-226.347,208.201,-206.568,-410.548,-74.500,540.760,1145.780
278,38437.719000,93.491,-22.261,-227.336,202.287,-205.549,-408.476,-108.500,718.760,1273.780
279,38437.744000,101.323,-19.225,-224.371,189.713,-202.522,-418.101,-130.500,824.760,1334.780
280,38437.759000,118.945,-12.142,-221.405,188.864,-201.538,-425.963,-180.500,955.760,1425.780
281,38437.781000,129.713,-10.119,-221.405,175.190,-200.444,-427.691,-237.500,898.760,1484.780
282,38437.800000,123.839,-13.154,-223.382,156.615,-194.466,-431.308,-298.500,750.760,1554.780
283,38437.823000,107.197,-10.119,-226.347,144.942,-194.356,-435.039,-364.500,664.760,1638.780
284,38437.840000,98.386,-3.036,-226.347,127.469,-198.059,-440.632,-408.500,684.760,1705.780
285,38437.863000,95.449,0.000,-224.371,121.614,-192.198,-444.473,-459.500,781.760,1745.780
286,38437.883000,91.533,3.036,-224.371,96.224,-190.028,-447.964,-524.500,837.760,1780.780
287,38437.905000,86.639,10.119,-229.313,85.565,-189.924,-453.683,-571.500,833.760,1819.780
288,38437.925000,77.828,16.190,-229.313,68.980,-182.027,-460.290,-586.500,830.760,1833.780
289,38437.945000,59.228,22.261,-232.278,51.304,-171.223,-461.958,-607.500,903.760,1806.780
290,38437.974000,57.270,25.296,-230.301,37.646,-162.385,-468.618,-633.500,1166.760,1774.780
291,38437.988000,75.870,26.308,-233.266,20.038,-147.706,-476.200,-678.500,1343.760,1739.780
292,38438.16000,86.639,28.332,-228.324,13.195,-138.932,-481.011,-717.500,1244.760,1687.780
293,38438.23000,87.618,32.379,-228.324,-6.516,-125.212,-479.694,-746.500,1066.760,1607.780
294,38438.45000,92.512,23.273,-231.290,-24.140,-116.341,-483.330,-784.500,855.760,1551.780
295,38438.65000,93.491,27.320,-236.232,-38.942,-104.600,-482.098,-789.500,646.760,1476.780
296,38438.85000,91.533,30.356,-230.301,-57.656,-96.694,-478.823,-775.500,587.760,1409.780
297,38438.104000,93.491,25.296,-227.336,-65.476,-93.719,-480.657,-778.500,520.760,1370.780
298,38438.140000,98.386,20.237,-229.313,-81.204,-83.902,-481.374,-788.500,455.760,1305.780
299,38438.143000,96.428,15.178,-232.278,-91.076,-79.946,-478.251,-794.500,340.760,1265.780
300,38438.166000,98.386,15.178,-233.266,-103.789,-74.990,-480.985,-780.500,189.760,1223.780
301,38438.189000,60.207,22.261,-232.278,-115.635,-72.954,-475.856,-708.500,235.760,1147.780
302,38438.212000,26.922,10.119,-241.174,-131.398,-59.267,-476.577,-679.500,765.760,1093.780
303,38438.244000,73.912,-5.059,-248.093,-129.539,-50.579,-475.636,-679.500,978.760,1016.780
304,38438.271000,115.029,3.036,-239.197,-139.517,-36.950,-471.537,-635.500,453.760,885.780
305,38438.285000,94.470,4.047,-248.093,-152.212,-35.865,-473.283,-603.500,152.760,751.780
306,38438.294000,62.164,1.012,-258.965,-151.312,-34.910,-469.362,-521.500,-119.240,671.780
307,38438.319000,62.164,0.000,-260.942,-164.058,-33.828,-468.154,-444.500,-41.240,532.780
308,38438.338000,78.807,-2.024,-257.977,-169.998,-33.779,-464.111,-370.500,-123.240,417.780
309,38438.360000,76.849,-1.012,-259.954,-172.845,-41.490,-465.036,-272.500,-344.240,297.780
310,38438.378000,59.228,-2.024,-257.977,-173.919,-42.455,-459.109,-176.500,-302.240,192.780
311,38438.405000,62.164,-8.095,-254.023,-177.773,-41.448,-462.980,-113.500,-53.240,111.780
312,38438.420000,81.744,-12.142,-249.081,-174.854,-41.475,-462.047,-53.500,60.760,61.780
313,38438.443000,98.386,-13.154,-238.208,-175.842,-38.563,-463.017,-1.500,17.760,18.780
314,38438.460000,99.365,-14.166,-228.324,-178.829,-40.475,-459.024,25.500,-9.240,-0.220
315,38438.486000,101.323,-21.249,-219.429,-171.971,-39.569,-460.131,53.500,-1.240,-34.220
316,38438.498000,115.029,-21.249,-209.544,-176.777,-41.456,-463.982,51.500,-18.240,-55.220
317,38438.511000,124.818,-20.237,-207.568,-175.763,-43.398,-464.982,41.500,-165.240,-85.220
318,38438.530000,115.029,-19.225,-212.510,-172.809,-47.296,-464.045,38.500,-231.240,-113.220
319,38438.555000,108.176,-16.190,-215.475,-171.926,-48.278,-458.153,34.500,-125.240,-122.220
320,38438.578000,107.197,-10.119,-213.498,-171.822,-48.272,-464.061,44.500,-38.240,-111.220
321,38438.598000,108.176,-9.107,-216.463,-172.808,-51.167,-462.072,53.500,-59.240,-102.220
322,38438.620000,105.239,-4.047,-220.417,-163.985,-49.311,-464.199,68.500,-154.240,-101.220
323,38438.648000,89.576,-1.012,-226.347,-165.862,-57.999,-464.156,80.500,-204.240,-114.220
324,38438.665000,79.786,3.036,-228.324,-161.956,-60.939,-462.252,110.500,-360.240,-152.220
325,38438.703000,79.786,3.036,-235.243,-157.961,-75.489,-459.353,159.500,-715.240,-267.220
326,38438.703000,71.954,3.036,-237.220,-162.747,-83.182,-461.228,216.500,-1226.240,-455.220
327,38438.725000,50.417,0.000,-240.185,-156.696,-110.326,-457.365,232.500,-1659.240,-661.220
328,38438.753000,28.880,0.000,-242.162,-152.645,-140.359,-449.526,231.500,-1893.240,-862.220
329,38438.775000,13.216,1.012,-241.174,-144.726,-159.783,-444.721,215.500,-1991.240,-1045.220
330,38438.789000,-0.489,3.036,-245.127,-129.944,-195.723,-432.143,179.500,-1971.240,-1198.220
331,38438.806000,-19.090,1.012,-253.035,-131.829,-205.381,-431.114,155.500,-1717.240,-1318.220
332,38438.836000,-33.774,0.000,-261.931,-118.098,-229.701,-420.499,143.500,-1527.240,-1358.220
333,38438.856000,-33.774,5.059,-271.815,-111.186,-238.471,-419.627,157.500,-1082.240,-1429.220
334,38438.865000,-2.447,10.119,-268.849,-92.609,-250.256,-413.050,165.500,-677.240,-1474.220
335,38438.893000,10.279,15.178,-264.896,-79.833,-263.919,-409.323,161.500,-617.240,-1518.220
336,38438.910000,0.489,14.166,-260.942,-78.879,-268.769,-405.396,172.500,-741.240,-1561.220
337,38438.934000,-2.447,15.178,-256.000,-58.259,-282.502,-402.791,158.500,-693.240,-1540.220
338,38438.955000,8.321,25.296,-254.023,-48.473,-286.463,-400.991,148.500,-576.240,-1530.220
339,38438.971000,4.405,22.261,-253.035,-32.798,-292.411,-399.293,154.500,-515.240,-1550.220
340,38438.994000,8.321,15.178,-251.058,-24.060,-296.367,-393.536,152.500,-407.240,-1505.220
341,38439.11000,14.195,15.178,-251.058,-3.476,-300.423,-393.895,141.500,-403.240,-1474.220
342,38439.34000,19.090,19.225,-249.081,8.251,-310.210,-388.185,118.500,-528.240,-1485.220
343,38439.51000,27.901,26.308,-253.035,13.117,-309.288,-387.287,102.500,-612.240,-1583.220
344,38439.74000,22.027,16.190,-253.035,33.632,-313.348,-383.708,92.500,-642.240,-1607.220
345,38439.91000,-0.489,5.059,-245.127,44.328,-319.257,-376.999,83.500,-637.240,-1524.220
346,38439.114000,-2.447,12.142,-234.255,55.983,-319.369,-372.283,48.500,-505.240,-1445.220
347,38439.154000,22.027,21.249,-244.139,66.791,-322.368,-373.455,1.500,-454.240,-1447.220
348,38439.157000,16.153,11.130,-249.081,80.438,-322.496,-370.743,17.500,-483.240,-1464.220
349,38439.184000,-19.090,-1.012,-237.220,92.118,-319.702,-368.984,29.500,-348.240,-1380.220
350,38439.208000,-25.943,-3.036,-228.324,104.779,-322.725,-364.282,17.500,-219.240,-1324.220
351,38439.228000,16.153,12.142,-238.208,114.466,-314.108,-363.479,-47.500,-37.240,-1334.220
352,38439.246000,38.669,14.166,-253.035,128.235,-314.229,-367.660,-59.500,-224.240,-1405.220
353,38439.268000,2.447,1.012,-251.058,143.734,-312.444,-360.061,-30.500,-401.240,-1396.220
354,38439.286000,-25.943,-5.059,-238.208,143.768,-310.507,-363.017,-35.500,-222.240,-1299.220
355,38439.304000,1.468,-1.012,-236.232,157.440,-305.793,-364.249,-67.500,-47.240,-1246.220
356,38439.326000,36.711,14.166,-242.162,162.270,-299.066,-364.342,-79.500,-197.240,-1259.220
357,38439.344000,28.880,9.107,-247.104,176.790,-293.401,-358.699,-77.500,-364.240,-1247.220
358,38439.368000,14.195,-1.012,-242.162,185.606,-294.448,-358.854,-80.500,-305.240,-1163.220
359,38439.385000,11.258,-7.083,-230.301,196.394,-291.641,-362.001,-85.500,-260.240,-1102.220
360,38439.403000,29.859,2.024,-235.243,204.083,-287.848,-356.235,-134.500,-222.240,-1038.220
361,38439.425000,37.690,-3.036,-249.081,206.066,-286.897,-358.240,-142.500,-281.240,-991.220
362,38439.450000,20.069,-12.142,-244.139,209.857,-283.068,-353.390,-120.500,-236.240,-900.220
363,38439.468000,9.300,-25.296,-239.197,214.723,-278.274,-354.466,-125.500,-124.240,-781.220
364,38439.485000,9.300,-29.344,-233.266,222.594,-277.375,-357.559,-138.500,-136.240,-683.220
365,38439.515000,3.426,-20.237,-232.278,226.481,-274.508,-357.632,-181.500,-276.240,-694.220
366,38439.556000,-0.489,-10.119,-246.116,224.446,-273.527,-353.659,-202.500,-303.240,-748.220
367,38439.565000,-4.405,-16.190,-253.035,234.195,-267.811,-354.822,-213.500,-147.240,-739.220
368,38439.579000,4.405,-9.107,-249.081,227.345,-265.812,-355.688,-214.500,-101.240,-731.220
369,38439.594000,3.426,-6.071,-252.046,239.069,-263.984,-355.898,-220.500,-95.240,-703.220
370,38439.616000,8.321,-7.083,-255.012,241.016,-259.163,-357.907,-197.500,32.760,-631.220
371,38439.631000,23.985,-6.071,-255.012,244.002,-253.380,-363.873,-174.500,106.760,-526.220
372,38439.648000,27.901,-7.083,-260.942,239.940,-248.513,-357.900,-150.500,88.760,-422.220
373,38439.674000,34.753,-7.083,-262.919,240.009,-248.509,-361.839,-113.500,92.760,-314.220
374,38439.696000,35.732,-12.142,-263.907,240.952,-246.584,-360.874,-76.500,33.760,-202.220
375,38439.720000,25.943,-16.190,-263.907,244.969,-244.678,-367.838,-50.500,6.760,-109.220
376,38439.736000,17.132,-16.190,-260.942,241.055,-244.642,-367.769,-20.500,9.760,-50.220
377,38439.756000,17.132,-14.166,-259.954,245.948,-244.687,-367.855,-10.500,66.760,-16.220
378,38439.774000,16.153,-16.190,-255.012,244.008,-244.668,-368.806,9.500,83.760,42.780
379,38439.804000,5.384,-18.213,-251.058,239.981,-241.735,-363.815,17.500,59.760,77.780
380,38439.818000,-6.363,-17.202,-246.116,235.140,-239.752,-367.670,22.500,118.760,98.780
381,38439.826000,-13.216,-16.190,-244.139,245.920,-237.913,-369.832,11.500,220.760,85.780
382,38439.855000,-6.363,-11.130,-243.151,244.985,-236.934,-372.770,12.500,232.760,97.780
383,38439.898000,-7.342,-13.154,-240.185,244.933,-236.937,-369.815,17.500,151.760,130.780
384,38439.904000,-10.279,-13.154,-236.232,237.175,-238.798,-372.629,5.500,43.760,156.780
385,38439.921000,-17.132,-11.130,-241.174,238.057,-235.908,-368.710,2.500,1.760,153.780
386,38439.939000,-25.943,-5.059,-246.116,238.145,-241.711,-370.674,14.500,25.760,155.780
387,38439.961000,-18.111,-6.071,-245.127,234.249,-241.674,-371.590,17.500,104.760,169.780
388,38439.979000,-2.447,-10.119,-244.139,240.093,-240.761,-370.710,6.500,41.760,172.780
389,38440.1000,-3.426,-8.095,-246.116,241.080,-239.802,-371.713,2.500,-7.240,171.780
390,38440.24000,-0.489,-8.095,-252.046,234.240,-240.707,-371.591,5.500,115.760,202.780
391,38440.44000,21.048,-10.119,-255.012,232.351,-238.749,-376.482,22.500,168.760,274.780
392,38440.66000,41.606,-9.107,-253.035,226.464,-242.568,-373.420,36.500,110.760,354.780
393,38440.89000,46.501,-9.107,-248.093,230.369,-241.637,-373.490,45.500,155.760,445.780
394,38440.106000,54.333,-13.154,-248.093,220.637,-243.480,-375.285,40.500,196.760,510.780
395,38440.131000,67.059,-12.142,-245.127,218.820,-249.262,-380.168,40.500,207.760,639.780
396,38440.146000,69.017,-6.071,-240.185,214.811,-250.200,-374.189,37.500,187.760,760.780
397,38440.170000,69.017,-1.012,-243.151,211.919,-251.139,-376.106,29.500,246.760,871.780
398,38440.203000,75.870,3.036,-245.127,201.233,-252.004,-379.854,26.500,293.760,999.780
399,38440.221000,69.996,4.047,-245.127,193.528,-255.798,-384.635,23.500,351.760,1133.780
400,38440.250000,62.164,6.071,-244.139,191.580,-258.683,-383.613,12.500,434.760,1255.780
401,38440.253000,59.228,16.190,-251.058,181.891,-261.492,-387.376,5.500,401.760,1344.780
402,38440.271000,52.375,24.285,-258.965,166.253,-265.221,-386.110,3.500,370.760,1406.780
403,38440.289000,53.354,30.356,-267.861,160.531,-269.999,-391.910,6.500,398.760,1431.780
404,38440.309000,41.606,22.261,-264.896,144.927,-271.789,-393.601,45.500,450.760,1518.780
405,38440.328000,33.774,19.225,-262.919,139.073,-269.799,-395.469,55.500,486.760,1613.780
406,38440.350000,24.964,22.261,-258.965,119.598,-268.648,-401.032,53.500,446.760,1677.780
407,38440.373000,22.027,27.320,-256.000,120.604,-275.430,-399.073,49.500,453.760,1687.780
408,38440.395000,33.774,20.237,-256.988,104.048,-274.307,-403.704,28.500,486.760,1693.780
409,38440.418000,17.132,13.154,-248.093,92.367,-277.100,-405.463,9.500,301.760,1697.780
410,38440.435000,-0.489,14.166,-240.185,75.733,-278.885,-404.182,-15.500,196.760,1681.780
411,38440.460000,-11.258,22.261,-242.162,71.793,-279.819,-402.142,-30.500,252.760,1622.780
412,38440.483000,5.384,15.178,-240.185,52.327,-277.699,-408.691,-36.500,323.760,1593.780
413,38440.495000,24.964,10.119,-234.255,39.591,-285.328,-403.535,-91.500,249.760,1573.780
414,38440.518000,-5.384,14.166,-238.208,32.811,-285.261,-407.353,-124.500,-179.240,1505.780
415,38440.535000,-36.711,14.166,-241.174,18.083,-290.938,-401.179,-114.500,-201.240,1434.780
416,38440.563000,-5.384,14.166,-236.232,4.437,-294.682,-401.918,-124.500,136.760,1386.780
417,38440.580000,18.111,9.107,-238.208,-9.280,-292.623,-401.677,-158.500,39.760,1371.780
418,38440.605000,-9.300,11.130,-243.151,-14.259,-290.647,-397.654,-154.500,-285.240,1325.780
419,38440.620000,-32.795,10.119,-249.081,-25.966,-292.475,-398.429,-119.500,-205.240,1276.780
420,38440.653000,-7.342,12.142,-247.104,-37.793,-296.244,-391.324,-116.500,0.760,1222.780
421,38440.699000,12.237,12.142,-248.093,-51.449,-295.149,-394.037,-116.500,-57.240,1199.780
422,38440.702000,-13.216,10.119,-250.069,-61.293,-299.903,-387.951,-103.500,-321.240,1159.780
423,38440.704000,-31.816,12.142,-248.093,-63.337,-297.954,-383.979,-79.500,-255.240,1131.780
424,38440.725000,-19.090,14.166,-243.151,-77.054,-297.831,-382.752,-56.500,20.760,1090.780
425,38440.748000,9.300,12.142,-236.232,-72.110,-295.937,-386.779,-71.500,74.760,1070.780
426,38440.770000,-0.489,10.119,-235.243,-88.777,-301.595,-381.556,-91.500,-196.240,1053.780
427,38440.788000,-27.901,15.178,-229.313,-101.594,-294.709,-379.368,-91.500,-238.240,1045.780
428,38440.808000,-35.732,14.166,-222.394,-115.336,-295.555,-376.171,-101.500,-101.240,1008.780
429,38440.821000,-23.985,10.119,-218.440,-121.207,-295.502,-376.067,-142.500,-57.240,973.780
430,38440.835000,-22.027,1.012,-225.359,-125.190,-295.470,-372.058,-172.500,-202.240,952.780
431,38440.868000,-60.207,-2.024,-235.243,-140.949,-299.205,-363.900,-199.500,-507.240,879.780
432,38440.888000,-91.533,2.024,-240.185,-142.915,-300.156,-362.879,-179.500,-449.240,769.780
433,38440.920000,-90.554,-1.012,-251.058,-148.819,-303.976,-358.833,-167.500,-219.240,651.780
434,38440.939000,-79.786,-2.024,-256.988,-155.756,-301.983,-354.774,-158.500,-134.240,540.780
435,38440.953000,-80.765,0.000,-256.988,-160.693,-297.101,-354.693,-144.500,-173.240,411.780
436,38440.970000,-91.533,-1.012,-263.907,-161.591,-303.863,-355.653,-120.500,-97.240,266.780
437,38440.990000,-77.828,0.000,-264.896,-164.667,-296.101,-351.670,-91.500,36.760,155.780
438,38441.20000,-60.207,1.012,-261.931,-166.536,-301.886,-353.599,-55.500,11.760,48.780
439,38441.41000,-68.038,3.036,-261.931,-160.708,-302.909,-350.748,-37.500,-64.240,5.780
440,38441.59000,-68.038,5.059,-261.931,-162.613,-302.889,-353.668,-10.500,76.760,-49.220
441,38441.75000,-56.291,3.036,-257.977,-166.546,-298.982,-354.587,20.500,201.760,-104.220
442,38441.96000,-40.627,1.012,-253.035,-164.572,-297.063,-356.593,41.500,164.760,-176.220
443,38441.119000,-29.859,2.024,-248.093,-161.602,-297.088,-358.614,52.500,100.760,-264.220
444,38441.139000,-25.943,0.000,-244.139,-155.722,-298.109,-358.717,41.500,112.760,-308.220
445,38441.148000,-22.027,-1.012,-247.104,-151.843,-296.211,-357.804,34.500,124.760,-296.220
446,38441.166000,-13.216,1.012,-242.162,-158.597,-299.047,-361.619,47.500,77.760,-312.220
447,38441.214000,-18.111,1.012,-241.174,-151.687,-298.138,-365.680,56.500,75.760,-335.220
448,38441.233000,-22.027,-1.012,-238.208,-144.837,-298.200,-365.801,72.500,144.760,-333.220
449,38441.241000,-15.174,-1.012,-233.266,-142.776,-300.148,-370.757,55.500,147.760,-340.220
450,38441.260000,-18.111,0.000,-233.266,-144.803,-298.198,-367.770,33.500,39.760,-385.220
451,38441.277000,-30.837,0.000,-238.208,-132.056,-299.280,-368.979,27.500,14.760,-425.220
452,38441.301000,-40.627,0.000,-240.185,-134.992,-299.253,-368.927,29.500,37.760,-462.220
453,38441.319000,-37.690,0.000,-241.174,-128.152,-296.413,-370.036,31.500,36.760,-534.220
454,38441.341000,-36.711,-1.012,-242.162,-128.090,-301.249,-371.016,16.500,44.760,-626.220
455,38441.363000,-36.711,-1.012,-245.127,-119.293,-298.426,-372.159,4.500,79.760,-676.220
456,38441.379000,-21.048,0.000,-241.174,-111.437,-305.270,-370.321,-6.500,34.760,-729.220
457,38441.401000,-25.943,5.059,-246.116,-109.419,-308.189,-372.323,-8.500,-153.240,-755.220
458,38441.424000,-50.417,3.036,-249.081,-106.483,-308.215,-372.375,13.500,-157.240,-788.220
459,38441.446000,-62.164,1.012,-248.093,-97.651,-309.262,-373.514,11.500,-33.240,-820.220
460,38441.469000,-50.417,6.071,-251.058,-88.871,-308.375,-372.686,13.500,-26.240,-918.220
461,38441.492000,-49.438,11.130,-253.035,-80.063,-312.327,-370.868,32.500,-135.240,-1019.220
462,38441.509000,-64.122,12.142,-250.069,-70.173,-318.217,-373.990,30.500,-166.240,-1096.220
463,38441.529000,-48.459,15.178,-246.116,-56.534,-321.249,-369.305,21.500,-248.240,-1237.220
464,38441.546000,-49.438,21.249,-244.139,-57.503,-322.208,-369.287,23.500,-160.240,-1327.220
465,38441.569000,-67.059,17.202,-233.266,-42.835,-321.374,-369.547,10.500,-9.240,-1325.220
466,38441.586000,-25.943,28.332,-216.463,-27.075,-321.510,-375.733,-46.500,61.760,-1375.220
467,38441.610000,-16.153,20.237,-229.313,-16.390,-322.580,-370.998,-102.500,-164.240,-1479.220
468,38441.626000,-34.753,16.190,-226.347,-1.635,-321.742,-376.183,-122.500,-96.240,-1454.220
469,38441.649000,-19.090,23.273,-225.359,2.253,-318.875,-376.255,-143.500,120.760,-1370.220
470,38441.671000,6.363,26.308,-246.116,14.021,-319.948,-377.446,-178.500,137.760,-1416.220
471,38441.694000,0.489,21.249,-255.012,22.810,-320.029,-376.617,-162.500,64.760,-1455.220
472,38441.716000,-23.006,17.202,-246.116,35.581,-314.335,-382.756,-143.500,24.760,-1422.220
473,38441.739000,-3.426,31.368,-254.023,39.477,-312.435,-382.828,-167.500,45.760,-1429.220
474,38441.754000,23.006,45.534,-270.826,56.145,-310.649,-386.078,-173.500,15.760,-1486.220
475,38441.776000,4.405,35.415,-270.826,70.831,-309.814,-387.323,-133.500,-120.240,-1580.220
476,38441.801000,-18.111,25.296,-258.965,78.553,-302.148,-385.500,-97.500,-66.240,-1533.220
477,38441.804000,12.237,43.510,-256.988,83.497,-300.254,-389.527,-89.500,100.760,-1445.220
478,38441.821000,35.732,44.522,-270.826,97.081,-291.673,-387.809,-74.500,-7.240,-1492.220
479,38441.854000,21.048,34.403,-269.838,106.883,-289.826,-389.953,-29.500,-58.240,-1494.220
480,38441.876000,13.216,23.273,-252.046,112.702,-287.946,-388.090,6.500,44.760,-1385.220
481,38441.896000,18.111,30.356,-247.104,129.334,-280.354,-392.331,12.500,88.760,-1330.220
482,38441.919000,37.690,28.332,-255.012,140.996,-271.754,-392.547,18.500,94.760,-1308.220
483,38441.941000,54.333,23.273,-248.093,144.866,-268.889,-391.634,26.500,60.760,-1288.220
484,38441.961000,36.711,15.178,-239.197,153.575,-262.199,-389.827,32.500,-152.240,-1241.220
485,38441.982000,28.880,19.225,-238.208,165.273,-257.469,-390.040,11.500,-238.240,-1175.220
486,38442.9000,37.690,19.225,-239.197,177.076,-258.540,-393.201,-9.500,-188.240,-1119.220
487,38442.31000,25.943,7.083,-236.232,179.959,-258.570,-390.298,-14.500,-215.240,-1043.220
488,38442.49000,17.132,2.024,-230.301,180.824,-251.810,-387.368,-44.500,-222.240,-950.220
489,38442.66000,28.880,17.202,-237.220,198.420,-253.906,-385.708,-95.500,-283.240,-955.220
490,38442.86000,31.816,20.237,-255.012,196.435,-249.051,-386.663,-94.500,-376.240,-978.220
491,38442.105000,10.279,3.036,-254.023,204.176,-245.255,-383.851,-87.500,-225.240,-928.220
492,38442.124000,17.132,4.047,-240.185,208.107,-243.354,-385.892,-86.500,-116.240,-877.220
493,38442.150000,40.627,8.095,-239.197,214.851,-237.615,-383.065,-101.500,-80.240,-804.220
494,38442.154000,41.606,5.059,-246.116,215.838,-238.591,-383.081,-112.500,-143.240,-757.220
495,38442.183000,45.522,1.012,-245.127,220.721,-235.732,-384.155,-119.500,-17.240,-643.220
496,38442.210000,51.396,-1.012,-238.208,220.720,-231.861,-386.129,-121.500,24.760,-492.220
497,38442.228000,43.564,-6.071,-235.243,217.732,-227.965,-385.096,-120.500,-16.240,-362.220
498,38442.245000,47.480,0.000,-240.185,220.754,-227.987,-390.072,-131.500,-49.240,-269.220
499,38442.267000,45.522,-1.012,-246.116,218.693,-227.975,-384.128,-146.500,-141.240,-202.220
500,38442.288000,26.922,-5.059,-253.035,219.715,-227.014,-387.101,-147.500,-106.240,-136.220
501,38442.310000,18.111,-2.024,-254.023,216.727,-225.054,-385.082,-137.500,-55.240,-97.220
502,38442.334000,14.195,2.024,-256.000,213.844,-226.961,-386.997,-123.500,-7.240,-46.220
503,38442.350000,17.132,5.059,-260.942,217.818,-227.961,-390.020,-104.500,2.760,-0.220
504,38442.386000,12.237,1.012,-261.931,214.857,-226.967,-388.984,-86.500,-64.240,42.780
505,38442.390000,-2.447,1.012,-261.931,212.960,-227.914,-391.903,-55.500,-79.240,73.780
506,38442.410000,-9.300,3.036,-261.931,209.020,-226.912,-390.850,-35.500,-11.240,91.780
507,38442.434000,-0.489,5.059,-260.942,210.069,-230.789,-392.833,-24.500,-24.240,97.780
508,38442.452000,-1.468,4.047,-259.954,207.038,-229.799,-387.858,-7.500,-104.240,98.780
509,38442.469000,-10.279,6.071,-258.965,209.056,-232.718,-389.859,18.500,-115.240,105.780
510,38442.483000,-18.111,3.036,-258.965,210.980,-236.609,-385.951,25.500,-88.240,112.780
511,38442.515000,-10.279,5.059,-256.000,211.993,-236.616,-387.938,39.500,-42.240,123.780
512,38442.538000,-3.426,7.083,-253.035,213.846,-234.704,-383.050,54.500,-88.240,135.780
513,38442.565000,-5.384,5.059,-253.035,210.045,-239.501,-386.915,68.500,-106.240,161.780
514,38442.598000,-3.426,4.047,-255.012,205.171,-241.392,-386.827,81.500,-61.240,202.780
515,38442.611000,6.363,7.083,-257.977,215.952,-243.424,-387.015,95.500,-39.240,235.780
516,38442.625000,10.279,11.130,-261.931,213.917,-244.379,-382.056,123.500,16.760,278.780
517,38442.641000,17.132,12.142,-263.907,212.965,-245.336,-383.022,150.500,98.760,357.780
518,38442.666000,30.837,13.154,-263.907,205.111,-246.234,-380.913,177.500,117.760,442.780
519,38442.694000,43.564,13.154,-264.896,202.254,-249.107,-383.813,192.500,116.760,489.780
520,38442.700000,57.270,16.190,-265.884,204.168,-250.095,-380.892,228.500,146.760,591.780
521,38442.723000,60.207,13.154,-261.931,199.241,-248.117,-379.823,264.500,234.760,730.780
522,38442.743000,62.164,10.119,-254.023,202.290,-251.041,-384.796,263.500,372.760,881.780
523,38442.760000,73.912,11.130,-245.127,197.424,-255.834,-383.720,253.500,413.760,1044.780
524,38442.783000,80.765,12.142,-239.197,190.610,-259.642,-383.594,252.500,349.760,1198.780
525,38442.805000,72.933,12.142,-234.255,175.994,-260.473,-386.288,240.500,308.760,1317.780
526,38442.845000,46.501,9.107,-231.290,180.921,-262.451,-387.358,208.500,465.760,1437.780
527,38442.869000,42.585,9.107,-228.324,164.331,-263.265,-389.032,147.500,545.760,1525.780
528,38442.872000,61.185,13.154,-228.324,153.646,-268.002,-390.806,122.500,446.760,1542.780
529,38442.890000,44.543,19.225,-232.278,147.828,-271.818,-391.683,109.500,253.760,1583.780
530,38442.913000,23.985,13.154,-239.197,135.178,-277.505,-392.437,79.500,243.760,1633.780
531,38442.930000,23.006,18.213,-236.232,123.429,-280.303,-390.257,54.500,194.760,1651.780
532,38442.953000,-7.342,18.213,-242.162,115.671,-284.099,-392.085,48.500,207.760,1647.780
533,38442.970000,14.195,17.202,-244.139,105.912,-283.041,-393.882,9.500,463.760,1661.780
534,38442.993000,33.774,21.249,-236.232,86.386,-285.764,-394.518,-40.500,432.760,1646.780
535,38443.15000,17.132,27.320,-239.197,74.757,-288.555,-399.231,-69.500,177.760,1626.780
536,38443.33000,7.342,25.296,-247.104,66.895,-290.421,-396.136,-70.500,135.760,1609.780
537,38443.53000,30.837,21.249,-242.162,42.493,-289.228,-399.644,-92.500,263.760,1624.780
538,38443.70000,33.774,25.296,-245.127,35.644,-289.165,-399.523,-136.500,136.760,1655.780
539,38443.98000,-15.174,25.296,-253.035,17.071,-294.803,-397.219,-130.500,-194.240,1677.780
540,38443.151000,-28.880,24.285,-253.035,11.192,-295.718,-396.129,-91.500,5.760,1679.780
541,38443.154000,12.237,29.344,-247.104,-2.534,-290.755,-396.877,-97.500,349.760,1650.780
542,38443.163000,32.795,32.379,-244.139,-14.223,-296.453,-396.663,-120.500,79.760,1589.780
543,38443.183000,-4.405,33.391,-248.093,-36.763,-296.250,-394.296,-122.500,-361.240,1541.780
544,38443.205000,-32.795,31.368,-251.058,-47.551,-300.993,-390.161,-110.500,-327.240,1499.780
545,38443.220000,-24.964,29.344,-250.069,-53.431,-299.972,-390.059,-103.500,-207.240,1443.780
546,38443.245000,-6.363,28.332,-245.127,-75.979,-300.738,-386.705,-96.500,-89.240,1411.780
547,38443.260000,-5.384,27.320,-243.151,-79.979,-302.643,-380.726,-105.500,-255.240,1325.780
548,38443.276000,-6.363,28.332,-248.093,-91.703,-306.407,-379.529,-110.500,-414.240,1229.780
549,38443.298000,-15.174,26.308,-246.116,-103.505,-305.336,-376.368,-96.500,-501.240,1168.780
550,38443.319000,-48.459,26.308,-246.116,-112.433,-307.198,-368.333,-51.500,-510.240,1156.780
551,38443.339000,-50.417,26.308,-240.185,-125.247,-309.992,-361.211,-29.500,-289.240,1183.780
552,38443.362000,-33.774,27.320,-233.266,-124.234,-309.999,-363.198,-14.500,-338.240,1195.780
553,38443.379000,-49.438,26.308,-233.266,-140.054,-312.769,-352.086,-6.500,-600.240,1160.780
554,38443.401000,-80.765,18.213,-235.243,-143.984,-316.606,-349.059,3.500,-661.240,1119.780
555,38443.422000,-83.702,16.190,-235.243,-158.747,-318.413,-342.889,6.500,-550.240,1013.780
556,38443.439000,-84.681,15.178,-236.232,-160.712,-321.300,-340.882,6.500,-483.240,884.780
557,38443.458000,-98.386,11.130,-239.197,-170.601,-321.217,-334.800,-0.500,-484.240,744.780
558,38443.471000,-104.260,7.083,-244.139,-174.584,-323.121,-329.805,-13.500,-377.240,598.780
559,38443.500000,-102.302,6.071,-245.127,-173.562,-324.095,-331.791,-6.500,-262.240,438.780
560,38443.541000,-100.344,5.059,-246.116,-177.562,-326.000,-325.811,-8.500,-155.240,300.780
561,38443.555000,-92.512,5.059,-245.127,-178.523,-324.054,-327.765,0.500,-108.240,185.780
562,38443.572000,-83.702,4.047,-244.139,-183.477,-323.046,-324.726,7.500,-104.240,79.780
563,38443.593000,-77.828,2.024,-240.185,-179.571,-324.049,-323.809,8.500,-111.240,34.780
564,38443.606000,-71.954,1.012,-239.197,-178.583,-326.962,-322.839,-4.500,-109.240,-53.220
565,38443.644000,-64.122,0.000,-241.174,-179.518,-329.854,-323.803,-23.500,-71.240,-126.220
566,38443.654000,-55.312,-1.012,-244.139,-180.575,-326.946,-320.835,-30.500,-30.240,-166.220
567,38443.663000,-47.480,0.000,-241.174,-177.586,-330.841,-321.867,-31.500,-26.240,-184.220
568,38443.690000,-46.501,-1.012,-241.174,-177.638,-330.844,-318.913,-28.500,-54.240,-217.220
569,38443.710000,-47.480,-2.024,-246.116,-170.649,-336.706,-323.952,-29.500,-1.240,-234.220
570,38443.735000,-35.732,-5.059,-246.116,-165.835,-335.787,-320.101,-32.500,15.760,-223.220
571,38443.749000,-27.901,-4.047,-241.174,-167.749,-332.863,-324.008,-34.500,-55.240,-223.220
572,38443.769000,-28.880,-3.036,-240.185,-171.740,-335.735,-318.027,-36.500,-89.240,-221.220
573,38443.806000,-26.922,0.000,-239.197,-170.648,-338.642,-322.965,-36.500,-113.240,-209.220
574,38443.808000,-30.837,1.012,-236.232,-163.842,-339.674,-320.131,-38.500,-129.240,-184.220
575,38443.837000,-40.627,3.036,-240.185,-166.734,-342.549,-321.061,-28.500,-126.240,-150.220
576,38443.865000,-56.291,8.095,-243.151,-164.759,-342.566,-322.081,-2.500,-111.240,-127.220
577,38443.879000,-79.786,9.107,-244.139,-165.780,-347.399,-317.135,28.500,-13.240,-156.220
578,38443.898000,-95.449,10.119,-243.151,-160.827,-344.536,-322.148,48.500,117.760,-247.220
579,38443.915000,-101.323,9.107,-244.139,-153.070,-340.739,-320.321,54.500,163.760,-350.220
580,38443.937000,-106.218,10.119,-241.174,-153.044,-341.706,-321.304,67.500,125.760,-442.220
581,38443.958000,-116.008,8.095,-235.243,-148.099,-343.683,-323.358,61.500,97.760,-497.220
582,38443.975000,-124.818,8.095,-233.266,-141.145,-343.740,-329.388,37.500,84.760,-645.220
583,38443.989000,-117.966,8.095,-235.243,-129.430,-342.880,-328.612,16.500,122.760,-807.220
584,38444.15000,-102.302,13.154,-235.243,-131.316,-348.666,-329.556,1.500,120.760,-947.220
585,38444.42000,-97.407,14.166,-234.255,-118.613,-348.782,-328.796,-19.500,34.760,-1056.220
586,38444.62000,-101.323,12.142,-237.220,-108.794,-346.934,-331.926,-32.500,53.760,-1138.220
587,38444.79000,-89.576,16.190,-237.220,-98.930,-349.922,-335.050,-43.500,105.760,-1228.220
588,38444.101000,-66.080,21.249,-237.220,-93.024,-351.909,-336.137,-41.500,13.760,-1342.220
589,38444.128000,-60.207,25.296,-239.197,-71.436,-356.941,-337.497,-31.500,-20.240,-1395.220
590,38444.145000,-71.954,22.261,-237.220,-55.841,-354.183,-335.807,-28.500,74.760,-1392.220
591,38444.165000,-63.143,23.273,-233.266,-52.758,-355.169,-343.737,-54.500,229.760,-1432.220
592,38444.200000,-38.669,26.308,-241.174,-37.137,-355.314,-342.044,-60.500,221.760,-1500.220
593,38444.208000,-27.901,20.237,-241.174,-23.343,-354.465,-348.196,-33.500,76.760,-1534.220
594,38444.225000,-38.669,14.166,-233.266,-5.740,-351.722,-349.495,-57.500,-56.240,-1525.220
595,38444.247000,-40.627,17.202,-242.162,6.981,-353.773,-348.733,-105.500,-82.240,-1559.220
596,38444.273000,-26.922,28.332,-249.081,16.757,-350.959,-349.894,-92.500,-72.240,-1642.220
597,38444.289000,-35.732,26.308,-246.116,33.374,-351.111,-349.203,-86.500,67.760,-1661.220
598,38444.319000,-43.564,22.261,-236.232,41.157,-344.410,-350.333,-99.500,153.760,-1600.220
599,38444.332000,-0.489,33.391,-244.139,58.795,-341.665,-353.602,-126.500,116.760,-1609.220
600,38444.354000,-9.300,31.368,-247.104,72.502,-340.821,-354.830,-128.500,-90.240,-1656.220
601,38444.371000,-19.090,25.296,-241.174,90.105,-338.078,-356.129,-120.500,-172.240,-1703.220
602,38444.388000,-12.237,21.249,-238.208,94.001,-334.243,-357.187,-147.500,-154.240,-1665.220
603,38444.414000,-6.363,27.320,-237.220,110.540,-331.496,-353.545,-169.500,-218.240,-1629.220
604,38444.437000,-2.447,32.379,-237.220,132.021,-324.919,-354.917,-195.500,-287.240,-1650.220
605,38444.458000,-1.468,24.285,-243.151,142.706,-322.117,-352.156,-217.500,-277.240,-1701.220
606,38444.459000,6.363,21.249,-240.185,153.442,-317.377,-353.336,-239.500,-200.240,-1688.220
607,38444.489000,7.342,18.213,-235.243,162.266,-315.520,-355.463,-246.500,-202.240,-1653.220
608,38444.514000,6.363,13.154,-235.243,168.065,-307.835,-355.574,-260.500,-224.240,-1559.220
609,38444.540000,15.174,12.142,-241.174,175.815,-305.006,-352.762,-281.500,-168.240,-1501.220
610,38444.555000,23.006,9.107,-242.162,185.598,-297.352,-356.881,-276.500,-81.240,-1439.220
611,38444.575000,24.964,6.071,-241.174,192.393,-289.674,-357.995,-265.500,-27.240,-1353.220
612,38444.600000,16.153,2.024,-240.185,206.065,-283.025,-360.214,-256.500,30.760,-1212.220
613,38444.619000,26.922,7.083,-242.162,211.967,-271.462,-368.207,-274.500,133.760,-1098.220
614,38444.643000,50.417,15.178,-254.023,209.992,-269.509,-368.175,-273.500,126.760,-1055.220
615,38444.660000,48.459,6.071,-263.907,221.655,-262.845,-367.404,-242.500,88.760,-1017.220
616,38444.683000,48.459,2.024,-262.919,223.575,-255.122,-369.416,-229.500,98.760,-970.220
617,38444.705000,49.438,1.012,-263.907,220.620,-247.353,-372.326,-202.500,92.760,-821.220
618,38444.724000,34.753,0.000,-266.873,224.560,-246.419,-374.366,-162.500,68.760,-691.220
619,38444.762000,38.669,-1.012,-266.873,229.364,-236.790,-374.462,-123.500,225.760,-583.220
620,38444.762000,53.354,-2.024,-259.954,234.254,-229.091,-378.496,-92.500,290.760,-491.220
621,38444.784000,50.417,-4.047,-257.977,243.113,-231.104,-380.619,-76.500,162.760,-418.220
622,38444.798000,39.648,-9.107,-254.023,234.217,-221.350,-380.473,-68.500,98.760,-330.220
623,38444.825000,39.648,-3.036,-257.977,237.214,-222.341,-383.478,-53.500,57.760,-232.220
624,38444.844000,22.027,-5.059,-257.977,237.178,-218.471,-383.482,-28.500,59.760,-145.220
625,38444.866000,23.006,-6.071,-253.035,234.207,-214.575,-383.434,-19.500,114.760,-98.220
626,38444.889000,24.964,-5.059,-251.058,234.252,-219.412,-383.429,-7.500,107.760,-19.220
627,38444.906000,14.195,-7.083,-250.069,242.123,-220.449,-385.536,-2.500,-12.240,30.780
628,38444.930000,10.279,-4.047,-250.069,233.273,-219.403,-383.412,1.500,-63.240,60.780
629,38444.946000,0.489,-2.024,-253.035,234.260,-218.444,-384.415,8.500,-105.240,70.780
630,38444.967000,-12.237,-7.083,-253.035,236.200,-220.398,-382.478,13.500,-33.240,85.780
631,38444.994000,-2.447,-7.083,-248.093,236.217,-220.397,-383.463,14.500,14.760,108.780
632,38445.15000,-2.447,-2.024,-250.069,239.154,-224.296,-381.541,23.500,-96.240,112.780
633,38445.30000,-21.048,-6.071,-248.093,236.253,-226.203,-382.472,28.500,-52.240,118.780
634,38445.52000,-15.174,-3.036,-245.127,238.140,-220.417,-381.528,29.500,-1.240,123.780
635,38445.68000,-15.174,-6.071,-245.127,238.158,-222.352,-381.526,29.500,1.760,126.780
636,38445.95000,-18.111,-9.107,-244.139,238.202,-225.253,-382.508,25.500,2.760,128.780
637,38445.116000,-13.216,-7.083,-243.151,228.373,-224.199,-380.366,15.500,14.760,120.780
638,38445.134000,-9.300,-3.036,-248.093,228.452,-229.034,-382.331,13.500,23.760,111.780
639,38445.160000,6.363,-5.059,-252.046,231.362,-228.094,-381.399,5.500,47.760,131.780
640,38445.180000,23.985,-1.012,-255.012,226.469,-228.049,-381.313,11.500,-9.240,155.780
641,38445.208000,32.795,-1.012,-258.965,236.263,-231.042,-380.498,20.500,45.760,222.780
642,38445.227000,52.375,0.000,-258.965,229.500,-229.039,-386.287,32.500,124.760,323.780
643,38445.245000,70.975,4.047,-261.931,227.493,-234.831,-380.338,45.500,124.760,385.780
644,38445.265000,82.723,5.059,-260.942,221.647,-233.808,-382.205,82.500,117.760,539.780
645,38445.280000,78.807,5.059,-256.988,215.847,-237.623,-384.067,109.500,162.760,692.780
646,38445.309000,80.765,5.059,-254.023,222.678,-235.750,-384.190,120.500,296.760,842.780
647,38445.318000,94.470,10.119,-249.081,212.072,-243.387,-388.915,121.500,348.760,991.780
648,38445.340000,87.618,6.071,-244.139,202.270,-243.299,-387.758,122.500,344.760,1136.780
649,38445.360000,76.849,7.083,-242.162,195.491,-247.104,-389.602,106.500,384.760,1275.780
650,38445.383000,76.849,9.107,-240.185,190.704,-252.861,-392.464,98.500,328.760,1389.780
651,38445.408000,69.017,12.142,-240.185,180.902,-254.709,-390.320,85.500,284.760,1477.780
652,38445.423000,54.333,15.178,-241.174,167.309,-264.257,-391.052,73.500,252.760,1523.780
653,38445.443000,47.480,19.225,-243.151,164.391,-264.230,-391.985,43.500,207.760,1594.780
654,38445.463000,32.795,20.237,-247.104,147.828,-271.818,-391.683,23.500,211.760,1651.780
655,38445.484000,25.943,24.285,-248.093,137.091,-272.686,-392.477,14.500,294.760,1697.780
656,38445.510000,29.859,31.368,-246.116,120.501,-275.436,-393.165,5.500,277.760,1724.780
657,38445.528000,23.985,27.320,-243.151,116.701,-282.170,-396.043,-26.500,249.760,1757.780
658,38445.553000,28.880,29.344,-242.162,95.201,-286.812,-394.673,-39.500,118.760,1767.780
659,38445.587000,13.216,32.379,-239.197,77.589,-290.523,-392.388,-48.500,102.760,1767.780
660,38445.605000,-0.489,30.356,-233.266,70.732,-293.365,-390.294,-65.500,126.760,1751.780
661,38445.609000,-1.468,29.344,-233.266,53.189,-297.073,-391.948,-94.500,114.760,1748.780
662,38445.633000,-4.405,31.368,-232.278,43.448,-299.885,-392.757,-116.500,13.760,1723.780
663,38445.660000,-5.384,37.439,-234.255,22.857,-300.668,-389.439,-120.500,-103.240,1668.780
664,38445.675000,-25.943,36.427,-241.174,16.069,-303.506,-391.284,-125.500,-70.240,1620.780
665,38445.698000,-25.943,37.439,-240.185,1.367,-308.214,-387.081,-138.500,-44.240,1584.780
666,38445.713000,-37.690,36.427,-250.069,-15.251,-306.126,-388.758,-133.500,-139.240,1525.780
667,38445.729000,-36.711,38.451,-248.093,-30.940,-309.857,-384.538,-111.500,-73.240,1459.780
668,38445.750000,-23.006,36.427,-252.046,-45.618,-309.724,-384.279,-99.500,-21.240,1405.780
669,38445.760000,-17.132,36.427,-250.069,-49.619,-307.757,-380.272,-91.500,-77.240,1379.780
670,38445.789000,-34.753,36.427,-249.081,-65.265,-312.454,-378.021,-71.500,-259.240,1330.780
671,38445.820000,-52.375,29.344,-248.093,-67.282,-313.407,-374.047,-31.500,-277.240,1264.780
672,38445.834000,-43.564,23.273,-244.139,-80.946,-313.281,-375.774,-24.500,-67.240,1219.780
673,38445.851000,-26.922,22.261,-239.197,-88.809,-313.211,-373.666,-34.500,-57.240,1171.780
674,38445.869000,-56.291,16.190,-244.139,-101.642,-312.134,-367.533,-33.500,-323.240,1104.780
675,38445.891000,-82.723,13.154,-247.104,-114.423,-312.990,-363.368,-19.500,-306.240,1009.780
676,38445.909000,-78.807,11.130,-244.139,-109.556,-314.004,-361.484,-17.500,-109.240,912.780
677,38445.937000,-71.954,9.107,-245.127,-122.311,-311.954,-360.277,-27.500,-144.240,796.780
678,38445.950000,-86.639,8.095,-246.116,-131.091,-314.776,-360.118,-24.500,-215.240,733.780
679,38445.993000,-91.533,5.059,-247.104,-134.079,-312.817,-358.099,-18.500,-230.240,585.780
680,38446.11000,-84.681,5.059,-249.081,-131.213,-312.847,-354.211,-23.500,-127.240,445.780
681,38446.26000,-76.849,5.059,-249.081,-140.980,-314.693,-354.036,-21.500,-64.240,317.780
682,38446.41000,-73.912,2.024,-252.046,-143.916,-310.795,-355.958,-13.500,0.760,219.780
683,38446.69000,-64.122,1.012,-251.058,-137.006,-313.757,-358.046,-5.500,116.760,164.780
684,38446.81000,-49.438,-1.012,-249.081,-142.939,-306.932,-357.949,10.500,184.760,108.780
685,38446.101000,-28.880,0.000,-247.104,-145.848,-307.872,-358.881,21.500,159.760,39.780
686,38446.115000,-23.985,-2.024,-244.139,-146.801,-304.958,-361.820,21.500,33.760,0.780
687,38446.142000,-23.006,-7.083,-246.116,-141.917,-307.907,-359.935,11.500,-11.240,-15.220
688,38446.160000,-23.985,-3.036,-244.139,-143.935,-306.924,-356.947,7.500,-28.240,-46.220
689,38446.180000,-13.216,-3.036,-242.162,-141.024,-309.856,-354.041,11.500,12.760,-82.220
690,38446.206000,-3.426,-4.047,-240.185,-139.950,-310.828,-358.981,7.500,-13.240,-97.220
691,38446.224000,-11.258,-2.024,-240.185,-138.029,-306.976,-359.020,-0.500,-76.240,-103.220
692,38446.241000,-17.132,-3.036,-237.220,-143.856,-309.824,-359.898,-5.500,-6.240,-86.220
693,38446.273000,-16.153,-2.024,-235.243,-140.947,-306.948,-359.953,-14.500,61.760,-85.220
694,38446.290000,-18.111,-1.012,-238.208,-137.042,-306.016,-360.023,-28.500,89.760,-90.220
695,38446.307000,-23.006,2.024,-243.151,-132.132,-306.060,-361.094,-28.500,39.760,-92.220
696,38446.328000,-41.606,5.059,-249.081,-140.895,-306.945,-362.907,-22.500,4.760,-101.220
697,38446.350000,-65.101,9.107,-253.035,-138.946,-309.867,-360.969,6.500,-30.240,-135.220
698,38446.378000,-82.723,14.166,-254.023,-130.114,-308.978,-363.095,43.500,0.760,-227.220
699,38446.397000,-90.554,17.202,-253.035,-132.088,-308.961,-362.076,78.500,73.760,-373.220
700,38446.424000,-91.533,14.166,-249.081,-124.235,-306.127,-365.172,89.500,101.760,-520.220
701,38446.424000,-92.512,11.130,-251.058,-118.320,-309.082,-366.257,79.500,60.760,-646.220
702,38446.456000,-100.344,11.130,-251.058,-107.504,-313.048,-367.429,79.500,55.760,-787.220
703,38446.477000,-91.533,20.237,-252.046,-110.448,-312.054,-367.378,97.500,90.760,-939.220
704,38446.493000,-69.017,28.332,-255.012,-96.723,-313.145,-368.604,132.500,56.760,-1067.220
705,38446.517000,-59.228,27.320,-255.012,-83.951,-313.258,-371.783,148.500,23.760,-1110.220
706,38446.538000,-49.438,21.249,-253.035,-69.255,-317.262,-371.054,153.500,23.760,-1162.220
707,38446.558000,-33.774,18.213,-250.069,-59.367,-315.409,-378.122,130.500,-29.240,-1255.220
708,38446.578000,-35.732,16.190,-251.058,-51.616,-320.324,-371.362,133.500,-94.240,-1331.220
709,38446.598000,-38.669,20.237,-245.127,-33.899,-320.479,-377.582,135.500,-113.240,-1358.220
710,38446.620000,-24.964,22.261,-242.162,-28.080,-322.471,-373.745,104.500,-175.240,-1445.220
711,38446.643000,-15.174,24.285,-239.197,-13.349,-326.473,-374.985,79.500,-250.240,-1560.220
712,38446.658000,-28.880,22.261,-230.301,4.211,-324.700,-373.329,34.500,-183.240,-1601.220
713,38446.677000,-23.985,25.296,-229.313,15.019,-327.699,-374.501,-19.500,-178.240,-1632.220
714,38446.699000,-18.111,26.308,-233.266,32.545,-327.864,-369.889,-32.500,-187.240,-1649.220
715,38446.716000,-20.069,25.296,-235.243,37.453,-322.100,-373.920,-52.500,-141.240,-1693.220
716,38446.737000,-15.174,26.308,-231.290,56.018,-321.303,-373.265,-68.500,-92.240,-1718.220
717,38446.754000,-4.405,26.308,-235.243,70.704,-320.468,-374.511,-108.500,-128.240,-1737.220
718,38446.774000,1.468,25.296,-240.185,81.405,-313.794,-374.708,-145.500,-171.240,-1750.220
719,38446.824000,7.342,29.344,-243.151,98.991,-311.052,-375.022,-153.500,-226.240,-1765.220
720,38446.838000,3.426,27.320,-243.151,112.673,-311.177,-374.280,-166.500,-194.240,-1777.220
721,38446.846000,8.321,32.379,-251.058,127.254,-304.541,-372.576,-157.500,-69.240,-1763.220
722,38446.864000,17.132,28.332,-254.023,133.149,-299.754,-376.624,-150.500,-18.240,-1684.220
723,38446.881000,34.753,23.273,-248.093,145.772,-291.164,-375.873,-135.500,-67.240,-1624.220
724,38446.906000,32.795,20.237,-250.069,155.566,-290.284,-377.032,-129.500,-219.240,-1532.220
725,38446.929000,19.090,22.261,-252.046,169.193,-282.669,-377.282,-119.500,-152.240,-1464.220
726,38446.958000,30.837,21.249,-253.035,171.132,-280.752,-377.318,-102.500,-60.240,-1396.220
727,38446.975000,39.648,12.142,-249.081,188.657,-273.174,-376.653,-104.500,-139.240,-1332.220
728,38446.995000,37.690,8.095,-244.139,191.505,-269.334,-373.754,-121.500,-248.240,-1265.220
729,38447.8000,31.816,7.083,-248.093,197.340,-265.518,-373.862,-142.500,-269.240,-1238.220
730,38447.30000,32.795,8.095,-254.023,209.090,-260.785,-377.029,-135.500,-209.240,-1187.220
731,38447.52000,36.711,5.059,-255.012,215.869,-256.980,-375.184,-131.500,-188.240,-1147.220
732,38447.73000,37.690,0.000,-246.116,223.582,-248.346,-373.362,-144.500,-178.240,-1060.220
733,38447.102000,40.627,0.000,-245.127,218.672,-246.367,-373.278,-150.500,-222.240,-995.220
734,38447.121000,47.480,-1.012,-240.185,234.310,-244.574,-373.556,-155.500,-187.240,-909.220
735,38447.140000,46.501,-1.012,-241.174,229.338,-239.695,-371.505,-176.500,-274.240,-830.220
736,38447.158000,28.880,-3.036,-246.116,238.136,-238.807,-371.662,-188.500,-337.240,-760.220
737,38447.172000,23.006,-5.059,-249.081,239.096,-234.946,-372.668,-190.500,-177.240,-684.220
738,38447.194000,32.795,-2.024,-250.069,234.150,-229.097,-372.587,-186.500,-53.240,-610.220
739,38447.214000,34.753,-2.024,-251.058,240.099,-230.114,-376.629,-174.500,-114.240,-552.220
740,38447.231000,35.732,1.012,-253.035,239.986,-227.216,-371.708,-160.500,-153.240,-522.220
741,38447.253000,27.901,2.024,-259.954,241.025,-226.254,-375.665,-132.500,-167.240,-421.220
742,38447.279000,26.922,1.012,-260.942,245.926,-227.266,-375.751,-106.500,-35.240,-259.220
743,38447.297000,28.880,2.024,-259.954,247.865,-223.413,-376.774,-79.500,95.760,-97.220
744,38447.319000,19.090,-6.071,-259.954,244.956,-224.353,-377.706,-40.500,71.760,19.780
745,38447.339000,14.195,-7.083,-256.000,244.965,-225.320,-377.705,-12.500,25.760,99.780
746,38447.356000,-1.468,-5.059,-256.000,239.085,-224.299,-377.602,0.500,-43.240,123.780
747,38447.384000,-6.363,-3.036,-254.023,242.038,-228.197,-376.666,6.500,26.760,147.780
748,38447.399000,3.426,-2.024,-252.046,237.120,-229.122,-374.609,9.500,-2.240,170.780
749,38447.431000,-13.216,-2.024,-255.012,241.060,-228.188,-376.648,13.500,-45.240,167.780
750,38447.441000,-6.363,-2.024,-256.988,240.100,-232.049,-375.642,23.500,29.760,200.780
751,38447.463000,10.279,0.000,-256.000,238.143,-232.032,-375.608,34.500,53.760,246.780
752,38447.480000,17.132,3.036,-260.942,230.359,-234.862,-376.451,51.500,-67.240,287.780
753,38447.513000,18.111,4.047,-265.884,232.247,-236.819,-371.560,84.500,-100.240,353.780
754,38447.549000,29.859,9.107,-263.907,234.291,-236.832,-376.518,121.500,-5.240,454.780
755,38447.555000,44.543,9.107,-262.919,232.371,-246.491,-373.520,151.500,54.760,568.780
756,38447.569000,54.333,7.083,-264.896,226.482,-244.503,-373.418,181.500,129.760,691.780
757,38447.584000,56.291,2.024,-259.954,218.655,-248.304,-371.306,203.500,218.760,815.780
758,38447.613000,58.249,4.047,-260.942,220.656,-253.158,-371.336,209.500,261.760,875.780
759,38447.629000,64.122,9.107,-260.942,212.845,-251.150,-373.169,227.500,369.760,996.780
760,38447.650000,65.101,7.083,-254.023,209.998,-256.926,-375.081,244.500,470.760,1131.780
761,38447.670000,65.101,6.071,-248.093,210.015,-256.925,-376.065,240.500,491.760,1285.780
762,38447.698000,50.417,2.024,-247.104,197.392,-263.579,-377.803,227.500,421.760,1414.780
763,38447.708000,41.606,11.130,-243.151,187.667,-264.455,-380.583,208.500,421.760,1493.780
764,38447.735000,33.774,19.225,-245.127,179.928,-272.122,-381.422,188.500,423.760,1521.780
765,38447.744000,26.922,18.213,-241.174,176.974,-268.225,-382.359,166.500,457.760,1569.780
766,38447.770000,29.859,12.142,-238.208,164.324,-271.977,-384.099,122.500,449.760,1619.780
767,38447.788000,29.859,20.237,-235.243,144.852,-280.504,-384.729,101.500,275.760,1626.780
768,38447.808000,3.426,23.273,-239.197,138.003,-282.378,-383.622,87.500,121.760,1619.780
769,38447.830000,-6.363,20.237,-239.197,125.396,-287.095,-387.331,64.500,295.760,1622.780
770,38447.852000,13.216,19.225,-235.243,115.620,-287.974,-387.157,22.500,313.760,1627.780
771,38447.872000,14.195,24.285,-233.266,99.108,-293.623,-390.796,-8.500,97.760,1600.780
772,38447.890000,-9.300,19.225,-234.255,94.199,-295.515,-388.738,-33.500,165.760,1594.780
773,38447.915000,2.447,16.190,-231.290,77.547,-295.365,-387.459,-79.500,249.760,1621.780
774,38447.938000,9.300,20.237,-231.290,60.032,-303.911,-388.124,-108.500,16.760,1609.780
775,38447.955000,-14.195,22.261,-236.232,53.139,-304.819,-385.047,-113.500,-53.240,1573.780
776,38447.978000,-29.859,23.273,-240.185,30.678,-307.515,-385.631,-129.500,22.760,1542.780
777,38448.17000,-10.279,29.344,-239.197,23.924,-310.351,-389.446,-152.500,112.760,1466.780
778,38448.31000,-8.321,32.379,-236.232,10.183,-311.197,-386.249,-174.500,-22.240,1422.780
779,38448.36000,-28.880,29.344,-240.185,-1.559,-313.026,-385.054,-178.500,-81.240,1391.780
780,38448.59000,-30.837,30.356,-244.139,-16.210,-313.859,-385.779,-181.500,25.760,1342.780
781,38448.79000,-17.132,30.356,-245.127,-28.091,-311.824,-378.680,-188.500,4.760,1280.780
782,38448.93000,-16.153,33.391,-246.116,-46.587,-310.682,-384.260,-181.500,-119.240,1228.780
783,38448.118000,-21.048,31.368,-250.069,-55.489,-311.575,-378.195,-165.500,-161.240,1191.780
784,38448.140000,-22.027,31.368,-249.081,-60.372,-314.434,-377.121,-152.500,-198.240,1175.780
785,38448.166000,-36.711,30.356,-251.058,-69.221,-317.260,-373.023,-131.500,-253.240,1140.780
786,38448.186000,-45.522,26.308,-251.058,-79.031,-318.140,-370.880,-111.500,-174.240,1107.780
787,38448.201000,-35.732,27.320,-248.093,-85.958,-319.050,-365.834,-97.500,-228.240,1075.780
788,38448.224000,-49.438,25.296,-242.162,-103.572,-316.954,-366.509,-71.500,-366.240,1007.780
789,38448.242000,-69.996,24.285,-237.220,-107.606,-318.861,-358.560,-67.500,-280.240,909.780
790,38448.273000,-69.017,21.249,-236.232,-115.494,-323.633,-352.508,-90.500,-236.240,807.780
791,38448.295000,-63.143,9.107,-241.174,-118.404,-320.701,-355.413,-103.500,-307.240,695.780
792,38448.310000,-69.996,15.178,-240.185,-129.279,-323.513,-347.342,-103.500,-307.240,584.780
793,38448.330000,-71.954,9.107,-243.151,-134.180,-324.437,-346.270,-106.500,-281.240,532.780
794,38448.348000,-61.185,7.083,-246.116,-135.236,-323.465,-342.314,-112.500,-271.240,452.780
795,38448.379000,-61.185,7.083,-250.069,-135.218,-327.335,-341.326,-102.500,-315.240,385.780
796,38448.382000,-63.143,4.047,-256.988,-142.137,-327.277,-337.266,-75.500,-260.240,318.780
797,38448.428000,-64.122,9.107,-256.000,-150.891,-327.194,-340.064,-33.500,-153.240,254.780
798,38448.444000,-69.017,9.107,-256.000,-150.934,-328.164,-337.109,-19.500,-29.240,221.780
799,38448.453000,-52.375,10.119,-246.116,-149.955,-330.109,-336.139,-14.500,-5.240,165.780
800,38448.472000,-49.438,9.107,-248.093,-155.861,-328.122,-335.053,-14.500,-35.240,98.780
801,38448.494000,-50.417,7.083,-247.104,-155.853,-327.154,-336.039,-8.500,-36.240,39.780
802,38448.515000,-44.543,6.071,-244.139,-150.987,-326.232,-335.141,-7.500,-16.240,18.780
803,38448.532000,-34.753,8.095,-244.139,-151.921,-329.124,-336.106,-8.500,-9.240,-13.220
804,38448.549000,-34.753,8.095,-242.162,-154.873,-331.034,-334.082,-6.500,-57.240,-34.220
805,38448.577000,-32.795,7.083,-240.185,-155.913,-328.125,-332.099,-0.500,-42.240,-59.220
806,38448.600000,-28.880,5.059,-240.185,-155.878,-330.059,-333.081,-10.500,-3.240,-75.220
807,38448.618000,-27.901,8.095,-240.185,-153.904,-330.076,-334.101,-24.500,-26.240,-78.220
808,38448.635000,-45.522,8.095,-242.162,-149.928,-334.947,-335.150,-18.500,-42.240,-80.220
809,38448.661000,-59.228,10.119,-242.162,-146.041,-332.080,-335.222,-10.500,25.760,-87.220
810,38448.679000,-70.975,13.154,-242.162,-149.920,-332.043,-337.122,2.500,57.760,-133.220
811,38448.701000,-81.744,13.154,-240.185,-149.003,-329.152,-335.173,6.500,50.760,-174.220
812,38448.718000,-104.260,17.202,-238.208,-138.170,-331.181,-338.316,6.500,-7.240,-293.220
813,38448.748000,-122.860,20.237,-239.197,-143.123,-332.108,-334.289,-5.500,-28.240,-437.220
814,38448.768000,-128.734,20.237,-241.174,-135.199,-335.078,-338.364,-7.500,50.760,-576.220
815,38448.798000,-112.092,23.273,-242.162,-125.370,-336.132,-340.505,-11.500,94.760,-750.220
816,38448.817000,-103.281,28.332,-245.127,-127.301,-339.017,-340.468,-7.500,1.760,-962.220
817,38448.833000,-108.176,29.344,-245.127,-110.657,-340.135,-340.761,-24.500,-11.240,-1112.220
818,38448.845000,-92.512,28.332,-246.116,-99.867,-345.071,-339.961,-36.500,56.760,-1190.220
819,38448.865000,-77.828,36.427,-246.116,-92.983,-343.196,-343.039,-19.500,35.760,-1274.220
820,38448.883000,-67.059,40.474,-244.139,-78.323,-343.330,-342.314,-13.500,18.760,-1331.220
821,38448.903000,-71.954,39.462,-246.116,-66.530,-341.498,-346.462,3.500,12.760,-1417.220
822,38448.932000,-82.723,32.379,-236.232,-48.856,-344.558,-348.740,14.500,102.760,-1441.220
823,38448.948000,-60.207,46.545,-236.232,-40.949,-347.529,-351.830,-11.500,216.760,-1476.220
824,38448.963000,-39.648,54.640,-239.197,-30.221,-345.693,-351.038,-16.500,141.760,-1605.220
825,38448.987000,-52.375,46.545,-237.220,-12.566,-342.947,-355.291,-26.500,132.760,-1747.220
826,38449.10000,-57.270,38.451,-230.301,2.110,-335.337,-359.497,-48.500,326.760,-1759.220
827,38449.25000,-32.795,50.593,-224.371,13.928,-330.600,-366.603,-93.500,341.760,-1797.220
828,38449.53000,-3.426,60.711,-232.278,29.576,-331.711,-365.894,-114.500,133.760,-1898.220
829,38449.67000,-13.216,50.593,-239.197,52.054,-329.013,-366.295,-114.500,56.760,-1920.220
830,38449.85000,-28.880,43.510,-232.278,56.919,-322.284,-368.358,-112.500,100.760,-1859.220
831,38449.103000,-22.027,50.593,-231.290,71.664,-314.671,-376.503,-131.500,139.760,-1827.220
832,38449.125000,5.384,67.794,-244.139,89.267,-311.927,-377.802,-145.500,67.760,-1883.220
833,38449.145000,13.216,59.700,-247.104,101.882,-304.306,-376.066,-124.500,-29.240,-1878.220
834,38449.173000,8.321,49.581,-243.151,110.661,-299.548,-377.211,-140.500,-70.240,-1808.220
835,38449.190000,19.090,57.676,-246.116,125.347,-298.713,-378.456,-164.500,-160.240,-1798.220
836,38449.213000,25.943,59.700,-255.012,138.906,-291.102,-374.767,-136.500,-225.240,-1761.220
837,38449.230000,17.132,45.534,-256.000,150.672,-284.432,-379.905,-112.500,-131.240,-1619.220
838,38449.269000,18.111,34.403,-244.139,159.415,-275.805,-381.055,-112.500,48.760,-1545.220
839,38449.300000,10.279,31.368,-242.162,170.212,-272.029,-385.188,-107.500,49.760,-1479.220
840,38449.300000,11.258,34.403,-242.162,179.925,-260.507,-387.342,-116.500,162.760,-1447.220
841,38449.323000,60.207,49.581,-245.127,186.678,-253.800,-385.501,-125.500,141.760,-1468.220
842,38449.340000,61.185,36.427,-249.081,190.538,-246.095,-386.562,-123.500,-70.240,-1427.220
843,38449.355000,23.006,26.308,-247.104,205.177,-232.680,-391.759,-98.500,161.760,-1272.220
844,38449.378000,32.795,7.083,-236.232,211.029,-224.991,-394.825,-111.500,437.760,-1097.220
845,38449.392000,85.660,23.273,-235.243,217.833,-218.281,-395.938,-115.500,131.760,-1030.220
846,38449.408000,75.870,21.249,-246.116,224.682,-214.471,-398.033,-108.500,-64.240,-978.220
847,38449.435000,49.438,8.095,-249.081,222.697,-209.616,-398.988,-115.500,14.760,-913.220
848,38449.449000,64.122,4.047,-241.174,224.592,-202.862,-399.029,-115.500,89.760,-762.220
849,38449.476000,57.270,3.036,-241.174,224.495,-196.092,-397.066,-128.500,-88.240,-694.220
850,38449.499000,53.354,15.178,-252.046,233.336,-194.234,-400.178,-120.500,-39.240,-626.220
851,38449.522000,60.207,9.107,-254.023,234.297,-192.308,-400.197,-105.500,3.760,-527.220
852,38449.540000,52.375,3.036,-251.058,237.179,-188.466,-399.269,-99.500,-27.240,-401.220
853,38449.562000,34.753,1.012,-251.058,239.188,-188.481,-402.257,-89.500,16.760,-313.220
854,38449.593000,40.627,8.095,-254.023,239.108,-181.710,-401.279,-81.500,72.760,-259.220
855,38449.608000,50.417,8.095,-255.012,237.213,-184.593,-403.211,-75.500,29.760,-230.220
856,38449.624000,32.795,6.071,-252.046,236.216,-182.649,-403.196,-61.500,1.760,-162.220
857,38449.644000,24.964,4.047,-253.035,230.354,-181.627,-404.078,-48.500,73.760,-77.220
858,38449.663000,27.901,5.059,-250.069,230.354,-181.627,-404.078,-42.500,65.760,-18.220
859,38449.685000,23.985,6.071,-251.058,233.263,-180.687,-403.146,-34.500,-5.240,23.780
860,38449.703000,13.216,4.047,-253.035,231.314,-177.766,-405.084,-32.500,1.760,35.780
861,38449.748000,11.258,6.071,-252.046,231.288,-178.735,-403.113,-27.500,12.760,47.780
862,38449.767000,13.216,4.047,-252.046,232.336,-178.740,-407.070,-26.500,-32.240,68.780
863,38449.780000,10.279,7.083,-251.058,236.233,-180.712,-405.168,-16.500,-42.240,94.780
864,38449.800000,3.426,6.071,-253.035,229.384,-180.650,-405.047,-12.500,-17.240,105.780
865,38449.813000,12.237,14.166,-251.058,226.406,-183.529,-401.053,-8.500,-4.240,114.780
866,38449.835000,9.300,11.130,-252.046,225.505,-184.484,-404.973,-2.500,-64.240,131.780
867,38449.853000,11.258,13.154,-249.081,229.403,-186.456,-403.071,4.500,-77.240,168.780
868,38449.870000,23.006,16.190,-251.058,225.463,-189.326,-400.045,15.500,-84.240,200.780
869,38449.894000,27.901,16.190,-255.012,221.602,-193.159,-400.956,23.500,-137.240,230.780
870,38449.915000,35.732,18.213,-255.012,223.603,-194.142,-402.960,33.500,-122.240,289.780
871,38449.932000,42.585,18.213,-256.988,219.629,-197.014,-397.964,49.500,-67.240,380.780
872,38449.952000,54.333,17.202,-259.954,218.755,-200.870,-401.881,69.500,-17.240,476.780
873,38449.973000,67.059,22.261,-258.965,219.778,-203.781,-402.881,83.500,-4.240,533.780
874,38449.994000,69.996,22.261,-256.988,219.727,-207.655,-397.953,112.500,-8.240,652.780
875,38450.20000,71.954,23.273,-255.012,214.879,-212.448,-397.861,135.500,58.760,790.780
876,38450.38000,73.912,24.285,-250.069,208.056,-215.288,-397.737,147.500,225.760,946.780
877,38450.47000,83.702,24.285,-246.116,203.269,-219.109,-401.586,146.500,378.760,1137.780
878,38450.77000,82.723,27.320,-246.116,202.291,-221.036,-400.582,142.500,366.760,1294.780
879,38450.97000,74.891,29.344,-246.116,191.563,-226.743,-399.401,145.500,324.760,1429.780
880,38450.117000,63.143,31.368,-248.093,186.740,-226.695,-403.254,138.500,304.760,1516.780
881,38450.139000,58.249,36.427,-249.081,174.109,-236.253,-403.019,129.500,357.760,1596.780
882,38450.160000,55.312,32.379,-250.069,166.316,-240.052,-402.877,117.500,362.760,1638.780
883,38450.180000,45.522,37.439,-249.081,152.722,-243.793,-406.570,90.500,279.760,1697.780
884,38450.212000,26.922,33.391,-247.104,142.956,-249.510,-404.421,84.500,193.760,1741.780
885,38450.227000,31.816,36.427,-245.127,138.151,-253.332,-407.285,62.500,242.760,1770.780
886,38450.244000,28.880,35.415,-241.174,125.458,-259.991,-405.084,44.500,127.760,1794.780
887,38450.264000,13.216,36.427,-239.197,113.821,-263.749,-408.811,28.500,26.760,1806.780
888,38450.282000,1.468,34.403,-240.185,92.236,-272.268,-400.544,13.500,36.760,1794.780
889,38450.314000,7.342,34.403,-239.197,81.569,-278.940,-402.316,-8.500,46.760,1788.780
890,38450.324000,12.237,41.486,-232.278,72.824,-281.760,-404.127,-24.500,-26.240,1739.780
891,38450.352000,-6.363,40.474,-236.232,58.105,-288.405,-397.952,-37.500,-231.240,1702.780
892,38450.367000,-7.342,40.474,-234.255,51.265,-291.246,-396.843,-50.500,-183.240,1673.780
893,38450.382000,0.489,38.451,-232.278,37.568,-296.928,-393.641,-67.500,-186.240,1661.780
894,38450.410000,-7.342,39.462,-235.243,18.986,-299.662,-392.325,-73.500,-302.240,1643.780
895,38450.430000,-21.048,38.451,-242.162,2.292,-304.354,-386.117,-64.500,-312.240,1624.780
896,38450.450000,-22.027,36.427,-243.151,-1.525,-311.088,-388.010,-72.500,-190.240,1602.780
897,38450.468000,-3.426,38.451,-246.116,-16.297,-311.928,-381.841,-83.500,-220.240,1579.780
898,38450.485000,-6.363,40.474,-246.116,-35.874,-316.590,-378.536,-59.500,-380.240,1600.780
899,38450.513000,-22.027,39.462,-245.127,-46.680,-321.334,-373.417,-36.500,-411.240,1618.780
900,38450.535000,-25.943,36.427,-238.208,-61.426,-321.205,-369.219,-9.500,-366.240,1610.780
901,38450.551000,-17.132,31.368,-241.174,-70.258,-324.030,-366.106,-17.500,-345.240,1559.780
902,38450.579000,-23.006,31.368,-238.208,-77.149,-328.809,-361.056,-12.500,-445.240,1508.780
903,38450.602000,-39.648,29.344,-236.232,-89.947,-331.602,-354.920,-8.500,-467.240,1471.780
904,38450.643000,-50.417,28.332,-237.220,-106.669,-327.584,-351.675,-6.500,-379.240,1402.780
905,38450.656000,-46.501,28.332,-232.278,-116.427,-332.333,-350.512,-18.500,-290.240,1344.780
906,38450.664000,-40.627,26.308,-231.290,-129.295,-329.322,-343.397,-39.500,-352.240,1279.780
907,38450.687000,-56.291,24.285,-238.208,-146.924,-333.034,-340.127,-35.500,-407.240,1199.780
908,38450.700000,-69.996,27.320,-239.197,-150.934,-330.100,-336.122,-21.500,-352.240,1160.780
909,38450.725000,-70.975,28.332,-235.243,-161.671,-330.969,-336.916,3.500,-192.240,1089.780
910,38450.743000,-68.038,26.308,-231.290,-165.699,-326.100,-332.912,5.500,-102.240,1019.780
911,38450.765000,-66.080,24.285,-233.266,-173.579,-326.032,-329.820,-11.500,-103.240,978.780
912,38450.783000,-75.870,26.308,-235.243,-179.555,-318.241,-327.754,-17.500,-105.240,923.780
913,38450.800000,-77.828,23.273,-237.220,-194.155,-317.135,-332.419,-31.500,-38.240,850.780
914,38450.820000,-72.933,20.237,-240.185,-193.255,-316.181,-328.498,-45.500,-86.240,778.780
915,38450.837000,-70.975,19.225,-244.139,-200.174,-312.251,-326.412,-58.500,-281.240,676.780
916,38450.863000,-85.660,23.273,-250.069,-203.214,-312.230,-320.451,-27.500,-364.240,540.780
917,38450.880000,-103.281,23.273,-255.012,-212.971,-316.979,-319.289,-20.500,-297.240,491.780
918,38450.908000,-86.639,17.202,-252.046,-215.006,-317.934,-314.329,-16.500,-183.240,386.780
919,38450.941000,-69.996,22.261,-250.069,-218.947,-313.060,-315.250,-7.500,-288.240,258.780
920,38450.950000,-81.744,20.237,-253.035,-217.024,-315.015,-312.328,8.500,-263.240,169.780
921,38450.968000,-74.891,11.130,-249.081,-213.092,-318.922,-311.409,18.500,-105.240,87.780
922,38450.988000,-64.122,12.142,-244.139,-214.105,-316.979,-310.408,28.500,-8.240,-16.220
923,38451.4000,-56.291,15.178,-239.197,-212.122,-317.963,-311.427,28.500,21.760,-49.220
924,38451.29000,-50.417,14.166,-229.313,-217.006,-318.886,-311.339,13.500,-9.240,-71.220
925,38451.54000,-51.396,14.166,-230.301,-219.006,-317.903,-309.336,-4.500,18.760,-95.220
926,38451.68000,-52.375,11.130,-232.278,-214.062,-316.009,-313.364,-9.500,58.760,-102.220
927,38451.85000,-52.375,13.154,-230.301,-216.010,-318.894,-312.341,-21.500,88.760,-117.220
928,38451.108000,-54.333,14.166,-233.266,-215.958,-318.891,-315.296,-26.500,69.760,-138.220
929,38451.125000,-60.207,15.178,-236.232,-214.962,-320.835,-315.311,-38.500,55.760,-188.220
930,38451.148000,-69.996,15.178,-240.185,-207.143,-319.939,-315.450,-42.500,79.760,-256.220
931,38451.164000,-76.849,29.344,-248.093,-209.127,-317.019,-315.419,-47.500,52.760,-335.220
932,38451.190000,-87.618,31.368,-253.035,-207.090,-323.807,-316.431,-28.500,-70.240,-431.220
933,38451.211000,-99.365,22.261,-256.000,-202.205,-326.756,-314.545,-11.500,-88.240,-524.220
934,38451.233000,-100.344,31.368,-258.965,-191.415,-329.756,-314.733,-6.500,-18.240,-634.220
935,38451.258000,-95.449,34.403,-256.988,-183.562,-328.858,-316.842,4.500,2.760,-683.220
936,38451.291000,-94.470,37.439,-254.023,-179.629,-334.700,-314.936,47.500,-3.240,-793.220
937,38451.291000,-94.470,29.344,-251.058,-172.684,-337.660,-318.993,80.500,-14.240,-920.220
938,38451.318000,-85.660,24.285,-251.058,-160.932,-342.606,-317.226,78.500,30.760,-1020.220
939,38451.340000,-70.975,33.391,-243.151,-147.102,-345.627,-323.374,80.500,78.760,-1130.220
940,38451.358000,-73.912,38.451,-239.197,-144.114,-351.458,-323.420,114.500,61.760,-1244.220
941,38451.375000,-80.765,26.308,-238.208,-126.475,-350.649,-325.702,135.500,125.760,-1289.220
942,38451.404000,-71.954,20.237,-237.220,-125.470,-351.624,-326.703,116.500,173.760,-1271.220
943,38451.423000,-70.975,30.356,-236.232,-106.792,-351.788,-331.955,127.500,129.760,-1308.220
944,38451.443000,-73.912,31.368,-239.197,-77.385,-355.924,-333.455,138.500,130.760,-1341.220
945,38451.461000,-75.870,27.320,-240.185,-72.440,-355.965,-336.496,151.500,172.760,-1412.220
946,38451.479000,-65.101,14.166,-235.243,-60.612,-356.067,-341.628,129.500,219.760,-1427.220
947,38451.502000,-40.627,23.273,-229.313,-54.706,-358.055,-342.714,66.500,119.760,-1499.220
948,38451.524000,-37.690,26.308,-229.313,-33.188,-357.283,-343.096,26.500,-132.240,-1675.220
949,38451.542000,-52.375,22.261,-232.278,-22.451,-356.414,-342.302,-26.500,-216.240,-1819.220
950,38451.564000,-55.312,22.261,-231.290,-1.850,-360.470,-343.647,-80.500,-43.240,-1854.220
951,38451.582000,-47.480,26.308,-233.266,19.676,-356.794,-346.001,-103.500,105.760,-1829.220
952,38451.604000,-31.816,30.356,-231.290,36.302,-355.978,-346.296,-95.500,131.760,-1810.220
953,38451.626000,-24.964,30.356,-235.243,52.935,-350.322,-349.550,-95.500,95.760,-1832.220
954,38451.647000,-28.880,23.273,-240.185,59.739,-343.611,-350.663,-88.500,76.760,-1868.220
955,38451.663000,-23.006,19.225,-232.278,79.308,-339.918,-352.982,-82.500,160.760,-1842.220
956,38451.683000,2.447,24.285,-226.347,92.010,-336.163,-354.196,-103.500,141.760,-1808.220
957,38451.699000,11.258,26.308,-232.278,108.625,-328.572,-357.452,-140.500,-53.240,-1846.220
958,38451.728000,5.384,21.249,-237.220,124.149,-318.075,-355.770,-182.500,-85.240,-1870.220
959,38451.760000,9.300,16.190,-239.197,134.946,-316.235,-358.917,-208.500,-20.240,-1810.220
960,38451.775000,11.258,15.178,-238.208,154.480,-310.607,-360.253,-205.500,-44.240,-1708.220
961,38451.790000,23.985,19.225,-239.197,167.181,-304.917,-362.453,-230.500,-72.240,-1638.220
962,38451.810000,46.501,26.308,-247.104,171.985,-297.223,-361.563,-240.500,-232.240,-1630.220
963,38451.832000,24.964,18.213,-251.058,183.754,-298.296,-362.754,-230.500,-404.240,-1629.220
964,38451.858000,11.258,10.119,-248.093,198.281,-285.855,-361.057,-225.500,-172.240,-1531.220
965,38451.868000,35.732,8.095,-240.185,193.361,-280.973,-361.960,-223.500,-11.240,-1344.220
966,38451.893000,43.564,12.142,-242.162,209.959,-275.319,-363.245,-227.500,-174.240,-1243.220
967,38451.915000,25.943,9.107,-252.046,210.919,-271.457,-364.251,-212.500,-153.240,-1158.220
968,38451.933000,27.901,0.000,-246.116,216.719,-263.771,-364.363,-203.500,-21.240,-1058.220
969,38451.953000,39.648,1.012,-245.127,224.546,-259.971,-366.474,-210.500,-149.240,-983.220
970,38451.974000,20.069,1.012,-252.046,230.390,-257.122,-366.581,-196.500,-184.240,-927.220
971,38451.997000,12.237,0.000,-250.069,233.289,-249.407,-368.610,-191.500,0.760,-889.220
972,38452.19000,42.585,2.024,-246.116,228.352,-242.590,-369.515,-207.500,75.760,-823.220
973,38452.23000,38.669,1.012,-254.023,243.019,-237.884,-371.749,-202.500,-128.240,-789.220
974,38452.50000,21.048,-3.036,-259.954,252.794,-233.135,-373.897,-170.500,-2.240,-704.220
975,38452.83000,33.774,-6.071,-257.977,242.957,-231.113,-371.756,-147.500,57.760,-567.220
976,38452.125000,40.627,-3.036,-257.977,250.793,-228.280,-373.867,-138.500,-56.240,-476.220
977,38452.129000,28.880,0.000,-266.873,242.973,-227.240,-374.714,-88.500,-13.240,-415.220
978,38452.143000,14.195,-5.059,-264.896,243.933,-221.443,-376.707,-58.500,231.760,-320.220
979,38452.160000,45.522,-10.119,-256.000,245.856,-221.462,-374.772,-57.500,246.760,-213.220
980,38452.177000,47.480,-6.071,-255.012,250.835,-221.502,-379.782,-43.500,-46.240,-173.220
981,38452.198000,7.342,-5.059,-257.977,244.832,-214.681,-375.746,-12.500,-17.240,-91.220
982,38452.223000,15.174,-6.071,-252.046,251.742,-215.707,-378.821,-2.500,188.760,-3.220
983,38452.244000,37.690,-5.059,-247.104,250.720,-214.733,-376.835,-4.500,-37.240,33.780
984,38452.264000,11.258,-5.059,-249.081,250.764,-215.699,-378.803,5.500,-151.240,75.780
985,38452.287000,-10.279,-9.107,-249.081,245.838,-219.528,-374.774,10.500,9.760,120.780
986,38452.302000,1.468,-7.083,-244.139,252.721,-217.652,-377.851,5.500,11.760,144.780
987,38452.324000,2.447,-7.083,-244.139,244.912,-221.452,-376.724,7.500,-71.240,160.780
988,38452.357000,-3.426,-7.083,-243.151,240.955,-222.386,-373.700,9.500,-84.240,166.780
989,38452.389000,-6.363,-9.107,-247.104,243.995,-226.279,-377.687,1.500,-42.240,169.780
990,38452.400000,-3.426,-6.071,-249.081,245.830,-224.368,-371.815,1.500,-11.240,185.780
991,38452.419000,5.384,-4.047,-247.104,244.012,-226.278,-378.672,5.500,-23.240,211.780
992,38452.426000,9.300,-3.036,-251.058,237.102,-227.187,-374.611,9.500,-65.240,248.780
993,38452.451000,15.174,-4.047,-255.012,240.100,-232.049,-375.642,25.500,-86.240,299.780
994,38452.474000,18.111,-1.012,-256.000,238.152,-234.935,-374.620,48.500,-28.240,362.780
995,38452.492000,23.006,2.024,-257.977,238.214,-239.771,-375.600,71.500,67.760,460.780
996,38452.514000,40.627,0.000,-259.954,227.407,-238.708,-373.441,98.500,110.760,591.780
997,38452.529000,42.585,1.012,-261.931,225.520,-242.557,-375.372,106.500,128.760,665.780
998,38452.552000,41.606,0.000,-260.942,222.551,-244.469,-372.364,141.500,197.760,801.780
999,38452.574000,46.501,1.012,-256.988,222.665,-251.237,-375.311,168.500,299.760,915.780
1000,38452.597000,68.038,3.036,-252.046,220.760,-251.217,-378.231,173.500,424.760,1013.780
