Sample, Time, ACCX, ACCY, ACCZ, MAGX, MAGY, MAGZ, GYRX, GYRY, GYRZ
0,38359.579000,15.174,-35.415,-243.151,63.058,-287.478,-401.979,3.500,-7.240,9.780
1,38359.606000,15.174,-35.415,-243.151,62.002,-286.505,-398.023,3.500,-5.240,3.780
2,38359.625000,15.174,-34.403,-244.139,60.071,-287.454,-398.973,3.500,1.760,2.780
3,38359.645000,16.153,-35.415,-242.162,60.027,-284.553,-397.991,2.500,4.760,2.780
4,38359.663000,16.153,-36.427,-241.174,65.941,-285.572,-400.063,2.500,2.760,1.780
5,38359.688000,16.153,-36.427,-243.151,60.027,-286.489,-397.004,2.500,-0.240,1.780
6,38359.715000,18.111,-34.403,-242.162,61.084,-287.461,-400.959,0.500,-11.240,1.780
7,38359.735000,17.132,-35.415,-242.162,57.170,-289.361,-399.903,0.500,-7.240,1.780
8,38359.750000,16.153,-34.403,-242.162,65.967,-286.538,-401.047,0.500,6.760,-0.220
9,38359.773000,18.111,-35.415,-241.174,60.087,-283.581,-401.931,-0.500,1.760,0.780
10,38359.793000,16.153,-36.427,-239.197,64.990,-290.401,-399.056,-3.500,0.760,2.780
11,38359.807000,17.132,-36.427,-240.185,64.988,-284.593,-402.016,-6.500,1.760,2.780
12,38359.829000,18.111,-35.415,-239.197,64.998,-287.497,-401.029,-15.500,7.760,0.780
13,38359.844000,18.111,-36.427,-238.208,57.090,-280.655,-399.912,-24.500,6.760,0.780
14,38359.858000,18.111,-36.427,-241.174,64.019,-285.552,-401.998,-27.500,2.760,-0.220
15,38359.890000,18.111,-36.427,-242.162,65.015,-287.496,-402.013,-25.500,-4.240,1.780
16,38359.913000,19.090,-36.427,-242.162,63.984,-283.618,-401.015,-25.500,-2.240,7.780
17,38359.935000,17.132,-34.403,-243.151,58.139,-284.531,-401.895,-20.500,-11.240,9.780
18,38359.953000,16.153,-35.415,-244.139,58.131,-285.499,-400.909,-21.500,-2.240,8.780
19,38359.975000,17.132,-33.391,-244.139,57.143,-284.523,-400.893,-20.500,-4.240,2.780
20,38359.996000,17.132,-33.391,-247.104,58.113,-285.500,-399.925,-14.500,-10.240,1.780
21,38360.14000,18.111,-34.403,-247.104,62.053,-284.567,-401.964,-11.500,-8.240,0.780
22,38360.37000,17.132,-32.379,-246.116,62.980,-286.514,-398.041,-3.500,-15.240,0.780
23,38360.59000,16.153,-33.391,-244.139,61.014,-283.593,-398.994,1.500,-2.240,4.780
24,38360.80000,19.090,-32.379,-244.139,62.979,-282.643,-400.014,4.500,-7.240,10.780
25,38360.98000,20.069,-33.391,-246.116,56.070,-285.488,-394.966,6.500,-25.240,12.780
26,38360.120000,17.132,-33.391,-242.162,63.015,-286.512,-400.010,8.500,-20.240,11.780
27,38360.143000,17.132,-35.415,-241.174,63.993,-284.585,-401.014,6.500,-7.240,8.780
28,38360.160000,17.132,-32.379,-239.197,60.097,-286.485,-400.943,9.500,-9.240,9.780
29,38360.169000,17.132,-35.415,-240.185,63.023,-285.544,-400.996,11.500,-16.240,12.780
30,38360.198000,16.153,-33.391,-240.185,59.118,-284.540,-401.912,5.500,-7.240,9.780
31,38360.220000,15.174,-35.415,-242.162,53.212,-284.489,-399.839,2.500,-7.240,7.780
32,38360.253000,13.216,-33.391,-243.151,55.177,-283.538,-400.859,-2.500,-5.240,3.780
33,38360.282000,15.174,-33.391,-241.174,57.154,-291.298,-397.932,-1.500,2.760,0.780
34,38360.292000,14.195,-34.403,-242.162,59.092,-287.445,-398.955,-3.500,-11.240,-2.220
35,38360.305000,15.174,-33.391,-242.162,55.170,-288.378,-397.900,-5.500,-15.240,-3.220
36,38360.328000,14.195,-32.379,-243.151,54.217,-287.400,-399.853,-4.500,-11.240,-4.220
37,38360.345000,14.195,-33.391,-241.174,57.109,-286.461,-397.937,-6.500,-7.240,-5.220
38,38360.375000,15.174,-33.391,-241.174,56.147,-284.515,-399.891,-9.500,-2.240,-10.220
39,38360.389000,14.195,-34.403,-242.162,57.143,-284.523,-400.893,-11.500,-8.240,-10.220
40,38360.412000,12.237,-34.403,-243.151,61.040,-286.496,-398.991,-15.500,-11.240,-16.220
41,38360.434000,15.174,-33.391,-243.151,63.984,-285.554,-400.028,-13.500,4.760,-16.220
42,38360.449000,15.174,-33.391,-240.185,56.104,-283.550,-397.922,-9.500,4.760,-22.220
43,38360.472000,15.174,-34.403,-242.162,54.217,-285.464,-400.840,-12.500,2.760,-25.220
44,38360.489000,17.132,-35.415,-243.151,61.083,-283.589,-402.933,-16.500,-4.240,-22.220
45,38360.512000,16.153,-33.391,-242.162,64.028,-288.455,-401.010,-17.500,-8.240,-21.220
46,38360.534000,16.153,-34.403,-244.139,57.091,-284.526,-397.939,-15.500,-13.240,-23.220
47,38360.552000,17.132,-34.403,-243.151,63.066,-284.574,-403.951,-13.500,4.760,-22.220
48,38360.569000,19.090,-34.403,-244.139,60.131,-286.483,-402.913,-12.500,8.760,-20.220
49,38360.592000,18.111,-33.391,-244.139,55.143,-283.540,-398.890,-11.500,3.760,-16.220
50,38360.609000,18.111,-33.391,-242.162,54.208,-284.496,-400.841,-12.500,3.760,-14.220
51,38360.652000,19.090,-33.391,-243.151,59.083,-286.478,-398.956,-14.500,-0.240,-10.220
52,38360.660000,19.090,-33.391,-245.127,60.105,-285.516,-401.929,-11.500,-13.240,-6.220
53,38360.689000,17.132,-32.379,-245.127,62.044,-283.599,-401.965,-12.500,-11.240,-3.220
54,38360.692000,18.111,-33.391,-244.139,56.165,-284.514,-400.876,-10.500,-5.240,-2.220
55,38360.717000,18.111,-33.391,-244.139,56.147,-284.515,-399.891,-5.500,-1.240,-1.220
56,38360.734000,17.132,-32.379,-242.162,61.040,-286.496,-398.991,-6.500,-7.240,1.780
57,38360.762000,18.111,-34.403,-243.151,60.036,-285.520,-397.990,-7.500,-12.240,3.780
58,38360.777000,16.153,-34.403,-242.162,58.132,-289.371,-398.936,-6.500,-9.240,5.780
59,38360.799000,19.090,-32.379,-242.162,67.916,-285.588,-401.082,-8.500,-4.240,2.780
60,38360.817000,18.111,-33.391,-243.151,59.066,-284.543,-398.958,-10.500,-17.240,2.780
61,38360.839000,16.153,-33.391,-243.151,55.186,-282.570,-401.845,-11.500,-24.240,3.780
62,38360.853000,15.174,-33.391,-243.151,57.162,-288.394,-399.904,-11.500,-10.240,5.780
63,38360.875000,17.132,-33.391,-244.139,59.126,-285.507,-401.911,-12.500,-8.240,4.780
64,38360.898000,17.132,-31.368,-243.151,63.015,-288.448,-399.023,-11.500,-20.240,2.780
65,38360.920000,13.216,-32.379,-242.162,56.183,-286.449,-400.874,-8.500,-22.240,-0.220
66,38360.958000,16.153,-33.391,-242.162,62.046,-289.407,-399.005,-11.500,-9.240,-2.220
67,38360.977000,16.153,-30.356,-243.151,62.998,-288.449,-398.039,-9.500,-19.240,-2.220
68,38360.983000,12.237,-32.379,-241.174,65.924,-287.508,-398.092,-8.500,-16.240,-0.220
69,38361.0,15.174,-32.379,-243.151,59.101,-286.477,-399.941,-11.500,3.760,-4.220
70,38361.23000,18.111,-32.379,-241.174,58.140,-286.467,-400.908,-14.500,-15.240,-5.220
71,38361.49000,16.153,-32.379,-244.139,59.136,-288.411,-400.924,-14.500,-32.240,-9.220
72,38361.72000,14.195,-32.379,-242.162,54.200,-289.336,-397.882,-17.500,-32.240,-10.220
73,38361.89000,14.195,-31.368,-243.151,53.230,-286.423,-399.837,-15.500,-11.240,-6.220
74,38361.109000,16.153,-30.356,-244.139,58.157,-288.402,-400.906,-13.500,-22.240,-9.220
75,38361.134000,14.195,-29.344,-242.162,60.071,-287.454,-398.973,-13.500,-26.240,-3.220
76,38361.152000,14.195,-32.379,-242.162,52.243,-287.383,-398.834,-12.500,-21.240,-2.220
77,38361.160000,16.153,-32.379,-244.139,56.218,-290.319,-400.870,-10.500,-17.240,0.780
78,38361.174000,15.174,-31.368,-244.139,53.204,-285.457,-398.853,-9.500,-21.240,-3.220
79,38361.207000,15.174,-31.368,-243.151,53.230,-288.359,-398.850,-10.500,-21.240,-7.220
80,38361.229000,16.153,-30.356,-244.139,57.162,-288.394,-399.904,-9.500,-22.240,-9.220
81,38361.249000,14.195,-31.368,-242.162,54.217,-287.400,-399.853,-6.500,-17.240,-7.220
82,38361.272000,14.195,-29.344,-241.174,58.210,-290.335,-402.874,-7.500,-7.240,-5.220
83,38361.289000,15.174,-31.368,-241.174,58.141,-290.338,-398.935,-9.500,-11.240,-4.220
84,38361.323000,16.153,-32.379,-243.151,59.128,-291.315,-398.951,-13.500,-21.240,-5.220
85,38361.338000,14.195,-30.356,-243.151,55.134,-284.508,-397.904,-30.500,-18.240,-8.220
86,38361.357000,28.880,-37.439,-213.498,52.189,-315.455,-381.080,229.500,-2407.240,-362.220
87,38361.365000,-130.692,-48.569,-237.220,48.190,-319.296,-374.114,-59.500,-478.240,174.780
88,38361.393000,-69.996,-121.423,-248.093,44.362,-317.320,-379.955,-210.500,597.760,-122.220
89,38361.424000,-60.207,-32.379,-283.676,45.423,-301.837,-392.790,-123.500,1069.760,-211.220
90,38361.428000,49.438,25.296,-254.023,48.400,-295.087,-398.757,-21.500,1408.760,86.780
91,38361.449000,80.765,-11.130,-239.197,45.420,-288.287,-399.697,-75.500,382.760,-55.220
92,38361.471000,38.669,-28.332,-258.965,48.399,-289.279,-401.717,-55.500,-236.240,-107.220
93,38361.483000,9.300,-21.249,-268.849,47.395,-294.111,-397.756,-10.500,-245.240,-78.220
94,38361.512000,-0.489,-21.249,-272.803,46.425,-293.134,-398.724,24.500,-39.240,-47.220
95,38361.534000,3.426,-19.225,-270.826,46.337,-287.331,-396.761,49.500,199.760,-3.220
96,38361.552000,26.922,-18.213,-256.000,48.338,-290.250,-397.777,64.500,108.760,12.780
97,38361.574000,35.732,-20.237,-247.104,45.420,-288.287,-399.697,79.500,-10.240,9.780
98,38361.597000,21.048,-23.273,-245.127,50.269,-289.302,-396.828,83.500,-144.240,6.780
99,38361.634000,11.258,-24.285,-244.139,48.348,-295.089,-395.803,84.500,-98.240,8.780
100,38361.654000,11.258,-26.308,-242.162,52.244,-291.254,-396.861,73.500,-23.240,15.780
101,38361.673000,14.195,-25.296,-239.197,52.270,-292.221,-397.844,63.500,8.760,20.780
102,38361.679000,12.237,-26.308,-238.208,49.239,-291.232,-392.870,56.500,25.760,20.780
103,38361.707000,15.174,-28.332,-238.208,49.299,-288.325,-397.796,49.500,32.760,18.780
104,38361.729000,16.153,-28.332,-236.232,58.089,-292.277,-394.994,37.500,13.760,10.780
105,38361.749000,16.153,-29.344,-235.243,56.088,-289.358,-393.978,28.500,-17.240,9.780
106,38361.780000,13.216,-29.344,-237.220,52.210,-293.192,-393.904,24.500,-41.240,12.780
107,38361.784000,12.237,-29.344,-237.220,59.129,-297.122,-395.991,14.500,-54.240,14.780
108,38361.811000,11.258,-28.332,-240.185,52.235,-292.223,-395.875,3.500,-44.240,17.780
109,38361.824000,9.300,-29.344,-240.185,55.136,-292.251,-393.957,-4.500,-37.240,18.780
110,38361.838000,9.300,-30.356,-241.174,63.042,-291.350,-399.021,-9.500,-7.240,18.780
111,38361.865000,11.258,-28.332,-243.151,53.240,-293.198,-396.876,-12.500,21.760,12.780
112,38361.883000,12.237,-28.332,-242.162,55.198,-295.152,-395.924,-12.500,14.760,5.780
113,38361.905000,11.258,-28.332,-244.139,49.292,-293.164,-394.837,-16.500,-8.240,2.780
114,38361.925000,11.258,-28.332,-244.139,50.279,-294.141,-394.854,-14.500,-18.240,5.780
115,38361.945000,10.279,-26.308,-244.139,52.306,-296.090,-397.841,-16.500,-23.240,4.780
116,38361.968000,11.258,-29.344,-246.116,56.210,-293.223,-398.897,-15.500,-30.240,-0.220
117,38361.989000,9.300,-28.332,-245.127,49.283,-294.133,-393.852,-11.500,-32.240,-4.220
118,38362.15000,9.300,-28.332,-245.127,50.235,-291.240,-393.872,-8.500,-26.240,-5.220
119,38362.53000,10.279,-28.332,-247.104,53.224,-297.071,-393.918,-4.500,2.760,-6.220
120,38362.67000,11.258,-27.320,-245.127,52.262,-293.189,-396.859,0.500,13.760,-7.220
121,38362.80000,10.279,-27.320,-243.151,54.193,-296.112,-393.936,2.500,10.760,-6.220
122,38362.95000,12.237,-27.320,-245.127,56.298,-299.025,-400.861,3.500,11.760,-3.220
123,38362.120000,14.195,-28.332,-244.139,53.284,-294.164,-398.845,7.500,5.760,-2.220
124,38362.133000,13.216,-28.332,-244.139,47.317,-291.212,-394.805,8.500,-5.240,-1.220
125,38362.147000,13.216,-27.320,-244.139,48.330,-291.219,-396.791,10.500,2.760,-0.220
126,38362.165000,12.237,-28.332,-243.151,55.171,-294.185,-394.940,10.500,0.760,3.780
127,38362.191000,11.258,-26.308,-243.151,54.228,-294.174,-396.892,12.500,6.760,7.780
128,38362.218000,13.216,-29.344,-244.139,51.178,-289.315,-392.906,10.500,19.760,10.780
129,38362.238000,13.216,-28.332,-242.162,52.297,-295.123,-397.842,7.500,12.760,9.780
130,38362.255000,11.258,-28.332,-242.162,53.222,-291.263,-396.878,7.500,5.760,4.780
131,38362.279000,12.237,-28.332,-244.139,52.271,-294.157,-396.858,7.500,6.760,2.780
132,38362.295000,11.258,-28.332,-243.151,53.231,-292.231,-396.877,9.500,6.760,1.780
133,38362.318000,12.237,-29.344,-244.139,53.231,-290.295,-397.864,10.500,1.760,-1.220
134,38362.335000,12.237,-28.332,-243.151,56.141,-291.291,-395.945,10.500,-1.240,0.780
135,38362.363000,11.258,-29.344,-242.162,52.235,-292.223,-395.875,8.500,2.760,3.780
136,38362.385000,13.216,-29.344,-243.151,50.252,-291.239,-394.857,6.500,9.760,0.780
137,38362.403000,12.237,-30.356,-243.151,49.257,-293.166,-392.868,5.500,5.760,-4.220
138,38362.425000,13.216,-29.344,-244.139,51.309,-294.147,-397.825,3.500,4.760,-5.220
139,38362.450000,12.237,-28.332,-243.151,52.235,-290.287,-396.862,4.500,0.760,-6.220
140,38362.470000,14.195,-29.344,-243.151,55.188,-292.249,-396.912,5.500,-7.240,-3.220
141,38362.490000,13.216,-28.332,-244.139,55.179,-291.281,-396.913,5.500,-12.240,-2.220
142,38362.499000,12.237,-29.344,-244.139,51.335,-293.177,-399.796,6.500,-19.240,-1.220
143,38362.522000,13.216,-28.332,-245.127,52.244,-293.190,-395.874,1.500,-4.240,3.780
144,38362.544000,14.195,-29.344,-242.162,58.107,-296.148,-394.005,6.500,-7.240,3.780
145,38362.567000,11.258,-28.332,-243.151,57.127,-288.396,-397.935,5.500,6.760,0.780
146,38362.584000,15.174,-28.332,-242.162,60.063,-292.294,-396.013,2.500,4.760,-2.220
147,38362.616000,14.195,-29.344,-242.162,51.249,-293.182,-394.872,0.500,-20.240,-2.220
148,38362.619000,12.237,-30.356,-243.151,51.301,-295.115,-396.839,-2.500,-14.240,2.780
149,38362.645000,11.258,-27.320,-244.139,49.248,-290.263,-393.855,-0.500,-8.240,3.780
150,38362.674000,12.237,-28.332,-242.162,50.261,-292.206,-394.856,0.500,-8.240,0.780
151,38362.684000,13.216,-28.332,-243.151,52.218,-290.288,-395.877,-1.500,-19.240,0.780
152,38362.710000,11.258,-28.332,-243.151,57.128,-292.267,-395.961,-4.500,-21.240,1.780
153,38362.730000,11.258,-28.332,-243.151,54.192,-292.241,-395.910,-2.500,-5.240,2.780
154,38362.765000,12.237,-28.332,-244.139,56.185,-294.192,-396.927,2.500,-5.240,2.780
155,38362.794000,13.216,-29.344,-243.151,51.266,-293.181,-395.857,3.500,-19.240,3.780
156,38362.798000,11.258,-28.332,-245.127,58.116,-295.179,-394.991,2.500,-13.240,1.780
157,38362.822000,11.258,-29.344,-243.151,58.098,-293.245,-394.993,4.500,3.760,-1.220
158,38362.844000,11.258,-28.332,-243.151,55.205,-290.312,-398.883,6.500,1.760,-8.220
159,38362.858000,12.237,-28.332,-243.151,62.038,-292.311,-397.033,4.500,-11.240,-7.220
160,38362.880000,11.258,-29.344,-244.139,57.128,-294.203,-394.975,5.500,-7.240,-5.220
161,38362.903000,11.258,-29.344,-243.151,51.283,-291.245,-397.828,7.500,2.760,-1.220
162,38362.918000,12.237,-28.332,-242.162,60.090,-295.196,-396.010,8.500,4.760,-0.220
163,38362.934000,13.216,-29.344,-244.139,53.197,-292.233,-394.907,6.500,-6.240,-0.220
164,38362.954000,12.237,-29.344,-241.174,57.111,-292.268,-394.977,5.500,-5.240,-0.220
165,38362.975000,12.237,-29.344,-243.151,61.113,-298.106,-397.010,3.500,6.760,2.780
166,38362.999000,12.237,-29.344,-242.162,51.309,-294.147,-397.825,0.500,4.760,5.780
167,38363.25000,14.195,-29.344,-242.162,55.171,-294.185,-394.940,-0.500,-2.240,5.780
168,38363.39000,13.216,-30.356,-241.174,53.214,-292.232,-395.892,-4.500,-14.240,4.780
169,38363.77000,12.237,-30.356,-242.162,62.021,-296.183,-394.075,-6.500,-8.240,6.780
170,38363.85000,12.237,-30.356,-242.162,56.106,-293.229,-392.989,-4.500,-4.240,7.780
171,38363.105000,11.258,-30.356,-242.162,57.137,-295.171,-394.974,-3.500,-5.240,5.780
172,38363.128000,10.279,-30.356,-243.151,51.266,-293.181,-395.857,-2.500,-8.240,4.780
173,38363.137000,10.279,-30.356,-244.139,60.029,-294.232,-393.057,-4.500,-6.240,1.780
174,38363.155000,12.237,-30.356,-244.139,54.193,-294.176,-394.923,-3.500,-12.240,-3.220
175,38363.183000,12.237,-29.344,-245.127,56.123,-291.292,-394.960,-2.500,-14.240,-8.220
176,38363.203000,10.279,-29.344,-244.139,57.137,-293.235,-395.960,-0.500,-11.240,-9.220
177,38363.225000,12.237,-28.332,-245.127,53.258,-295.133,-396.874,1.500,-7.240,-5.220
178,38363.243000,12.237,-28.332,-244.139,55.188,-292.249,-396.912,1.500,-7.240,-3.220
179,38363.266000,13.216,-29.344,-244.139,54.158,-292.243,-393.940,3.500,-8.240,-2.220
180,38363.288000,14.195,-29.344,-244.139,54.158,-292.243,-393.940,3.500,-8.240,-1.220
181,38363.310000,13.216,-27.320,-244.139,58.115,-293.244,-395.978,9.500,-20.240,2.780
182,38363.337000,12.237,-29.344,-242.162,56.141,-293.227,-394.958,8.500,2.760,6.780
183,38363.340000,14.195,-30.356,-242.162,55.224,-296.118,-396.908,4.500,4.760,9.780
184,38363.363000,12.237,-29.344,-242.162,52.244,-293.190,-395.874,1.500,-5.240,10.780
185,38363.391000,13.216,-29.344,-243.151,51.275,-294.149,-395.856,-2.500,-6.240,10.780
186,38363.405000,11.258,-29.344,-243.151,51.231,-293.183,-393.887,-1.500,-3.240,12.780
187,38363.455000,12.237,-29.344,-242.162,53.240,-293.198,-396.876,-2.500,-3.240,10.780
188,38363.464000,12.237,-29.344,-244.139,55.189,-296.120,-394.938,-3.500,-7.240,12.780
189,38363.478000,11.258,-28.332,-243.151,53.267,-296.100,-396.873,-3.500,-16.240,14.780
190,38363.487000,10.279,-29.344,-242.162,55.198,-295.152,-395.924,-5.500,-7.240,17.780
191,38363.509000,11.258,-28.332,-243.151,51.257,-294.150,-394.871,-6.500,-8.240,14.780
192,38363.532000,12.237,-28.332,-243.151,58.108,-298.084,-393.019,-5.500,-15.240,10.780
193,38363.554000,10.279,-29.344,-243.151,58.107,-294.212,-394.992,-6.500,-15.240,9.780
194,38363.574000,10.279,-28.332,-244.139,58.081,-293.246,-394.008,-5.500,-3.240,5.780
195,38363.597000,12.237,-28.332,-244.139,50.297,-296.076,-394.852,-6.500,1.760,3.780
196,38363.619000,12.237,-28.332,-243.151,54.236,-295.142,-396.891,-7.500,-11.240,0.780
197,38363.634000,11.258,-28.332,-244.139,51.257,-292.214,-395.858,-9.500,-15.240,2.780
198,38363.657000,11.258,-29.344,-244.139,52.236,-296.094,-393.901,-7.500,-14.240,7.780
199,38363.677000,11.258,-27.320,-243.151,50.253,-295.110,-392.883,-5.500,-5.240,8.780
200,38363.694000,11.258,-28.332,-244.139,54.158,-294.178,-392.953,-4.500,-9.240,4.780
201,38363.717000,11.258,-28.332,-243.151,53.189,-295.137,-392.935,-2.500,-9.240,4.780
202,38363.739000,11.258,-28.332,-243.151,50.340,-297.041,-396.820,-3.500,-9.240,5.780
203,38363.762000,12.237,-29.344,-242.162,49.249,-296.071,-390.895,-2.500,-6.240,6.780
204,38363.790000,12.237,-28.332,-244.139,52.245,-295.126,-394.887,-4.500,-7.240,7.780
205,38363.812000,10.279,-28.332,-244.139,54.185,-295.145,-393.937,-5.500,-20.240,3.780
206,38363.820000,10.279,-27.320,-244.139,52.253,-292.222,-396.860,-1.500,-13.240,5.780
207,38363.843000,10.279,-28.332,-244.139,53.241,-297.070,-394.903,-0.500,-7.240,4.780
208,38363.860000,10.279,-28.332,-244.139,56.125,-297.099,-392.000,1.500,-11.240,1.780
209,38363.897000,10.279,-28.332,-245.127,51.232,-297.055,-391.914,5.500,-11.240,1.780
210,38363.909000,10.279,-28.332,-245.127,52.202,-296.096,-391.932,5.500,-15.240,2.780
211,38363.928000,9.300,-29.344,-244.139,57.155,-297.105,-394.972,7.500,-15.240,1.780
212,38363.945000,11.258,-29.344,-244.139,60.021,-295.200,-392.071,5.500,-5.240,1.780
213,38363.968000,10.279,-27.320,-244.139,49.336,-298.001,-394.832,6.500,-18.240,-3.220
214,38363.998000,9.300,-28.332,-243.151,50.297,-296.076,-394.852,10.500,-17.240,-2.220
215,38364.7000,10.279,-28.332,-245.127,52.272,-298.028,-394.884,12.500,-0.240,-2.220
216,38364.24000,11.258,-29.344,-243.151,51.267,-297.053,-393.883,9.500,-7.240,-3.220
217,38364.52000,11.258,-30.356,-243.151,51.258,-296.085,-393.884,5.500,-15.240,-3.220
218,38364.67000,9.300,-27.320,-241.174,54.159,-296.114,-391.967,13.500,-10.240,-1.220
219,38364.94000,9.300,-31.368,-241.174,53.180,-296.105,-391.949,12.500,3.760,-1.220
220,38364.113000,13.216,-28.332,-239.197,54.098,-297.085,-388.027,7.500,8.760,-3.220
221,38364.129000,13.216,-29.344,-241.174,49.284,-296.069,-392.865,0.500,-25.240,-3.220
222,38364.142000,10.279,-30.356,-244.139,55.207,-298.055,-394.936,-4.500,-24.240,0.780
223,38364.176000,10.279,-29.344,-243.151,54.142,-296.115,-390.982,-5.500,2.760,3.780
224,38364.213000,11.258,-28.332,-242.162,53.232,-294.167,-395.890,-3.500,-2.240,1.780
225,38364.227000,12.237,-29.344,-242.162,55.163,-293.218,-394.941,-3.500,-10.240,3.780
226,38364.235000,12.237,-29.344,-245.127,52.263,-297.061,-394.885,-4.500,-25.240,7.780
227,38364.255000,11.258,-29.344,-242.162,58.064,-295.182,-392.037,-7.500,-15.240,11.780
228,38364.278000,10.279,-29.344,-243.151,49.371,-298.000,-396.802,-6.500,-10.240,12.780
229,38364.290000,11.258,-30.356,-242.162,57.111,-294.204,-393.990,-4.500,-10.240,17.780
230,38364.307000,12.237,-29.344,-244.139,52.271,-296.092,-395.871,-3.500,-17.240,17.780
231,38364.324000,11.258,-30.356,-245.127,55.146,-297.090,-391.983,-0.500,-11.240,14.780
232,38364.357000,11.258,-30.356,-243.151,50.271,-297.045,-392.881,0.500,5.760,11.780
233,38364.374000,12.237,-28.332,-242.162,59.086,-298.092,-393.036,1.500,-2.240,14.780
234,38364.394000,12.237,-30.356,-244.139,51.232,-297.055,-391.914,-1.500,-13.240,16.780
235,38364.412000,11.258,-28.332,-246.116,48.314,-297.027,-392.847,1.500,-7.240,23.780
236,38364.434000,11.258,-29.344,-244.139,54.220,-299.014,-393.933,4.500,-5.240,22.780
237,38364.454000,11.258,-29.344,-243.151,54.194,-298.048,-392.949,4.500,3.760,23.780
238,38364.482000,11.258,-30.356,-243.151,54.194,-298.048,-392.949,3.500,1.760,25.780
239,38364.504000,12.237,-30.356,-243.151,47.370,-297.016,-394.799,3.500,-7.240,23.780
240,38364.524000,10.279,-31.368,-243.151,47.293,-297.989,-389.874,-0.500,-8.240,23.780
241,38364.542000,10.279,-30.356,-242.162,53.198,-296.104,-392.934,-4.500,-7.240,23.780
242,38364.564000,10.279,-29.344,-241.174,48.331,-295.090,-394.818,-3.500,-19.240,23.780
243,38364.589000,9.300,-28.332,-242.162,48.305,-296.060,-392.848,-2.500,-6.240,21.780
244,38364.608000,9.300,-29.344,-243.151,53.286,-301.907,-394.898,-1.500,-3.240,18.780
245,38364.637000,9.300,-27.320,-243.151,54.176,-296.113,-392.951,-1.500,-0.240,17.780
246,38364.641000,9.300,-28.332,-244.139,53.163,-296.106,-390.965,-2.500,-6.240,15.780
247,38364.658000,9.300,-29.344,-243.151,49.250,-298.006,-389.909,-5.500,-5.240,8.780
248,38364.680000,9.300,-29.344,-242.162,48.323,-297.995,-392.846,-8.500,-4.240,4.780
249,38364.703000,10.279,-28.332,-244.139,54.185,-297.081,-392.950,-6.500,-19.240,-1.220
250,38364.725000,9.300,-28.332,-244.139,48.314,-297.027,-392.847,-4.500,-10.240,-2.220
251,38364.745000,10.279,-27.320,-244.139,53.181,-299.977,-389.976,-5.500,4.760,-1.220
252,38364.768000,10.279,-30.356,-243.151,48.323,-297.995,-392.846,-7.500,1.760,3.780
253,38364.788000,10.279,-29.344,-246.116,48.323,-297.995,-392.846,-1.500,-8.240,5.780
254,38364.802000,9.300,-29.344,-245.127,52.246,-298.998,-392.914,0.500,-2.240,6.780
255,38364.827000,9.300,-30.356,-243.151,52.246,-298.998,-392.914,0.500,19.760,0.780
256,38364.849000,11.258,-28.332,-240.185,49.336,-298.001,-394.832,-1.500,2.760,-6.220
257,38364.872000,10.279,-30.356,-242.162,48.288,-297.996,-390.876,-4.500,-16.240,-7.220
258,38364.890000,9.300,-30.356,-242.162,48.383,-295.087,-397.772,-9.500,12.760,-4.220
259,38364.912000,11.258,-29.344,-243.151,49.266,-296.070,-391.880,-8.500,5.760,-7.220
260,38364.939000,10.279,-27.320,-242.162,48.340,-296.058,-394.817,-9.500,-26.240,-16.220
261,38364.953000,9.300,-29.344,-244.139,47.345,-299.921,-391.842,-9.500,-20.240,-19.220
262,38364.975000,9.300,-28.332,-244.139,48.366,-298.960,-394.814,-9.500,-8.240,-15.220
263,38364.995000,10.279,-28.332,-245.127,47.388,-300.887,-393.810,-10.500,6.760,-13.220
264,38365.18000,10.279,-29.344,-245.127,48.323,-299.930,-391.859,-7.500,-9.240,-14.220
265,38365.40000,11.258,-30.356,-245.127,46.322,-297.011,-390.842,-6.500,-13.240,-15.220
266,38365.58000,12.237,-29.344,-245.127,51.251,-300.925,-390.925,-4.500,-7.240,-16.220
267,38365.80000,10.279,-29.344,-244.139,55.155,-298.058,-391.982,-3.500,-5.240,-18.220
268,38365.100000,11.258,-29.344,-244.139,50.254,-297.046,-391.896,-0.500,-8.240,-16.220
269,38365.113000,12.237,-29.344,-243.151,57.164,-300.008,-393.984,-0.500,-3.240,-7.220
270,38365.129000,14.195,-29.344,-245.127,54.203,-299.015,-392.948,1.500,-11.240,-1.220
271,38365.151000,11.258,-29.344,-244.139,47.353,-297.017,-393.814,2.500,-16.240,1.780
272,38365.178000,11.258,-28.332,-243.151,48.340,-297.994,-393.830,7.500,-9.240,8.780
273,38365.197000,12.237,-29.344,-242.162,53.251,-301.909,-392.928,8.500,-0.240,12.780
274,38365.214000,13.216,-28.332,-242.162,52.236,-296.094,-393.901,6.500,-9.240,16.780
275,38365.234000,10.279,-30.356,-242.162,46.462,-300.875,-396.747,4.500,-23.240,15.780
276,38365.262000,9.300,-29.344,-241.174,45.352,-296.034,-391.811,2.500,-5.240,21.780
277,38365.300000,9.300,-29.344,-242.162,54.237,-299.013,-394.918,2.500,-5.240,21.780
278,38365.313000,9.300,-30.356,-243.151,52.211,-297.064,-391.931,2.500,-7.240,17.780
279,38365.327000,9.300,-30.356,-242.162,52.264,-300.932,-392.912,4.500,-7.240,15.780
280,38365.349000,9.300,-29.344,-244.139,47.328,-299.922,-390.857,3.500,-7.240,14.780
281,38365.364000,10.279,-30.356,-244.139,51.224,-299.959,-389.941,2.500,-6.240,8.780
282,38365.387000,8.321,-28.332,-243.151,47.353,-298.953,-392.827,5.500,-4.240,5.780
283,38365.409000,10.279,-29.344,-244.139,49.267,-298.005,-390.893,6.500,-5.240,7.780
284,38365.427000,11.258,-29.344,-244.139,53.277,-300.939,-394.899,5.500,-13.240,6.780
285,38365.436000,9.300,-29.344,-242.162,52.220,-299.967,-390.943,5.500,-10.240,2.780
286,38365.468000,10.279,-28.332,-243.151,47.267,-298.958,-387.904,6.500,-6.240,1.780
287,38365.489000,9.300,-30.356,-243.151,50.211,-298.016,-388.941,-0.500,-17.240,2.780
288,38365.512000,10.279,-29.344,-244.139,48.376,-301.863,-393.826,-0.500,-22.240,0.780
289,38365.529000,9.300,-30.356,-244.139,52.211,-298.999,-390.944,-0.500,-24.240,1.780
290,38365.552000,9.300,-30.356,-240.185,50.219,-297.048,-389.927,0.500,-1.240,-1.220
291,38365.569000,11.258,-27.320,-241.174,49.267,-299.941,-389.907,-4.500,-6.240,-6.220
292,38365.592000,10.279,-29.344,-243.151,53.199,-299.976,-390.961,-7.500,-29.240,-5.220
293,38365.609000,9.300,-29.344,-243.151,50.272,-298.981,-391.894,-12.500,-11.240,0.780
294,38365.632000,10.279,-27.320,-244.139,46.322,-295.076,-391.829,-8.500,4.760,3.780
295,38365.679000,11.258,-29.344,-245.127,45.370,-297.969,-391.809,-4.500,-9.240,4.780
296,38365.688000,9.300,-28.332,-245.127,53.207,-299.007,-391.946,-2.500,-13.240,6.780
297,38365.697000,9.300,-29.344,-245.127,51.242,-301.894,-389.939,-1.500,-8.240,7.780
298,38365.722000,10.279,-28.332,-244.139,48.315,-298.963,-391.860,0.500,-2.240,9.780
299,38365.739000,9.300,-29.344,-244.139,46.375,-300.880,-391.823,2.500,-20.240,7.780
300,38365.754000,9.300,-28.332,-244.139,46.384,-299.912,-392.809,3.500,-22.240,5.780
301,38365.782000,8.321,-28.332,-243.151,47.389,-302.823,-392.823,3.500,-7.240,3.780
302,38365.802000,9.300,-30.356,-243.151,50.264,-301.885,-389.922,5.500,-4.240,2.780
303,38365.823000,9.300,-29.344,-242.162,51.337,-300.921,-395.849,4.500,-2.240,-0.220
304,38365.845000,10.279,-30.356,-241.174,51.224,-299.959,-389.941,1.500,-15.240,-1.220
305,38365.860000,8.321,-30.356,-243.151,48.341,-299.929,-392.844,-2.500,-8.240,-1.220
306,38365.883000,9.300,-29.344,-244.139,46.393,-300.879,-392.808,-3.500,-0.240,-2.220
307,38365.900000,10.279,-30.356,-242.162,53.164,-299.978,-388.991,-1.500,6.760,-2.220
308,38365.923000,10.279,-29.344,-241.174,50.298,-301.883,-391.892,-3.500,-3.240,-4.220
309,38365.941000,9.300,-28.332,-243.151,46.323,-300.883,-388.869,-3.500,-15.240,-0.220
310,38365.963000,8.321,-29.344,-242.162,57.139,-300.978,-392.014,-8.500,-0.240,1.780
311,38365.990000,10.279,-28.332,-242.162,55.138,-299.995,-390.010,-10.500,1.760,-0.220
312,38366.6000,10.279,-29.344,-243.151,48.324,-303.802,-389.885,-13.500,-10.240,-2.220
313,38366.28000,9.300,-28.332,-244.139,44.392,-299.896,-390.805,-13.500,-21.240,-0.220
314,38366.43000,9.300,-29.344,-242.162,50.298,-299.947,-392.878,-10.500,-20.240,-3.220
315,38366.65000,8.321,-29.344,-243.151,52.186,-301.905,-387.987,-9.500,-0.240,-1.220
316,38366.88000,9.300,-28.332,-244.139,43.397,-301.824,-388.816,-6.500,-5.240,-4.220
317,38366.105000,8.321,-28.332,-245.127,48.323,-299.930,-391.859,-2.500,-9.240,-4.220
318,38366.142000,8.321,-27.320,-246.116,47.345,-299.921,-391.842,-2.500,3.760,-5.220
319,38366.162000,10.279,-29.344,-246.116,52.168,-298.034,-388.976,-1.500,8.760,-4.220
320,38366.175000,9.300,-29.344,-246.116,52.159,-299.002,-387.990,1.500,-2.240,-8.220
321,38366.193000,10.279,-29.344,-246.116,51.259,-301.893,-390.924,5.500,-2.240,-5.220
322,38366.215000,10.279,-29.344,-243.151,51.242,-301.894,-389.939,3.500,-12.240,-3.220
323,38366.230000,10.279,-28.332,-245.127,48.272,-301.869,-387.918,4.500,-19.240,-0.220
324,38366.248000,7.342,-29.344,-244.139,46.366,-299.913,-391.824,7.500,-15.240,0.780
325,38366.265000,9.300,-29.344,-243.151,50.246,-299.950,-389.924,6.500,1.760,-2.220
326,38366.288000,10.279,-27.320,-242.162,51.259,-299.957,-391.911,5.500,-17.240,-5.220
327,38366.307000,9.300,-30.356,-243.151,53.172,-297.074,-390.964,2.500,-23.240,-5.220
328,38366.329000,7.342,-29.344,-244.139,47.276,-299.925,-387.903,2.500,7.760,-1.220
329,38366.349000,10.279,-30.356,-242.162,49.311,-300.907,-391.875,1.500,3.760,-0.220
330,38366.377000,11.258,-31.368,-242.162,45.293,-298.941,-386.884,-0.500,-16.240,3.780
331,38366.396000,10.279,-30.356,-242.162,47.310,-299.923,-389.872,-4.500,-15.240,6.780
332,38366.433000,9.300,-29.344,-241.174,51.303,-304.794,-391.906,-7.500,-7.240,5.780
333,38366.433000,10.279,-28.332,-242.162,51.216,-300.927,-388.956,-9.500,0.760,4.780
334,38366.447000,9.300,-28.332,-243.151,46.306,-300.884,-387.884,-9.500,-9.240,7.780
335,38366.474000,9.300,-28.332,-244.139,47.345,-301.857,-390.855,-9.500,-13.240,9.780
336,38366.497000,10.279,-28.332,-244.139,48.333,-304.769,-389.884,-8.500,-10.240,11.780
337,38366.519000,9.300,-28.332,-244.139,49.276,-300.909,-389.906,-9.500,-5.240,12.780
338,38366.539000,10.279,-28.332,-245.127,43.449,-301.821,-391.770,-9.500,-8.240,11.780
339,38366.557000,9.300,-30.356,-244.139,47.346,-303.793,-389.868,-10.500,-10.240,10.780
340,38366.579000,8.321,-29.344,-245.127,51.251,-300.925,-390.925,-9.500,-12.240,7.780
341,38366.597000,7.342,-29.344,-245.127,48.332,-298.962,-392.845,-7.500,-13.240,7.780
342,38366.619000,9.300,-29.344,-244.139,46.315,-301.851,-387.883,-2.500,-5.240,4.780
343,38366.639000,9.300,-28.332,-246.116,45.353,-299.906,-389.837,0.500,-6.240,2.780
344,38366.659000,9.300,-29.344,-245.127,47.337,-302.826,-389.869,-0.500,-9.240,-0.220
345,38366.687000,9.300,-28.332,-244.139,51.216,-300.927,-388.956,-1.500,-2.240,0.780
346,38366.702000,9.300,-28.332,-243.151,50.290,-302.851,-390.906,0.500,-5.240,0.780
347,38366.719000,9.300,-27.320,-246.116,53.199,-301.912,-389.974,4.500,-13.240,3.780
348,38366.742000,9.300,-27.320,-244.139,46.367,-301.848,-390.838,5.500,-12.240,7.780
349,38366.762000,9.300,-27.320,-244.139,50.246,-301.886,-388.937,7.500,-9.240,10.780
350,38366.804000,9.300,-28.332,-244.139,52.273,-301.900,-392.911,8.500,-10.240,9.780
351,38366.818000,9.300,-28.332,-244.139,51.208,-301.896,-387.970,7.500,-13.240,8.780
352,38366.834000,9.300,-27.320,-242.162,49.277,-304.780,-387.932,6.500,-15.240,9.780
353,38366.849000,9.300,-28.332,-244.139,51.277,-303.828,-390.922,7.500,-14.240,7.780
354,38366.872000,9.300,-28.332,-244.139,45.424,-303.773,-391.803,8.500,-3.240,8.780
355,38366.885000,8.321,-29.344,-243.151,52.186,-299.969,-388.974,9.500,-8.240,6.780
356,38366.908000,8.321,-30.356,-243.151,51.243,-303.830,-388.953,9.500,-7.240,6.780
357,38366.925000,9.300,-31.368,-243.151,44.375,-301.832,-388.833,7.500,-12.240,7.780
358,38366.946000,8.321,-30.356,-242.162,50.256,-304.789,-387.950,8.500,-15.240,4.780
359,38366.967000,6.363,-30.356,-241.174,50.230,-303.823,-386.966,10.500,-1.240,9.780
360,38366.988000,9.300,-31.368,-241.174,47.345,-301.857,-390.855,8.500,2.760,2.780
361,38367.10000,9.300,-29.344,-241.174,49.329,-302.841,-391.873,-0.500,-12.240,2.780
362,38367.28000,7.342,-31.368,-241.174,51.199,-302.864,-386.984,-7.500,-22.240,2.780
363,38367.50000,6.363,-28.332,-242.162,48.263,-300.902,-387.919,-9.500,-1.240,0.780
364,38367.78000,8.321,-28.332,-243.151,54.204,-302.887,-390.975,-9.500,0.760,-2.220
365,38367.101000,8.321,-29.344,-241.174,46.376,-304.751,-389.850,-11.500,-11.240,-2.220
366,38367.119000,7.342,-28.332,-243.151,49.285,-301.876,-389.905,-15.500,-9.240,-0.220
367,38367.138000,8.321,-29.344,-242.162,51.234,-304.798,-387.967,-14.500,-3.240,-0.220
368,38367.147000,7.342,-29.344,-245.127,48.332,-300.898,-391.858,-14.500,-5.240,-0.220
369,38367.172000,7.342,-30.356,-244.139,49.295,-304.779,-388.917,-12.500,1.760,0.780
370,38367.194000,9.300,-29.344,-244.139,51.277,-301.892,-391.909,-11.500,0.760,-3.220
371,38367.212000,9.300,-29.344,-246.116,46.350,-301.849,-389.853,-7.500,-13.240,-7.220
372,38367.234000,9.300,-28.332,-244.139,44.401,-300.863,-390.804,-5.500,4.760,-9.220
373,38367.252000,9.300,-28.332,-244.139,48.272,-301.869,-387.918,-2.500,4.760,-7.220
374,38367.279000,9.300,-28.332,-244.139,46.385,-303.783,-390.836,-1.500,-0.240,-3.220
375,38367.297000,10.279,-27.320,-245.127,48.281,-302.836,-387.917,4.500,-1.240,0.780
376,38367.314000,8.321,-28.332,-245.127,53.199,-301.912,-389.974,7.500,-2.240,0.780
377,38367.342000,8.321,-29.344,-244.139,46.332,-301.850,-388.868,8.500,12.760,0.780
378,38367.359000,10.279,-28.332,-244.139,46.332,-301.850,-388.868,11.500,12.760,3.780
379,38367.377000,9.300,-30.356,-245.127,46.342,-304.753,-387.880,10.500,-9.240,3.780
380,38367.409000,9.300,-29.344,-243.151,49.320,-303.810,-390.888,9.500,0.760,5.780
381,38367.412000,8.321,-29.344,-242.162,49.311,-302.842,-390.889,7.500,2.760,2.780
382,38367.443000,9.300,-30.356,-242.162,44.393,-301.832,-389.818,3.500,-2.240,5.780
383,38367.461000,9.300,-29.344,-242.162,48.298,-302.835,-388.902,-0.500,-5.240,4.780
384,38367.481000,9.300,-29.344,-242.162,44.341,-301.834,-386.864,-2.500,-1.240,-0.220
385,38367.515000,9.300,-28.332,-242.162,50.307,-302.850,-391.891,-0.500,1.760,-2.220
386,38367.528000,9.300,-29.344,-245.127,48.289,-301.868,-388.903,-1.500,0.760,-0.220
387,38367.546000,8.321,-29.344,-244.139,48.332,-300.898,-391.858,-2.500,-7.240,2.780
388,38367.562000,9.300,-29.344,-246.116,48.254,-299.934,-387.920,0.500,-1.240,6.780
389,38367.588000,10.279,-29.344,-246.116,42.383,-299.881,-387.816,1.500,-6.240,7.780
390,38367.613000,10.279,-30.356,-246.116,44.358,-301.833,-387.849,3.500,-17.240,5.780
391,38367.636000,9.300,-29.344,-247.104,44.375,-301.832,-388.833,7.500,-9.240,4.780
392,38367.653000,8.321,-31.368,-244.139,52.229,-298.999,-391.929,5.500,-1.240,6.780
393,38367.675000,10.279,-29.344,-245.127,49.268,-301.877,-388.920,4.500,-5.240,5.780
394,38367.690000,8.321,-27.320,-244.139,45.319,-301.843,-386.881,10.500,-27.240,11.780
395,38367.714000,6.363,-30.356,-241.174,43.432,-303.757,-389.799,9.500,-5.240,19.780
396,38367.742000,7.342,-26.308,-241.174,45.336,-299.907,-388.853,3.500,2.760,17.780
397,38367.757000,10.279,-31.368,-242.162,50.221,-304.791,-385.980,-0.500,-18.240,12.780
398,38367.786000,8.321,-30.356,-242.162,50.273,-304.788,-388.934,-4.500,-17.240,3.780
399,38367.803000,8.321,-29.344,-241.174,49.277,-304.780,-387.932,-4.500,-9.240,-2.220
400,38367.819000,7.342,-28.332,-243.151,50.308,-304.786,-390.904,-5.500,-12.240,-6.220
401,38367.838000,9.300,-29.344,-241.174,44.349,-300.866,-387.850,-4.500,-19.240,-3.220
402,38367.859000,9.300,-29.344,-244.139,49.338,-305.745,-390.886,-4.500,-18.240,-2.220
403,38367.874000,9.300,-29.344,-244.139,48.281,-302.836,-387.917,-2.500,-8.240,0.780
404,38367.897000,8.321,-29.344,-242.162,50.308,-304.786,-390.904,-1.500,-11.240,-3.220
405,38367.917000,9.300,-29.344,-245.127,44.332,-302.803,-385.878,1.500,-10.240,-3.220
406,38367.948000,8.321,-28.332,-243.151,50.308,-306.722,-389.917,2.500,-6.240,-0.220
407,38367.963000,9.300,-29.344,-244.139,50.238,-304.790,-386.965,5.500,-4.240,3.780
408,38367.989000,9.300,-29.344,-243.151,48.350,-302.833,-391.856,6.500,5.760,9.780
409,38368.2000,9.300,-30.356,-243.151,52.195,-304.808,-386.999,5.500,10.760,6.780
410,38368.18000,9.300,-30.356,-243.151,48.377,-305.735,-391.853,4.500,10.760,2.780
411,38368.39000,8.321,-30.356,-243.151,49.277,-302.844,-388.919,4.500,-0.240,2.780
412,38368.65000,8.321,-29.344,-243.151,54.195,-303.855,-389.989,6.500,0.760,6.780
413,38368.84000,9.300,-29.344,-243.151,49.285,-301.876,-389.905,6.500,7.760,9.780
414,38368.114000,8.321,-29.344,-243.151,47.320,-302.827,-388.884,8.500,-1.240,8.780
415,38368.129000,7.342,-30.356,-243.151,51.294,-301.891,-392.894,7.500,-4.240,8.780
416,38368.151000,9.300,-30.356,-244.139,54.083,-302.894,-384.082,7.500,4.760,7.780
417,38368.173000,8.321,-29.344,-244.139,56.161,-302.905,-391.010,4.500,0.760,4.780
418,38368.182000,7.342,-29.344,-242.162,51.216,-302.863,-387.969,5.500,-1.240,6.780
419,38368.199000,9.300,-30.356,-241.174,45.388,-301.839,-390.820,6.500,4.760,7.780
420,38368.224000,8.321,-30.356,-240.185,49.172,-300.914,-383.997,6.500,8.760,8.780
421,38368.242000,9.300,-31.368,-242.162,48.298,-302.835,-388.902,2.500,10.760,12.780
422,38368.273000,9.300,-29.344,-243.151,52.212,-300.935,-389.958,-2.500,5.760,10.780
423,38368.291000,8.321,-30.356,-243.151,53.182,-301.913,-388.989,-3.500,-10.240,4.780
424,38368.309000,8.321,-29.344,-245.127,46.342,-304.753,-387.880,-4.500,-11.240,-0.220
425,38368.332000,8.321,-30.356,-244.139,45.328,-302.811,-386.880,-7.500,-6.240,-2.220
426,38368.349000,9.300,-30.356,-243.151,45.336,-299.907,-388.853,-6.500,-9.240,-1.220
427,38368.369000,7.342,-29.344,-243.151,50.308,-304.786,-390.904,-4.500,-8.240,0.780
428,38368.387000,9.300,-30.356,-245.127,49.242,-302.846,-386.949,-4.500,-4.240,0.780
429,38368.415000,9.300,-29.344,-245.127,49.259,-302.845,-387.934,-0.500,-8.240,-0.220
430,38368.432000,8.321,-30.356,-244.139,42.427,-302.782,-388.798,-0.500,-10.240,1.780
431,38368.457000,9.300,-27.320,-245.127,46.324,-302.819,-387.882,0.500,-6.240,1.780
432,38368.477000,5.384,-30.356,-242.162,47.303,-304.763,-386.913,8.500,-15.240,4.780
433,38368.497000,8.321,-30.356,-241.174,52.186,-301.905,-387.987,5.500,6.760,1.780
434,38368.539000,10.279,-28.332,-241.174,47.337,-302.826,-389.869,0.500,0.760,1.780
435,38368.553000,9.300,-30.356,-243.151,45.337,-301.842,-387.866,-7.500,-22.240,-2.220
436,38368.559000,8.321,-28.332,-242.162,47.329,-305.730,-387.897,-11.500,-16.240,0.780
437,38368.573000,8.321,-28.332,-242.162,51.216,-300.927,-388.956,-9.500,-2.240,-1.220
438,38368.599000,10.279,-29.344,-245.127,46.359,-302.817,-389.852,-9.500,-4.240,-2.220
439,38368.622000,9.300,-30.356,-246.116,54.178,-303.856,-389.005,-7.500,-18.240,-0.220
440,38368.637000,6.363,-30.356,-244.139,51.226,-305.766,-386.981,-7.500,-7.240,4.780
441,38368.654000,8.321,-28.332,-243.151,51.225,-303.831,-387.968,-5.500,6.760,6.780
442,38368.677000,9.300,-30.356,-244.139,44.446,-305.700,-390.799,-2.500,-11.240,3.780
443,38368.699000,7.342,-29.344,-244.139,43.406,-302.791,-388.815,-1.500,-10.240,2.780
444,38368.716000,8.321,-28.332,-244.139,45.354,-301.841,-388.851,0.500,-0.240,3.780
445,38368.742000,9.300,-30.356,-244.139,46.332,-301.850,-388.868,2.500,-2.240,0.780
446,38368.759000,8.321,-29.344,-244.139,46.351,-307.657,-386.893,4.500,-1.240,0.780
447,38368.789000,8.321,-30.356,-245.127,48.360,-305.736,-390.868,3.500,-1.240,4.780
448,38368.807000,9.300,-29.344,-243.151,49.302,-301.875,-390.889,2.500,-3.240,6.780
449,38368.827000,9.300,-30.356,-242.162,42.471,-303.748,-390.766,1.500,-2.240,7.780
450,38368.844000,8.321,-30.356,-243.151,49.373,-307.678,-391.868,5.500,0.760,11.780
451,38368.864000,9.300,-29.344,-242.162,48.359,-301.864,-392.842,5.500,8.760,13.780
452,38368.885000,8.321,-29.344,-243.151,49.277,-302.844,-388.919,6.500,8.760,14.780
453,38368.908000,9.300,-30.356,-244.139,45.380,-302.808,-389.835,7.500,7.760,13.780
454,38368.931000,10.279,-29.344,-243.151,51.225,-301.895,-388.955,6.500,2.760,13.780
455,38368.962000,7.342,-28.332,-243.151,48.290,-303.804,-387.916,4.500,-10.240,10.780
456,38368.983000,8.321,-29.344,-244.139,48.280,-300.901,-388.904,5.500,-5.240,11.780
457,38369.4000,8.321,-29.344,-244.139,44.375,-301.832,-388.833,5.500,-6.240,10.780
458,38369.6000,6.363,-29.344,-243.151,47.355,-304.760,-389.867,4.500,-7.240,7.780
459,38369.31000,7.342,-30.356,-246.116,54.135,-304.827,-386.049,5.500,-5.240,5.780
460,38369.53000,8.321,-29.344,-243.151,50.299,-303.819,-390.905,6.500,-7.240,-0.220
461,38369.73000,7.342,-29.344,-244.139,51.173,-301.898,-386.000,3.500,-5.240,-2.220
462,38369.79000,8.321,-30.356,-245.127,49.268,-301.877,-388.920,1.500,-2.240,-3.220
463,38369.107000,9.300,-29.344,-245.127,46.306,-300.884,-387.884,0.500,-13.240,-6.220
464,38369.137000,9.300,-30.356,-245.127,46.341,-302.818,-388.867,4.500,-25.240,-6.220
465,38369.152000,7.342,-29.344,-245.127,46.351,-305.721,-387.879,5.500,-11.240,-1.220
466,38369.172000,9.300,-30.356,-244.139,49.286,-303.812,-388.918,6.500,-2.240,0.780
467,38369.189000,10.279,-30.356,-244.139,44.341,-301.834,-386.864,8.500,-18.240,0.780
468,38369.207000,10.279,-30.356,-243.151,44.332,-302.803,-385.878,6.500,-23.240,2.780
469,38369.229000,9.300,-30.356,-243.151,50.265,-307.692,-386.962,2.500,-15.240,10.780
470,38369.249000,10.279,-30.356,-243.151,51.216,-302.863,-387.969,2.500,-20.240,18.780
471,38369.282000,10.279,-29.344,-245.127,51.225,-301.895,-388.955,6.500,-34.240,23.780
472,38369.311000,5.384,-32.379,-246.116,45.320,-305.715,-384.908,10.500,-17.240,29.780
473,38369.319000,6.363,-32.379,-242.162,45.399,-308.614,-387.859,12.500,17.760,27.780
474,38369.337000,10.279,-30.356,-242.162,54.153,-306.761,-386.047,8.500,-14.240,21.780
475,38369.357000,9.300,-30.356,-244.139,48.377,-307.671,-390.866,3.500,-38.240,20.780
476,38369.379000,4.405,-30.356,-242.162,47.303,-306.699,-385.926,-0.500,-16.240,26.780
477,38369.395000,5.384,-29.344,-242.162,47.365,-309.599,-387.893,-0.500,-7.240,26.780
478,38369.413000,9.300,-29.344,-241.174,44.368,-306.672,-385.874,-0.500,-21.240,24.780
479,38369.431000,8.321,-28.332,-242.162,44.359,-303.769,-386.862,-1.500,-27.240,22.780
480,38369.456000,6.363,-29.344,-241.174,44.333,-304.739,-384.891,-3.500,-23.240,21.780
481,38369.477000,7.342,-30.356,-242.162,48.334,-306.705,-388.898,-8.500,-15.240,19.780
482,38369.498000,9.300,-31.368,-243.151,43.442,-308.596,-387.825,-8.500,-15.240,15.780
483,38369.521000,6.363,-30.356,-242.162,46.394,-306.686,-389.848,-5.500,-11.240,13.780
484,38369.543000,7.342,-31.368,-244.139,44.403,-306.670,-387.844,-6.500,-8.240,15.780
485,38369.558000,7.342,-30.356,-244.139,42.429,-308.589,-385.838,-3.500,-3.240,13.780
486,38369.589000,6.363,-31.368,-244.139,47.321,-308.634,-385.924,-4.500,-7.240,9.780
487,38369.604000,5.384,-31.368,-244.139,43.389,-306.664,-385.857,-4.500,-13.240,3.780
488,38369.622000,7.342,-30.356,-246.116,46.377,-308.623,-387.876,-6.500,-11.240,2.780
489,38369.647000,7.342,-29.344,-243.151,49.261,-308.653,-384.974,-6.500,-4.240,1.780
490,38369.664000,5.384,-27.320,-242.162,50.273,-304.788,-388.934,-1.500,-9.240,0.780
491,38369.682000,4.405,-29.344,-242.162,42.446,-306.653,-387.809,1.500,-1.240,3.780
492,38369.704000,6.363,-29.344,-241.174,44.420,-306.669,-388.829,-1.500,21.760,7.780
493,38369.718000,8.321,-30.356,-242.162,40.436,-304.702,-385.807,-8.500,17.760,4.780
494,38369.746000,7.342,-31.368,-243.151,44.411,-307.638,-387.843,-11.500,-23.240,4.780
495,38369.786000,4.405,-30.356,-247.104,44.342,-305.706,-384.891,-11.500,-37.240,4.780
496,38369.800000,2.447,-30.356,-246.116,46.334,-307.658,-385.908,-6.500,-15.240,2.780
497,38369.818000,7.342,-31.368,-247.104,44.368,-306.672,-385.874,-5.500,-5.240,2.780
498,38369.833000,6.363,-30.356,-245.127,44.341,-303.770,-385.877,-1.500,-6.240,-2.220
499,38369.851000,4.405,-30.356,-245.127,45.372,-305.712,-387.862,1.500,-9.240,-5.220
500,38369.868000,8.321,-31.368,-245.127,48.334,-308.641,-387.911,4.500,-3.240,-10.220
501,38369.891000,7.342,-30.356,-245.127,46.334,-307.658,-385.908,6.500,0.760,-12.220
502,38369.913000,9.300,-30.356,-243.151,41.450,-308.581,-385.820,6.500,9.760,-9.220
503,38369.936000,8.321,-30.356,-242.162,50.282,-305.755,-388.933,4.500,2.760,-7.220
504,38369.955000,8.321,-29.344,-241.174,45.338,-305.714,-385.893,3.500,-4.240,-2.220
505,38369.978000,9.300,-30.356,-241.174,42.411,-308.590,-384.853,0.500,-6.240,0.780
506,38369.996000,8.321,-31.368,-241.174,51.235,-308.669,-385.993,-0.500,-17.240,0.780
507,38370.13000,6.363,-30.356,-242.162,50.274,-308.660,-386.961,-4.500,-13.240,0.780
508,38370.41000,7.342,-31.368,-243.151,42.437,-305.685,-387.810,-6.500,-1.240,4.780
509,38370.63000,7.342,-31.368,-244.139,44.394,-307.639,-386.858,-9.500,-9.240,8.780
510,38370.67000,7.342,-31.368,-244.139,47.268,-304.765,-384.943,-4.500,-7.240,5.780
511,38370.94000,6.363,-31.368,-244.139,48.351,-306.704,-389.883,-1.500,8.760,2.780
512,38370.120000,7.342,-29.344,-243.151,41.440,-303.742,-387.795,2.500,9.760,-0.220
513,38370.142000,7.342,-29.344,-243.151,43.442,-308.596,-387.825,0.500,0.760,-1.220
514,38370.159000,6.363,-30.356,-246.116,48.326,-309.609,-386.925,-1.500,-0.240,-1.220
515,38370.177000,6.363,-29.344,-245.127,43.372,-306.664,-384.872,-1.500,2.760,-0.220
516,38370.194000,8.321,-29.344,-244.139,42.446,-306.653,-387.809,1.500,-9.240,-2.220
517,38370.217000,8.321,-29.344,-243.151,47.321,-306.698,-386.911,4.500,-14.240,-2.220
518,38370.237000,6.363,-30.356,-243.151,45.389,-303.775,-389.834,0.500,-0.240,-0.220
519,38370.264000,8.321,-29.344,-242.162,41.468,-308.580,-386.805,-1.500,8.760,0.780
520,38370.282000,9.300,-30.356,-243.151,41.459,-307.612,-386.806,-4.500,-10.240,-1.220
521,38370.301000,7.342,-29.344,-244.139,51.209,-307.703,-385.010,-0.500,-31.240,-5.220
522,38370.322000,4.405,-29.344,-244.139,43.459,-308.595,-388.809,-0.500,-11.240,-4.220
523,38370.339000,8.321,-29.344,-246.116,45.303,-307.652,-382.936,-1.500,-3.240,-0.220
524,38370.362000,7.342,-30.356,-244.139,45.381,-306.679,-387.861,6.500,-0.240,3.780
525,38370.382000,8.321,-30.356,-244.139,48.265,-308.645,-383.972,6.500,4.760,0.780
526,38370.404000,7.342,-32.379,-244.139,40.515,-307.601,-388.758,8.500,2.760,0.780
527,38370.444000,9.300,-30.356,-243.151,40.393,-303.737,-383.839,6.500,-1.240,-1.220
528,38370.458000,7.342,-30.356,-244.139,46.316,-305.723,-385.910,7.500,-0.240,2.780
529,38370.472000,7.342,-30.356,-243.151,51.234,-304.798,-387.967,7.500,7.760,5.780
530,38370.499000,8.321,-30.356,-241.174,45.321,-307.651,-383.921,6.500,0.760,9.780
531,38370.506000,7.342,-29.344,-241.174,44.403,-308.606,-386.857,4.500,-1.240,11.780
532,38370.530000,6.363,-30.356,-240.185,47.321,-308.634,-385.924,-0.500,6.760,12.780
533,38370.553000,7.342,-31.368,-242.162,46.325,-306.690,-385.909,-4.500,6.760,9.780
534,38370.578000,7.342,-31.368,-241.174,51.157,-305.770,-383.042,-9.500,3.760,7.780
535,38370.591000,8.321,-30.356,-242.162,45.356,-309.585,-384.904,-13.500,-11.240,2.780
536,38370.613000,5.384,-29.344,-244.139,47.259,-301.862,-385.931,-11.500,-5.240,1.780
537,38370.633000,6.363,-31.368,-243.151,46.290,-304.756,-384.926,-12.500,-2.240,1.780
538,38370.653000,7.342,-30.356,-244.139,40.471,-306.636,-386.790,-12.500,-6.240,2.780
539,38370.675000,8.321,-31.368,-244.139,40.480,-307.603,-386.789,-9.500,-16.240,0.780
540,38370.696000,5.384,-30.356,-245.127,40.428,-305.670,-384.821,-7.500,-15.240,-1.220
541,38370.708000,7.342,-29.344,-246.116,49.252,-307.685,-384.975,-5.500,-12.240,-3.220
542,38370.737000,7.342,-30.356,-247.104,42.437,-307.621,-386.823,0.500,-9.240,-3.220
543,38370.769000,5.384,-30.356,-247.104,46.377,-306.687,-388.863,4.500,-2.240,1.780
544,38370.781000,8.321,-30.356,-245.127,47.347,-309.600,-386.908,8.500,-1.240,3.780
545,38370.798000,9.300,-30.356,-245.127,44.368,-306.672,-385.874,9.500,-11.240,1.780
546,38370.820000,7.342,-30.356,-245.127,49.287,-307.683,-386.945,8.500,-9.240,1.780
547,38370.838000,7.342,-32.379,-242.162,47.312,-305.731,-386.912,6.500,-5.240,7.780
548,38370.856000,8.321,-30.356,-243.151,43.416,-307.630,-386.841,6.500,-8.240,8.780
549,38370.878000,7.342,-29.344,-242.162,42.429,-308.589,-385.838,9.500,-25.240,10.780
550,38370.899000,3.426,-31.368,-241.174,46.342,-306.689,-386.894,7.500,7.760,9.780
551,38370.927000,8.321,-30.356,-239.197,46.273,-304.757,-383.941,0.500,15.760,8.780
552,38370.942000,9.300,-31.368,-242.162,49.287,-309.619,-385.958,-5.500,-21.240,2.780
553,38370.964000,6.363,-31.368,-242.162,44.395,-309.575,-385.871,-7.500,-13.240,4.780
554,38370.997000,2.447,-31.368,-242.162,44.429,-307.637,-388.828,-10.500,14.760,5.780
555,38371.16000,8.321,-28.332,-243.151,45.390,-309.583,-386.873,-12.500,-17.240,-2.220
556,38371.35000,7.342,-29.344,-243.151,50.265,-305.756,-387.949,-15.500,-40.240,-9.220
557,38371.38000,3.426,-30.356,-244.139,43.389,-306.664,-385.857,-17.500,-34.240,-10.220
558,38371.59000,3.426,-29.344,-243.151,42.420,-309.558,-384.852,-17.500,-7.240,-11.220
559,38371.81000,7.342,-29.344,-245.127,42.428,-304.718,-387.811,-12.500,-12.240,-11.220
560,38371.98000,7.342,-30.356,-244.139,42.403,-307.623,-384.854,-6.500,-23.240,-11.220
561,38371.128000,5.384,-30.356,-244.139,46.369,-309.591,-386.891,-7.500,-5.240,-11.220
562,38371.150000,8.321,-30.356,-242.162,47.303,-306.699,-385.926,-3.500,0.760,-11.220
563,38371.166000,8.321,-30.356,-243.151,42.419,-305.686,-386.825,-0.500,-5.240,-9.220
564,38371.191000,8.321,-30.356,-244.139,44.395,-309.575,-385.871,-2.500,-10.240,-4.220
565,38371.209000,9.300,-30.356,-244.139,45.356,-309.585,-384.904,-3.500,-9.240,2.780
566,38371.231000,7.342,-30.356,-243.151,45.303,-307.652,-382.936,-2.500,-8.240,7.780
567,38371.244000,8.321,-30.356,-245.127,43.433,-309.565,-386.839,-0.500,-6.240,9.780
568,38371.267000,8.321,-30.356,-243.151,42.411,-308.590,-384.853,2.500,-0.240,9.780
569,38371.287000,7.342,-29.344,-243.151,42.385,-307.624,-383.869,2.500,-5.240,8.780
570,38371.309000,5.384,-29.344,-241.174,41.450,-308.581,-385.820,2.500,-3.240,10.780
571,38371.329000,6.363,-29.344,-243.151,45.373,-309.584,-385.889,0.500,12.760,17.780
572,38371.352000,7.342,-30.356,-243.151,46.395,-310.558,-387.875,-3.500,3.760,15.780
573,38371.366000,6.363,-29.344,-244.139,44.377,-309.576,-384.887,-2.500,-8.240,10.780
574,38371.413000,3.426,-30.356,-244.139,40.437,-306.638,-384.820,-1.500,-8.240,10.780
575,38371.427000,5.384,-29.344,-243.151,40.480,-307.603,-386.789,-4.500,5.760,12.780
576,38371.433000,4.405,-30.356,-242.162,40.515,-309.537,-387.772,-2.500,0.760,10.780
577,38371.463000,5.384,-30.356,-243.151,42.403,-307.623,-384.854,-1.500,-2.240,6.780
578,38371.478000,3.426,-30.356,-243.151,40.481,-309.539,-385.802,-0.500,0.760,8.780
579,38371.501000,4.405,-31.368,-242.162,42.421,-311.494,-383.865,-4.500,-0.240,7.780
580,38371.516000,7.342,-29.344,-242.162,43.415,-305.694,-387.828,-11.500,-11.240,-6.220
581,38371.538000,6.363,-30.356,-242.162,40.489,-308.571,-386.788,-12.500,-36.240,-16.220
582,38371.578000,4.405,-29.344,-244.139,41.467,-306.644,-387.792,-15.500,-23.240,-17.220
583,38371.579000,8.321,-28.332,-244.139,47.321,-308.634,-385.924,-17.500,-19.240,-16.220
584,38371.593000,7.342,-26.308,-245.127,44.420,-308.605,-387.842,-15.500,-34.240,-14.220
585,38371.613000,4.405,-26.308,-245.127,47.269,-306.701,-383.957,-10.500,-29.240,-14.220
586,38371.636000,6.363,-29.344,-246.116,39.493,-308.563,-385.786,-3.500,-0.240,-9.220
587,38371.653000,9.300,-28.332,-247.104,42.420,-307.622,-385.839,-1.500,6.760,-4.220
588,38371.676000,7.342,-28.332,-246.116,42.411,-308.590,-384.853,8.500,-9.240,1.780
589,38371.707000,4.405,-31.368,-244.139,43.416,-307.630,-386.841,8.500,15.760,3.780
590,38371.722000,9.300,-28.332,-244.139,44.421,-310.541,-386.855,9.500,20.760,5.780
591,38371.744000,8.321,-30.356,-243.151,47.339,-310.569,-385.922,4.500,0.760,4.780
592,38371.766000,6.363,-29.344,-244.139,40.463,-309.540,-384.817,2.500,-14.240,3.780
593,38371.786000,5.384,-30.356,-242.162,40.515,-309.537,-387.772,2.500,-1.240,0.780
594,38371.808000,5.384,-29.344,-242.162,42.377,-308.592,-382.883,2.500,2.760,2.780
595,38371.821000,6.363,-28.332,-242.162,44.377,-307.640,-385.873,2.500,-4.240,7.780
596,38371.848000,6.363,-29.344,-244.139,42.412,-310.526,-383.866,-1.500,3.760,9.780
597,38371.891000,7.342,-29.344,-242.162,42.447,-310.524,-385.836,-3.500,7.760,2.780
598,38371.891000,7.342,-31.368,-243.151,45.399,-308.614,-387.859,-4.500,-8.240,2.780
599,38371.894000,3.426,-29.344,-243.151,42.447,-310.524,-385.836,-2.500,-7.240,0.780
600,38371.922000,4.405,-27.320,-243.151,39.493,-308.563,-385.786,-2.500,3.760,4.780
601,38371.944000,7.342,-29.344,-245.127,46.290,-306.692,-383.939,-3.500,5.760,3.780
602,38371.962000,5.384,-29.344,-245.127,47.356,-308.632,-387.894,-2.500,-5.240,-0.220
603,38371.984000,4.405,-28.332,-245.127,47.260,-305.734,-383.958,-1.500,-1.240,-5.220
604,38372.7000,7.342,-29.344,-244.139,38.471,-307.588,-383.800,-0.500,5.760,-3.220
605,38372.33000,8.321,-30.356,-247.104,45.346,-306.681,-385.892,-0.500,4.760,2.780
606,38372.47000,8.321,-28.332,-246.116,42.402,-305.687,-385.841,2.500,1.760,4.780
607,38372.65000,6.363,-29.344,-244.139,38.549,-308.552,-387.738,8.500,5.760,4.780
608,38372.89000,6.363,-30.356,-242.162,42.420,-307.622,-385.839,6.500,14.760,4.780
609,38372.112000,8.321,-29.344,-243.151,42.385,-305.688,-384.856,5.500,3.760,5.780
610,38372.129000,7.342,-28.332,-243.151,50.231,-309.630,-384.006,1.500,-19.240,-0.220
611,38372.147000,5.384,-28.332,-243.151,42.420,-307.622,-385.839,-1.500,-10.240,-1.220
612,38372.174000,4.405,-29.344,-241.174,41.432,-306.646,-385.822,-10.500,7.760,-0.220
613,38372.192000,8.321,-28.332,-241.174,46.343,-308.625,-385.907,-14.500,-8.240,1.780
614,38372.214000,7.342,-28.332,-241.174,43.434,-311.501,-385.852,-17.500,-26.240,1.780
615,38372.231000,3.426,-29.344,-243.151,39.458,-304.693,-385.790,-15.500,-14.240,-0.220
616,38372.251000,3.426,-30.356,-243.151,41.503,-310.513,-387.788,-15.500,0.760,-5.220
617,38372.277000,7.342,-29.344,-245.127,43.382,-309.568,-383.885,-14.500,-0.240,-10.220
618,38372.297000,7.342,-28.332,-245.127,41.433,-308.582,-384.836,-13.500,-18.240,-11.220
619,38372.317000,5.384,-29.344,-244.139,38.515,-308.554,-385.769,-10.500,-13.240,-11.220
620,38372.350000,6.363,-28.332,-244.139,42.429,-308.589,-385.838,-8.500,6.760,-8.220
621,38372.377000,8.321,-28.332,-244.139,45.382,-308.615,-386.874,-8.500,-2.240,-9.220
622,38372.377000,8.321,-28.332,-245.127,40.419,-306.639,-383.836,-8.500,-14.240,-9.220
623,38372.399000,8.321,-29.344,-247.104,38.515,-308.554,-385.769,-6.500,-7.240,-2.220
624,38372.424000,8.321,-28.332,-246.116,43.398,-307.631,-385.856,-3.500,-15.240,1.780
625,38372.444000,8.321,-28.332,-244.139,43.407,-308.598,-385.855,1.500,-19.240,0.780
626,38372.467000,6.363,-28.332,-246.116,40.497,-307.602,-387.774,1.500,-14.240,1.780
627,38372.476000,6.363,-26.308,-246.116,41.450,-308.581,-385.820,10.500,-6.240,3.780
628,38372.503000,5.384,-30.356,-245.127,49.261,-308.653,-384.974,12.500,1.760,6.780
629,38372.526000,6.363,-30.356,-242.162,40.471,-306.636,-386.790,10.500,4.760,3.780
630,38372.549000,7.342,-29.344,-242.162,43.425,-310.533,-385.853,3.500,-13.240,4.780
631,38372.567000,8.321,-30.356,-242.162,41.424,-305.678,-385.823,-0.500,-15.240,5.780
632,38372.594000,4.405,-29.344,-242.162,45.364,-306.680,-386.876,-2.500,-4.240,2.780
633,38372.609000,5.384,-27.320,-239.197,45.321,-307.651,-383.921,-5.500,-5.240,3.780
634,38372.627000,8.321,-28.332,-240.185,39.476,-308.564,-384.801,-10.500,-15.240,5.780
635,38372.652000,7.342,-27.320,-241.174,41.407,-309.551,-382.865,-13.500,-15.240,7.780
636,38372.666000,7.342,-28.332,-240.185,41.458,-305.676,-387.793,-18.500,-13.240,4.780
637,38372.681000,6.363,-27.320,-242.162,43.346,-307.634,-382.902,-22.500,-11.240,5.780
638,38372.694000,4.405,-28.332,-243.151,41.503,-310.513,-387.788,-22.500,-15.240,4.780
639,38372.722000,4.405,-27.320,-245.127,42.385,-307.624,-383.869,-20.500,-16.240,-0.220
640,38372.752000,3.426,-27.320,-247.104,36.636,-311.435,-388.685,-16.500,-6.240,-5.220
641,38372.769000,5.384,-26.308,-246.116,37.519,-308.546,-384.766,-13.500,0.760,-8.220
642,38372.792000,6.363,-28.332,-247.104,41.476,-309.547,-386.804,-10.500,-9.240,-13.220
643,38372.812000,7.342,-28.332,-249.081,40.463,-309.540,-384.817,-11.500,-15.240,-12.220
644,38372.833000,5.384,-28.332,-248.093,36.540,-306.601,-385.736,-5.500,-19.240,-11.220
645,38372.861000,5.384,-27.320,-247.104,37.528,-309.513,-384.766,0.500,-8.240,-10.220
646,38372.881000,6.363,-27.320,-247.104,47.313,-311.538,-383.952,5.500,-7.240,-9.220
647,38372.896000,3.426,-25.296,-244.139,38.524,-309.521,-385.768,10.500,-12.240,-7.220
648,38372.918000,6.363,-27.320,-244.139,37.493,-307.579,-383.783,11.500,-6.240,-4.220
649,38372.943000,7.342,-27.320,-242.162,42.472,-309.555,-387.806,9.500,-6.240,-3.220
650,38372.954000,7.342,-27.320,-242.162,43.373,-310.536,-382.899,8.500,-15.240,-1.220
651,38372.974000,5.384,-28.332,-244.139,41.477,-313.419,-384.831,3.500,-28.240,-2.220
652,38372.991000,4.405,-28.332,-243.151,46.300,-309.595,-382.952,4.500,-24.240,-0.220
653,38373.4000,5.384,-28.332,-243.151,41.442,-309.549,-384.835,6.500,-7.240,2.780
654,38373.37000,5.384,-27.320,-244.139,39.433,-309.534,-381.846,7.500,-4.240,4.780
655,38373.57000,5.384,-28.332,-241.174,42.368,-307.625,-382.884,7.500,-8.240,4.780
656,38373.77000,2.447,-29.344,-243.151,43.373,-310.536,-382.899,3.500,-5.240,3.780
657,38373.109000,5.384,-28.332,-243.151,43.433,-309.565,-386.839,2.500,3.760,0.780
658,38373.128000,6.363,-28.332,-244.139,46.256,-306.694,-381.970,4.500,-0.240,1.780
659,38373.142000,5.384,-29.344,-245.127,42.394,-308.591,-383.868,3.500,-9.240,0.780
660,38373.160000,3.426,-27.320,-246.116,39.511,-308.562,-386.771,4.500,-3.240,5.780
661,38373.182000,8.321,-29.344,-243.151,46.352,-309.592,-385.906,3.500,11.760,6.780
662,38373.213000,8.321,-29.344,-243.151,40.498,-309.538,-386.787,5.500,2.760,8.780
663,38373.214000,3.426,-27.320,-245.127,41.416,-310.518,-382.864,-1.500,-10.240,7.780
664,38373.238000,2.447,-29.344,-244.139,42.472,-309.555,-387.806,5.500,-7.240,10.780
665,38373.259000,4.405,-28.332,-242.162,44.334,-308.610,-382.918,5.500,10.760,7.780
666,38373.281000,7.342,-28.332,-243.151,38.506,-307.586,-385.770,4.500,6.760,5.780
667,38373.303000,5.384,-29.344,-244.139,39.432,-307.598,-382.833,-2.500,-8.240,6.780
668,38373.319000,3.426,-28.332,-243.151,44.360,-307.641,-384.889,-8.500,0.760,6.780
669,38373.337000,5.384,-28.332,-243.151,47.295,-307.667,-384.940,-6.500,2.760,5.780
670,38373.364000,6.363,-29.344,-244.139,38.533,-310.489,-385.767,-1.500,-0.240,5.780
671,38373.387000,6.363,-28.332,-241.174,41.364,-308.585,-380.897,-3.500,-2.240,9.780
672,38373.412000,5.384,-28.332,-243.151,40.497,-307.602,-387.774,-6.500,-13.240,12.780
673,38373.432000,5.384,-28.332,-242.162,42.420,-307.622,-385.839,-12.500,-6.240,11.780
674,38373.465000,5.384,-27.320,-242.162,44.378,-311.511,-383.900,-15.500,-9.240,10.780
675,38373.483000,6.363,-29.344,-244.139,39.503,-311.466,-384.798,-15.500,-24.240,6.780
676,38373.499000,2.447,-27.320,-246.116,47.305,-312.506,-382.966,-9.500,-18.240,5.780
677,38373.507000,2.447,-28.332,-246.116,40.438,-310.509,-382.847,-3.500,1.760,8.780
678,38373.533000,5.384,-28.332,-245.127,38.411,-310.495,-378.873,-2.500,6.760,9.780
679,38373.553000,5.384,-28.332,-245.127,45.322,-311.522,-381.948,-2.500,-6.240,4.780
680,38373.573000,3.426,-27.320,-246.116,43.303,-308.604,-379.946,-4.500,-17.240,-0.220
681,38373.596000,2.447,-27.320,-245.127,45.365,-310.552,-384.903,-2.500,-13.240,-0.220
682,38373.618000,2.447,-28.332,-245.127,46.283,-311.532,-380.980,3.500,-2.240,-0.220
683,38373.633000,4.405,-27.320,-244.139,41.443,-313.421,-382.861,7.500,-8.240,-1.220
684,38373.649000,3.426,-28.332,-242.162,37.511,-309.514,-383.781,8.500,-13.240,-4.220
685,38373.671000,1.468,-29.344,-243.151,36.576,-312.407,-384.745,5.500,-0.240,-0.220
686,38373.689000,2.447,-27.320,-242.162,47.244,-309.606,-380.999,2.500,0.760,1.780
687,38373.709000,4.405,-27.320,-243.151,43.399,-311.503,-383.883,-0.500,-12.240,-0.220
688,38373.734000,2.447,-28.332,-244.139,40.464,-311.476,-383.831,0.500,-31.240,-10.220
689,38373.767000,1.468,-28.332,-244.139,38.524,-311.457,-384.781,0.500,-15.240,-15.220
690,38373.794000,3.426,-27.320,-246.116,39.502,-309.530,-385.785,2.500,-8.240,-14.220
691,38373.813000,3.426,-27.320,-246.116,41.425,-309.550,-383.850,3.500,-6.240,-16.220
692,38373.817000,3.426,-29.344,-244.139,42.421,-311.494,-383.865,7.500,-1.240,-16.220
693,38373.839000,4.405,-28.332,-245.127,45.313,-312.491,-380.962,10.500,-2.240,-14.220
694,38373.866000,7.342,-28.332,-245.127,41.486,-314.386,-384.830,8.500,-4.240,-10.220
695,38373.886000,7.342,-28.332,-242.162,39.511,-310.498,-385.784,10.500,-0.240,-7.220
696,38373.903000,7.342,-28.332,-242.162,39.493,-308.563,-385.786,7.500,0.760,-1.220
697,38373.926000,5.384,-28.332,-241.174,44.351,-308.609,-383.903,5.500,4.760,3.780
698,38373.944000,6.363,-29.344,-240.185,43.399,-311.503,-383.883,1.500,10.760,8.780
699,38373.967000,8.321,-28.332,-241.174,46.335,-311.529,-383.935,-7.500,-3.240,10.780
700,38373.981000,5.384,-26.308,-241.174,40.481,-311.475,-384.815,-8.500,-14.240,12.780
701,38374.11000,2.447,-32.379,-241.174,37.546,-311.448,-384.764,-11.500,4.760,4.780
702,38374.19000,4.405,-29.344,-243.151,39.476,-310.500,-383.814,-11.500,1.760,1.780
703,38374.42000,6.363,-30.356,-245.127,38.533,-310.489,-385.767,-16.500,-7.240,1.780
704,38374.59000,3.426,-28.332,-244.139,42.473,-311.491,-386.820,-15.500,-13.240,-2.220
705,38374.89000,5.384,-29.344,-246.116,44.369,-310.544,-383.901,-11.500,-10.240,-5.220
706,38374.108000,6.363,-28.332,-246.116,43.390,-308.599,-384.870,-8.500,-12.240,-7.220
707,38374.124000,5.384,-27.320,-246.116,43.417,-311.502,-384.867,-2.500,-9.240,-6.220
708,38374.154000,5.384,-27.320,-245.127,40.429,-311.478,-381.861,-0.500,-5.240,4.780
709,38374.173000,4.405,-27.320,-244.139,44.412,-311.509,-385.869,0.500,-1.240,10.780
710,38374.196000,6.363,-27.320,-245.127,45.278,-308.621,-380.966,1.500,0.760,13.780
711,38374.204000,4.405,-26.308,-242.162,36.558,-310.472,-384.747,3.500,3.760,16.780
712,38374.227000,5.384,-29.344,-243.151,41.381,-308.584,-381.881,2.500,5.760,17.780
713,38374.249000,4.405,-27.320,-243.151,41.477,-313.419,-384.831,4.500,15.760,15.780
714,38374.269000,4.405,-28.332,-243.151,41.381,-308.584,-381.881,1.500,31.760,9.780
715,38374.292000,5.384,-27.320,-243.151,41.399,-310.519,-381.879,-1.500,17.760,7.780
716,38374.311000,6.363,-28.332,-244.139,42.386,-309.560,-382.882,-4.500,-2.240,10.780
717,38374.324000,3.426,-28.332,-243.151,40.464,-313.412,-382.844,-3.500,5.760,11.780
718,38374.338000,3.426,-28.332,-243.151,43.408,-312.470,-383.882,-1.500,12.760,12.780
719,38374.370000,4.405,-29.344,-244.139,36.515,-309.506,-382.779,-3.500,2.760,10.780
720,38374.391000,3.426,-28.332,-244.139,42.455,-309.556,-386.822,-3.500,-2.240,7.780
721,38374.433000,2.447,-28.332,-243.151,38.524,-311.457,-384.781,-0.500,-0.240,4.780
722,38374.451000,6.363,-27.320,-244.139,37.589,-310.478,-387.719,-2.500,10.760,4.780
723,38374.459000,7.342,-27.320,-245.127,39.450,-309.533,-382.831,-2.500,-1.240,3.780
724,38374.473000,4.405,-26.308,-244.139,42.455,-311.492,-385.835,-5.500,-18.240,3.780
725,38374.496000,1.468,-28.332,-245.127,36.505,-306.603,-383.766,-1.500,-4.240,10.780
726,38374.522000,7.342,-28.332,-245.127,42.481,-310.522,-387.805,0.500,19.760,12.780
727,38374.544000,6.363,-28.332,-244.139,40.420,-310.510,-381.862,4.500,-1.240,11.780
728,38374.564000,6.363,-28.332,-245.127,39.519,-309.529,-386.770,6.500,-13.240,10.780
729,38374.584000,5.384,-29.344,-244.139,35.571,-309.496,-384.731,5.500,-7.240,13.780
730,38374.599000,8.321,-26.308,-243.151,33.666,-309.475,-387.651,4.500,4.760,12.780
731,38374.622000,6.363,-28.332,-243.151,37.589,-312.414,-386.732,6.500,-8.240,10.780
732,38374.642000,5.384,-28.332,-243.151,39.512,-312.433,-384.797,5.500,-14.240,10.780
733,38374.648000,5.384,-30.356,-244.139,42.481,-310.522,-387.805,3.500,-4.240,11.780
734,38374.667000,4.405,-28.332,-244.139,39.519,-309.529,-386.770,2.500,-1.240,7.780
735,38374.699000,3.426,-28.332,-243.151,43.433,-307.629,-387.826,5.500,-1.240,10.780
736,38374.717000,6.363,-30.356,-242.162,36.523,-308.538,-383.764,2.500,2.760,11.780
737,38374.740000,7.342,-27.320,-242.162,38.497,-308.555,-384.784,-3.500,-6.240,11.780
738,38374.774000,6.363,-29.344,-240.185,40.490,-310.506,-385.801,-8.500,-10.240,10.780
739,38374.803000,2.447,-28.332,-241.174,45.382,-310.551,-385.888,-16.500,-10.240,6.780
740,38374.812000,4.405,-27.320,-243.151,41.468,-310.515,-385.818,-19.500,-10.240,5.780
741,38374.826000,3.426,-26.308,-244.139,34.644,-309.484,-387.668,-16.500,-16.240,4.780
742,38374.848000,5.384,-27.320,-245.127,35.562,-308.528,-384.732,-16.500,-19.240,4.780
743,38374.866000,1.468,-27.320,-245.127,34.609,-307.550,-386.685,-15.500,-9.240,4.780
744,38374.888000,4.405,-27.320,-244.139,35.563,-310.464,-383.745,-12.500,0.760,6.780
745,38374.906000,6.363,-26.308,-245.127,39.528,-308.561,-387.755,-12.500,-12.240,4.780
746,38374.923000,3.426,-26.308,-245.127,38.489,-309.523,-383.798,-8.500,-25.240,-1.220
747,38374.946000,2.447,-27.320,-247.104,37.528,-309.513,-384.766,-7.500,-26.240,-3.220
748,38374.963000,2.447,-26.308,-246.116,32.627,-310.437,-383.693,-2.500,-13.240,-5.220
749,38374.982000,5.384,-26.308,-246.116,36.497,-309.507,-381.794,2.500,-3.240,-5.220
750,38375.7000,5.384,-25.296,-245.127,40.437,-308.574,-383.834,4.500,-4.240,-3.220
751,38375.28000,5.384,-28.332,-245.127,39.432,-307.598,-382.833,3.500,-12.240,-1.220
752,38375.49000,2.447,-26.308,-242.162,37.519,-310.482,-383.780,5.500,-8.240,-0.220
753,38375.69000,4.405,-27.320,-244.139,37.519,-310.482,-383.780,8.500,0.760,1.780
754,38375.92000,6.363,-27.320,-243.151,40.464,-311.476,-383.831,8.500,1.760,-1.220
755,38375.117000,6.363,-26.308,-242.162,33.588,-310.447,-382.726,5.500,-0.240,-2.220
756,38375.137000,4.405,-27.320,-243.151,39.590,-313.397,-388.735,2.500,-4.240,-5.220
757,38375.154000,4.405,-26.308,-242.162,40.463,-307.604,-385.804,-1.500,-0.240,-1.220
758,38375.179000,5.384,-26.308,-241.174,41.407,-309.551,-382.865,-5.500,-7.240,-0.220
759,38375.202000,6.363,-26.308,-243.151,34.627,-309.485,-386.683,-8.500,-19.240,-4.220
760,38375.219000,1.468,-25.296,-244.139,41.408,-311.487,-381.878,-9.500,-10.240,-2.220
761,38375.237000,2.447,-26.308,-245.127,33.632,-311.413,-384.694,-7.500,2.760,-0.220
762,38375.258000,4.405,-26.308,-244.139,35.511,-310.467,-380.791,-4.500,-2.240,-5.220
763,38375.274000,3.426,-27.320,-244.139,39.469,-313.404,-381.842,-3.500,-7.240,-9.220
764,38375.296000,4.405,-27.320,-244.139,40.516,-313.409,-385.798,-4.500,-6.240,-13.220
765,38375.316000,4.405,-27.320,-245.127,39.528,-310.497,-386.769,-4.500,-7.240,-11.220
766,38375.343000,5.384,-27.320,-243.151,36.550,-311.440,-383.761,-4.500,-5.240,-11.220
767,38375.358000,6.363,-26.308,-244.139,36.593,-312.406,-385.730,-5.500,-10.240,-10.220
768,38375.383000,6.363,-27.320,-244.139,40.490,-312.442,-384.814,-8.500,-14.240,-10.220
769,38375.418000,4.405,-26.308,-244.139,43.416,-309.566,-385.854,-12.500,-4.240,-9.220
770,38375.422000,8.321,-25.296,-242.162,42.438,-311.493,-384.850,-8.500,-11.240,-7.220
771,38375.446000,5.384,-26.308,-244.139,35.606,-311.429,-385.714,-5.500,-14.240,-4.220
772,38375.466000,5.384,-28.332,-242.162,34.619,-312.389,-384.711,-5.500,-6.240,1.780
773,38375.483000,7.342,-26.308,-242.162,34.592,-309.487,-384.714,-10.500,7.760,2.780
774,38375.506000,8.321,-27.320,-242.162,39.494,-312.434,-383.812,-13.500,-13.240,4.780
775,38375.538000,4.405,-27.320,-243.151,41.485,-310.514,-386.803,-16.500,-14.240,9.780
776,38375.552000,6.363,-26.308,-243.151,38.523,-307.585,-386.754,-12.500,-0.240,13.780
777,38375.571000,6.363,-26.308,-243.151,38.585,-312.422,-387.734,-12.500,-7.240,13.780
778,38375.593000,6.363,-26.308,-242.162,33.614,-311.414,-383.710,-14.500,-14.240,12.780
779,38375.616000,3.426,-26.308,-245.127,33.596,-307.543,-384.698,-18.500,-5.240,16.780
780,38375.631000,3.426,-25.296,-243.151,38.532,-308.553,-386.753,-17.500,-3.240,16.780
781,38375.653000,3.426,-24.285,-244.139,33.580,-311.415,-381.740,-15.500,-5.240,15.780
782,38375.657000,1.468,-24.285,-246.116,34.611,-313.357,-383.725,-14.500,-2.240,9.780
783,38375.684000,1.468,-25.296,-246.116,38.497,-308.555,-384.784,-12.500,4.760,8.780
784,38375.708000,4.405,-25.296,-246.116,30.670,-308.484,-384.645,-6.500,6.760,4.780
785,38375.731000,2.447,-24.285,-247.104,33.571,-312.384,-380.754,-3.500,6.760,2.780
786,38375.749000,2.447,-25.296,-246.116,37.598,-313.381,-386.731,-4.500,3.760,4.780
787,38375.769000,5.384,-23.273,-245.127,35.527,-308.530,-382.762,-1.500,-0.240,-0.220
788,38375.787000,2.447,-25.296,-244.139,39.468,-309.532,-383.815,-0.500,3.760,-3.220
789,38375.812000,2.447,-25.296,-245.127,32.610,-310.438,-382.708,4.500,8.760,-1.220
790,38375.849000,3.426,-24.285,-244.139,31.674,-309.459,-385.646,4.500,5.760,-1.220
791,38375.868000,4.405,-25.296,-244.139,37.528,-309.513,-384.766,5.500,2.760,-1.220
792,38375.877000,5.384,-25.296,-246.116,41.494,-309.546,-387.789,6.500,5.760,-2.220
793,38375.893000,5.384,-26.308,-243.151,38.489,-309.523,-383.798,4.500,1.760,-0.220
794,38375.914000,6.363,-27.320,-244.139,39.476,-310.500,-383.814,1.500,-6.240,0.780
795,38375.937000,7.342,-27.320,-245.127,35.623,-311.428,-386.698,2.500,-13.240,0.780
796,38375.953000,4.405,-28.332,-244.139,31.666,-310.427,-384.661,3.500,-3.240,3.780
797,38375.974000,5.384,-27.320,-244.139,33.631,-309.477,-385.681,3.500,0.760,5.780
798,38375.988000,3.426,-28.332,-243.151,38.506,-309.522,-384.783,2.500,-5.240,4.780
799,38376.16000,2.447,-27.320,-244.139,36.654,-311.434,-389.670,2.500,-13.240,1.780
800,38376.38000,4.405,-27.320,-245.127,32.662,-310.435,-385.663,1.500,-8.240,-2.220
801,38376.58000,4.405,-28.332,-244.139,34.636,-312.388,-385.695,0.500,-11.240,-5.220
802,38376.78000,5.384,-26.308,-243.151,36.532,-309.505,-383.763,1.500,-11.240,-6.220
803,38376.101000,4.405,-27.320,-242.162,36.541,-310.473,-383.762,-1.500,-9.240,-3.220
804,38376.133000,5.384,-25.296,-242.162,35.562,-308.528,-384.732,-3.500,-11.240,-2.220
805,38376.152000,2.447,-29.344,-241.174,43.452,-313.435,-385.850,-3.500,-15.240,3.780
806,38376.166000,3.426,-27.320,-242.162,37.563,-313.383,-384.762,-6.500,-0.240,-0.220
807,38376.183000,4.405,-26.308,-244.139,32.644,-310.436,-384.678,-7.500,-3.240,-4.220
808,38376.199000,3.426,-28.332,-243.151,39.485,-311.467,-383.813,-11.500,-13.240,-7.220
809,38376.226000,3.426,-26.308,-244.139,38.489,-309.523,-383.798,-13.500,-17.240,-7.220
810,38376.247000,5.384,-26.308,-244.139,39.520,-311.465,-385.783,-13.500,-6.240,-4.220
811,38376.264000,4.405,-26.308,-245.127,34.567,-310.456,-382.743,-12.500,-10.240,-2.220
812,38376.284000,5.384,-25.296,-244.139,33.649,-311.412,-385.679,-11.500,-3.240,4.780
813,38376.298000,6.363,-26.308,-245.127,33.614,-311.414,-383.710,-11.500,-5.240,6.780
814,38376.326000,3.426,-25.296,-245.127,36.550,-311.440,-383.761,-7.500,-6.240,6.780
815,38376.348000,3.426,-25.296,-245.127,32.628,-312.373,-382.707,-5.500,-6.240,10.780
816,38376.368000,2.447,-25.296,-245.127,36.620,-313.372,-386.714,-3.500,-3.240,11.780
817,38376.391000,2.447,-25.296,-246.116,37.493,-309.515,-382.796,-5.500,-2.240,14.780
818,38376.413000,4.405,-24.285,-247.104,30.731,-311.384,-386.612,-2.500,-1.240,12.780
819,38376.428000,2.447,-25.296,-245.127,38.507,-313.394,-382.809,-1.500,-1.240,7.780
820,38376.454000,4.405,-25.296,-246.116,30.644,-309.453,-382.675,-1.500,1.760,3.780
821,38376.471000,4.405,-25.296,-247.104,33.597,-309.479,-383.712,-1.500,2.760,5.780
822,38376.507000,4.405,-25.296,-245.127,33.519,-308.515,-379.773,1.500,3.760,6.780
823,38376.536000,3.426,-25.296,-244.139,34.644,-309.484,-387.668,3.500,3.760,7.780
824,38376.554000,4.405,-23.273,-246.116,34.594,-315.294,-381.753,4.500,-3.240,3.780
825,38376.557000,2.447,-25.296,-246.116,30.730,-309.448,-387.599,6.500,-13.240,2.780
826,38376.574000,3.426,-25.296,-244.139,37.537,-312.417,-383.778,7.500,4.760,2.780
827,38376.594000,6.363,-25.296,-244.139,32.671,-311.403,-385.662,4.500,0.760,1.780
828,38376.617000,3.426,-25.296,-246.116,37.510,-307.579,-384.767,6.500,-17.240,-0.220
829,38376.642000,2.447,-26.308,-244.139,37.537,-310.481,-384.765,6.500,-2.240,2.780
830,38376.659000,5.384,-26.308,-245.127,33.588,-308.511,-383.712,7.500,0.760,5.780
831,38376.696000,5.384,-25.296,-243.151,31.728,-315.263,-385.641,6.500,-9.240,5.780
832,38376.698000,2.447,-25.296,-243.151,32.575,-308.504,-381.726,7.500,-15.240,8.780
833,38376.718000,3.426,-25.296,-242.162,31.666,-310.427,-384.661,7.500,-12.240,9.780
834,38376.737000,3.426,-25.296,-242.162,34.592,-309.487,-384.714,6.500,-1.240,9.780
835,38376.757000,4.405,-27.320,-242.162,37.580,-309.510,-387.720,1.500,0.760,7.780
836,38376.782000,6.363,-27.320,-242.162,39.555,-313.399,-386.766,-1.500,-6.240,3.780
837,38376.797000,4.405,-26.308,-241.174,31.657,-311.396,-383.675,-4.500,-11.240,5.780
838,38376.819000,4.405,-25.296,-242.162,39.538,-313.400,-385.781,-8.500,-10.240,8.780
839,38376.844000,4.405,-27.320,-242.162,37.511,-311.450,-382.794,-14.500,-9.240,7.780
840,38376.872000,5.384,-25.296,-244.139,36.593,-312.406,-385.730,-7.500,-25.240,3.780
841,38376.886000,-0.489,-26.308,-243.151,30.688,-312.354,-383.657,-4.500,-24.240,7.780
842,38376.914000,1.468,-27.320,-244.139,32.644,-310.436,-384.678,-5.500,5.760,6.780
843,38376.918000,3.426,-26.308,-242.162,31.649,-310.428,-383.676,-8.500,0.760,1.780
844,38376.941000,3.426,-26.308,-244.139,32.663,-314.307,-383.689,-11.500,-8.240,-3.220
845,38376.953000,1.468,-26.308,-243.151,31.665,-308.492,-385.647,-13.500,0.760,-3.220
846,38376.972000,4.405,-25.296,-245.127,33.667,-313.346,-385.677,-9.500,-0.240,-4.220
847,38377.4000,2.447,-25.296,-245.127,33.624,-314.317,-382.722,-9.500,-10.240,-3.220
848,38377.24000,2.447,-23.273,-246.116,30.705,-310.417,-385.628,-5.500,-4.240,-2.220
849,38377.42000,2.447,-24.285,-244.139,28.721,-309.433,-384.610,-3.500,1.760,-3.220
850,38377.64000,4.405,-25.296,-244.139,36.584,-311.438,-385.731,-1.500,0.760,-2.220
851,38377.87000,4.405,-26.308,-245.127,30.652,-308.485,-383.661,-0.500,-6.240,-2.220
852,38377.108000,3.426,-26.308,-247.104,32.584,-309.472,-381.725,-0.500,-3.240,-3.220
853,38377.132000,4.405,-25.296,-244.139,34.592,-309.487,-384.714,2.500,2.760,-7.220
854,38377.163000,3.426,-25.296,-245.127,35.563,-310.464,-383.745,5.500,6.760,-8.220
855,38377.181000,6.363,-25.296,-244.139,33.579,-309.480,-382.727,5.500,0.760,-5.220
856,38377.196000,6.363,-24.285,-245.127,32.671,-313.338,-384.675,4.500,-3.240,2.780
857,38377.212000,6.363,-24.285,-244.139,37.545,-309.512,-385.750,4.500,-1.240,4.780
858,38377.238000,5.384,-26.308,-242.162,36.532,-307.570,-384.750,4.500,4.760,6.780
859,38377.267000,7.342,-26.308,-244.139,28.756,-307.496,-387.566,5.500,4.760,8.780
860,38377.286000,4.405,-26.308,-242.162,28.722,-311.369,-383.623,3.500,-0.240,10.780
861,38377.292000,4.405,-27.320,-243.151,29.709,-312.345,-383.639,3.500,4.760,10.780
862,38377.306000,3.426,-27.320,-242.162,34.566,-308.520,-383.730,1.500,17.760,12.780
863,38377.328000,5.384,-27.320,-242.162,31.648,-308.493,-384.663,-3.500,11.760,10.780
864,38377.351000,8.321,-26.308,-244.139,35.570,-307.560,-385.718,-3.500,-18.240,4.780
865,38377.373000,2.447,-27.320,-244.139,34.636,-312.388,-385.695,-4.500,-19.240,3.780
866,38377.395000,3.426,-27.320,-245.127,37.563,-313.383,-384.762,-4.500,0.760,8.780
867,38377.417000,4.405,-27.320,-244.139,29.683,-309.443,-383.642,-2.500,1.760,4.780
868,38377.438000,5.384,-25.296,-245.127,36.645,-310.467,-389.671,3.500,-5.240,5.780
869,38377.454000,4.405,-25.296,-244.139,36.567,-311.439,-384.746,3.500,-2.240,7.780
870,38377.479000,4.405,-25.296,-244.139,35.614,-310.461,-386.699,3.500,2.760,13.780
871,38377.497000,5.384,-26.308,-243.151,30.687,-310.418,-384.643,4.500,-7.240,14.780
872,38377.519000,3.426,-26.308,-244.139,32.687,-309.466,-387.633,2.500,-10.240,8.780
873,38377.547000,3.426,-25.296,-244.139,31.649,-312.364,-382.689,3.500,-2.240,3.780
874,38377.556000,4.405,-24.285,-245.127,28.739,-309.432,-385.595,0.500,-4.240,0.780
875,38377.573000,1.468,-26.308,-244.139,33.623,-312.381,-383.709,6.500,-15.240,2.780
876,38377.595000,2.447,-25.296,-245.127,35.545,-310.465,-382.760,5.500,-7.240,3.780
877,38377.612000,2.447,-26.308,-243.151,34.601,-308.518,-385.699,5.500,-0.240,0.780
878,38377.631000,0.489,-25.296,-244.139,32.661,-308.499,-386.649,7.500,-7.240,-0.220
879,38377.658000,5.384,-25.296,-241.174,27.778,-309.422,-386.562,2.500,5.760,-5.220
880,38377.672000,5.384,-25.296,-243.151,35.579,-308.527,-385.717,-2.500,-9.240,-11.220
881,38377.699000,1.468,-26.308,-242.162,30.687,-308.483,-385.630,-7.500,-18.240,-12.220
882,38377.722000,2.447,-24.285,-244.139,28.713,-310.402,-383.624,-8.500,0.760,-10.220
883,38377.739000,4.405,-25.296,-245.127,33.657,-310.443,-386.665,-6.500,-6.240,-15.220
884,38377.760000,3.426,-25.296,-245.127,32.645,-312.372,-383.691,-6.500,-10.240,-13.220
885,38377.779000,2.447,-25.296,-245.127,34.601,-308.518,-385.699,-6.500,-12.240,-12.220
886,38377.818000,3.426,-25.296,-244.139,33.658,-312.379,-385.678,-9.500,-0.240,-10.220
887,38377.822000,3.426,-26.308,-245.127,38.533,-312.424,-384.780,-6.500,-3.240,-13.220
888,38377.844000,4.405,-26.308,-245.127,33.588,-308.511,-383.712,-5.500,-10.240,-18.220
889,38377.867000,3.426,-25.296,-244.139,32.688,-311.402,-386.647,-5.500,-15.240,-23.220
890,38377.884000,5.384,-25.296,-245.127,29.770,-311.374,-387.579,-4.500,-4.240,-21.220
891,38377.912000,3.426,-26.308,-245.127,31.727,-311.392,-387.614,-1.500,2.760,-22.220
892,38377.927000,6.363,-26.308,-246.116,32.705,-311.401,-387.631,2.500,-0.240,-22.220
893,38377.949000,7.342,-27.320,-244.139,36.602,-311.437,-386.716,3.500,-5.240,-20.220
894,38377.977000,5.384,-25.296,-246.116,36.559,-312.408,-383.760,2.500,-8.240,-16.220
895,38377.996000,2.447,-26.308,-246.116,39.468,-309.532,-383.815,7.500,5.760,-12.220
896,38378.18000,4.405,-28.332,-246.116,32.661,-308.499,-386.649,14.500,48.760,-9.220
897,38378.51000,8.321,-27.320,-244.139,42.429,-308.589,-385.838,18.500,68.760,-4.220
898,38378.70000,10.279,-27.320,-243.151,37.475,-305.645,-383.785,14.500,38.760,-2.220
899,38378.78000,9.300,-27.320,-244.139,41.442,-309.549,-384.835,8.500,0.760,-1.220
900,38378.101000,7.342,-26.308,-243.151,43.451,-309.564,-387.824,4.500,-13.240,1.780
901,38378.116000,6.363,-28.332,-244.139,32.670,-309.467,-386.648,3.500,-7.240,7.780
902,38378.146000,7.342,-27.320,-243.151,35.579,-308.527,-385.717,4.500,-6.240,11.780
903,38378.163000,8.321,-28.332,-242.162,34.557,-307.553,-383.731,5.500,-21.240,15.780
904,38378.177000,5.384,-25.296,-245.127,38.514,-306.618,-386.755,4.500,-26.240,17.780
905,38378.199000,5.384,-26.308,-242.162,38.507,-311.458,-383.796,3.500,-10.240,17.780
906,38378.217000,5.384,-26.308,-242.162,41.442,-309.549,-384.835,2.500,-2.240,17.780
907,38378.239000,4.405,-26.308,-242.162,34.600,-306.582,-386.686,-0.500,-8.240,19.780
908,38378.262000,5.384,-26.308,-244.139,33.605,-308.510,-384.697,-2.500,-18.240,18.780
909,38378.286000,2.447,-27.320,-244.139,34.636,-310.452,-386.682,-4.500,-17.240,15.780
910,38378.306000,2.447,-25.296,-243.151,37.545,-309.512,-385.750,-6.500,-15.240,10.780
911,38378.326000,6.363,-26.308,-244.139,33.649,-311.412,-385.679,-6.500,-21.240,10.780
912,38378.342000,1.468,-26.308,-244.139,30.688,-312.354,-383.657,-5.500,-33.240,10.780
913,38378.362000,0.489,-28.332,-245.127,41.469,-312.451,-384.832,-4.500,-21.240,12.780
914,38378.398000,3.426,-26.308,-246.116,33.588,-310.447,-382.726,-5.500,-15.240,9.780
915,38378.417000,0.489,-26.308,-244.139,35.614,-310.461,-386.699,0.500,-24.240,1.780
916,38378.429000,1.468,-26.308,-243.151,34.593,-311.422,-383.727,-0.500,-5.240,-8.220
917,38378.443000,4.405,-24.285,-243.151,40.498,-311.474,-385.800,-3.500,-16.240,-9.220
918,38378.463000,3.426,-25.296,-244.139,34.593,-311.422,-383.727,-7.500,-36.240,-12.220
919,38378.488000,0.489,-27.320,-243.151,39.511,-310.498,-385.784,-9.500,-28.240,-11.220
920,38378.503000,3.426,-25.296,-243.151,31.640,-309.461,-383.677,-10.500,-7.240,-11.220
921,38378.526000,6.363,-26.308,-242.162,36.576,-312.407,-384.745,-4.500,-21.240,-11.220
922,38378.543000,3.426,-25.296,-245.127,34.567,-312.392,-381.756,-4.500,-24.240,-11.220
923,38378.563000,3.426,-26.308,-243.151,35.615,-314.333,-384.726,-7.500,-7.240,-6.220
924,38378.585000,2.447,-26.308,-244.139,33.641,-312.380,-384.693,-4.500,-9.240,-4.220
925,38378.605000,4.405,-26.308,-244.139,35.589,-311.430,-384.729,-1.500,-16.240,-1.220
926,38378.617000,3.426,-25.296,-245.127,32.644,-310.436,-384.678,1.500,-11.240,-4.220
927,38378.654000,1.468,-26.308,-244.139,31.649,-312.364,-382.689,3.500,7.760,-4.220
928,38378.657000,1.468,-25.296,-244.139,37.545,-309.512,-385.750,5.500,9.760,-5.220
929,38378.688000,4.405,-25.296,-241.174,36.584,-311.438,-385.731,3.500,8.760,-9.220
930,38378.716000,6.363,-25.296,-244.139,32.610,-310.438,-382.708,1.500,-1.240,-9.220
931,38378.736000,4.405,-26.308,-243.151,32.619,-311.406,-382.707,-1.500,2.760,-7.220
932,38378.754000,2.447,-25.296,-242.162,34.602,-312.390,-383.726,-2.500,2.760,-6.220
933,38378.787000,3.426,-26.308,-244.139,37.511,-311.450,-382.794,-0.500,1.760,-2.220
934,38378.799000,3.426,-26.308,-244.139,34.636,-312.388,-385.695,-1.500,8.760,-2.220
935,38378.822000,4.405,-27.320,-244.139,39.494,-312.434,-383.812,-3.500,8.760,-4.220
936,38378.838000,2.447,-27.320,-243.151,39.512,-314.369,-383.810,-5.500,11.760,-3.220
937,38378.866000,6.363,-27.320,-243.151,32.662,-310.435,-385.663,-6.500,8.760,-3.220
938,38378.878000,3.426,-26.308,-244.139,38.507,-311.458,-383.796,-8.500,0.760,-5.220
939,38378.898000,5.384,-26.308,-244.139,39.476,-310.500,-383.814,-9.500,-1.240,-3.220
940,38378.915000,4.405,-26.308,-244.139,37.520,-312.418,-382.793,-10.500,1.760,0.780
941,38378.941000,4.405,-27.320,-244.139,33.675,-312.378,-386.663,-7.500,2.760,2.780
942,38378.959000,4.405,-26.308,-246.116,33.597,-309.479,-383.712,-6.500,7.760,4.780
943,38378.977000,7.342,-26.308,-246.116,36.628,-314.339,-386.713,-5.500,3.760,3.780
944,38379.4000,5.384,-26.308,-245.127,32.627,-310.437,-383.693,-5.500,-2.240,1.780
945,38379.32000,4.405,-25.296,-245.127,29.727,-312.344,-384.624,-8.500,1.760,5.780
946,38379.51000,6.363,-24.285,-244.139,38.524,-311.457,-384.781,-8.500,0.760,4.780
947,38379.64000,5.384,-25.296,-244.139,39.520,-311.465,-385.783,-9.500,-5.240,3.780
948,38379.82000,3.426,-24.285,-244.139,43.347,-309.570,-381.915,-9.500,-3.240,7.780
949,38379.104000,6.363,-26.308,-243.151,30.696,-311.386,-384.642,-11.500,3.760,10.780
950,38379.127000,4.405,-24.285,-244.139,30.731,-311.384,-386.612,-10.500,-7.240,8.780
951,38379.144000,0.489,-28.332,-245.127,32.662,-312.371,-384.676,-8.500,-15.240,9.780
952,38379.177000,3.426,-26.308,-243.151,33.649,-309.476,-386.666,-9.500,7.760,4.780
953,38379.187000,6.363,-24.285,-244.139,33.623,-310.445,-384.695,-12.500,2.760,-1.220
954,38379.204000,2.447,-26.308,-242.162,33.667,-313.346,-385.677,-16.500,-10.240,-1.220
955,38379.224000,3.426,-24.285,-242.162,35.589,-313.366,-383.742,-21.500,-8.240,-3.220
956,38379.258000,5.384,-26.308,-245.127,30.696,-309.450,-385.629,-22.500,-2.240,-1.220
957,38379.261000,2.447,-24.285,-246.116,26.765,-311.351,-383.588,-22.500,-23.240,-4.220
958,38379.273000,1.468,-22.261,-244.139,34.584,-308.519,-384.715,-19.500,-13.240,-7.220
959,38379.308000,6.363,-23.273,-246.116,36.558,-308.536,-385.734,-15.500,1.760,-7.220
960,38379.327000,5.384,-23.273,-245.127,29.761,-312.342,-386.594,-13.500,-13.240,-5.220
961,38379.343000,2.447,-24.285,-247.104,36.584,-307.567,-387.704,-9.500,-11.240,-0.220
962,38379.369000,1.468,-23.273,-245.127,29.751,-307.503,-388.568,-8.500,10.760,0.780
963,38379.387000,5.384,-22.261,-245.127,27.742,-307.489,-385.579,-8.500,12.760,2.780
964,38379.407000,3.426,-24.285,-246.116,29.700,-309.442,-384.627,-3.500,-7.240,-3.220
965,38379.427000,3.426,-24.285,-247.104,30.731,-311.384,-386.612,0.500,-2.240,-6.220
966,38379.455000,5.384,-23.273,-245.127,37.537,-310.481,-384.765,2.500,10.760,-5.220
967,38379.472000,6.363,-24.285,-245.127,29.752,-309.439,-387.581,-2.500,4.760,-3.220
968,38379.497000,4.405,-24.285,-245.127,33.658,-312.379,-385.678,-0.500,-8.240,-2.220
969,38379.534000,2.447,-23.273,-245.127,36.558,-308.536,-385.734,1.500,-6.240,-2.220
970,38379.548000,3.426,-23.273,-245.127,34.645,-313.355,-385.694,3.500,6.760,-2.220
971,38379.562000,5.384,-23.273,-242.162,37.571,-308.543,-387.721,2.500,11.760,-5.220
972,38379.577000,3.426,-23.273,-245.127,30.687,-308.483,-385.630,2.500,12.760,-8.220
973,38379.586000,5.384,-23.273,-244.139,30.704,-308.482,-386.615,0.500,7.760,-11.220
974,38379.618000,5.384,-24.285,-244.139,30.696,-309.450,-385.629,-2.500,1.760,-14.220
975,38379.641000,2.447,-23.273,-244.139,35.588,-309.495,-385.716,-1.500,-7.240,-14.220
976,38379.658000,4.405,-25.296,-245.127,36.558,-308.536,-385.734,-2.500,-2.240,-12.220
977,38379.676000,7.342,-24.285,-245.127,37.536,-308.545,-385.751,0.500,-10.240,-14.220
978,38379.703000,4.405,-24.285,-247.104,31.665,-308.492,-385.647,2.500,-16.240,-15.220
979,38379.718000,5.384,-24.285,-244.139,31.692,-309.458,-386.631,3.500,-8.240,-16.220
980,38379.736000,5.384,-24.285,-244.139,27.812,-309.420,-388.532,4.500,-3.240,-13.220
981,38379.758000,6.363,-23.273,-246.116,35.554,-309.497,-383.746,4.500,-4.240,-8.220
982,38379.789000,5.384,-24.285,-244.139,34.601,-310.454,-384.713,6.500,-6.240,-3.220
983,38379.809000,6.363,-23.273,-244.139,30.722,-310.417,-386.613,6.500,-8.240,0.780
984,38379.831000,5.384,-25.296,-243.151,33.710,-312.376,-388.632,5.500,-6.240,3.780
985,38379.843000,4.405,-23.273,-243.151,34.600,-306.582,-386.686,3.500,-2.240,4.780
986,38379.868000,4.405,-25.296,-242.162,38.550,-310.488,-386.751,-0.500,-2.240,2.780
987,38379.896000,5.384,-24.285,-245.127,33.631,-307.541,-386.668,2.500,-16.240,-1.220
988,38379.909000,1.468,-26.308,-244.139,38.515,-310.490,-384.782,2.500,-3.240,1.780
989,38379.938000,3.426,-24.285,-242.162,35.589,-313.366,-383.742,0.500,9.760,-0.220
990,38379.947000,6.363,-23.273,-242.162,30.739,-310.416,-387.598,-2.500,0.760,-2.220
991,38379.969000,5.384,-26.308,-243.151,31.649,-310.428,-383.676,-7.500,-4.240,-3.220
992,38379.997000,4.405,-26.308,-245.127,34.671,-310.450,-388.652,-9.500,-0.240,-6.220
993,38380.12000,5.384,-23.273,-245.127,29.639,-308.478,-381.674,-6.500,-6.240,-6.220
994,38380.32000,4.405,-23.273,-246.116,32.662,-310.435,-385.663,-5.500,-12.240,-6.220
995,38380.48000,5.384,-23.273,-246.116,33.596,-305.607,-385.685,-6.500,-10.240,-1.220
996,38380.69000,6.363,-24.285,-245.127,34.567,-310.456,-382.743,-6.500,-11.240,2.780
997,38380.92000,6.363,-23.273,-245.127,30.704,-306.546,-387.602,-1.500,-13.240,3.780
998,38380.121000,5.384,-23.273,-246.116,28.747,-308.464,-386.580,0.500,-10.240,3.780
999,38380.134000,4.405,-24.285,-246.116,35.623,-309.493,-387.685,2.500,-1.240,5.780
1000,38380.154000,6.363,-24.285,-245.127,33.562,-307.545,-382.729,3.500,-5.240,7.780
