Sample, Time, ACCX, ACCY, ACCZ, MAGX, MAGY, MAGZ, GYRX, GYRY, GYRZ
0,38510.40000,-17.132,-25.296,-245.127,47.165,-342.519,-359.302,-0.500,2.760,7.780
1,38510.66000,-17.132,-25.296,-243.151,41.207,-338.599,-356.247,2.500,-3.240,1.780
2,38510.99000,-17.132,-25.296,-244.139,50.075,-341.580,-358.370,4.500,-5.240,1.780
3,38510.112000,-19.090,-26.308,-244.139,50.118,-342.545,-360.338,5.500,1.760,2.780
4,38510.131000,-17.132,-24.285,-242.162,52.015,-345.470,-355.446,5.500,12.760,3.780
5,38510.147000,-17.132,-25.296,-242.162,45.113,-341.539,-354.344,5.500,5.760,-0.220
6,38510.169000,-17.132,-25.296,-244.139,42.256,-342.476,-358.230,4.500,6.760,-3.220
7,38510.196000,-16.153,-25.296,-243.151,47.121,-337.682,-359.306,2.500,7.760,-0.220
8,38510.215000,-16.153,-25.296,-242.162,45.139,-342.505,-355.328,-0.500,3.760,-2.220
9,38510.232000,-17.132,-26.308,-242.162,46.126,-341.546,-356.331,-1.500,-0.240,-1.220
10,38510.252000,-17.132,-25.296,-242.162,50.992,-338.688,-356.420,0.500,3.760,-1.220
11,38510.270000,-17.132,-24.285,-243.151,47.113,-340.587,-357.334,-4.500,3.760,-6.220
12,38510.292000,-16.153,-24.285,-242.162,52.967,-342.577,-355.466,-7.500,-1.240,-10.220
13,38510.315000,-18.111,-25.296,-243.151,54.993,-342.591,-359.440,-10.500,-10.240,-12.220
14,38510.332000,-17.132,-24.285,-242.162,50.975,-340.625,-354.449,-12.500,-5.240,-11.220
15,38510.355000,-13.216,-25.296,-243.151,50.083,-338.676,-360.342,-14.500,1.760,-9.220
16,38510.386000,-16.153,-25.296,-243.151,53.045,-343.540,-359.404,-12.500,-8.240,-7.220
17,38510.414000,-16.153,-25.296,-244.139,43.208,-341.518,-357.264,-16.500,-1.240,-6.220
18,38510.432000,-15.174,-26.308,-245.127,50.975,-338.689,-355.436,-13.500,-3.240,-4.220
19,38510.441000,-15.174,-26.308,-243.151,53.028,-343.541,-358.420,-12.500,-5.240,-4.220
20,38510.464000,-15.174,-25.296,-244.139,44.212,-338.622,-360.238,-11.500,-7.240,-3.220
21,38510.477000,-14.195,-25.296,-243.151,46.143,-341.545,-357.316,-10.500,-6.240,-2.220
22,38510.507000,-14.195,-26.308,-243.151,49.131,-341.569,-360.322,-15.500,-9.240,1.780
23,38510.514000,-13.216,-25.296,-244.139,53.989,-343.551,-357.452,-14.500,-14.240,3.780
24,38510.543000,-17.132,-25.296,-244.139,43.164,-338.617,-356.282,-10.500,-10.240,9.780
25,38510.561000,-15.174,-26.308,-243.151,49.078,-339.636,-358.354,-7.500,13.760,9.780
26,38510.582000,-13.216,-23.273,-243.151,50.066,-340.612,-358.371,-11.500,-1.240,5.780
27,38510.602000,-15.174,-24.285,-243.151,47.130,-338.650,-359.305,-16.500,-25.240,8.780
28,38510.620000,-19.090,-24.285,-242.162,49.158,-344.471,-360.319,-18.500,-5.240,12.780
29,38510.634000,-17.132,-24.285,-243.151,43.225,-341.517,-358.249,-11.500,4.760,14.780
30,38510.656000,-15.174,-24.285,-243.151,46.161,-341.544,-358.300,-10.500,-12.240,15.780
31,38510.682000,-17.132,-23.273,-244.139,46.126,-339.610,-357.318,-12.500,-11.240,14.780
32,38510.707000,-18.111,-23.273,-243.151,49.148,-341.568,-361.307,-13.500,-0.240,13.780
33,38510.725000,-16.153,-24.285,-243.151,42.247,-341.508,-358.231,-15.500,4.760,12.780
34,38510.747000,-17.132,-23.273,-240.185,43.225,-339.582,-359.235,-18.500,4.760,11.780
35,38510.764000,-18.111,-25.296,-241.174,41.320,-339.561,-362.155,-22.500,7.760,14.780
36,38510.784000,-17.132,-23.273,-242.162,38.340,-336.633,-361.121,-22.500,7.760,11.780
37,38510.805000,-19.090,-23.273,-238.208,48.108,-338.659,-359.323,-25.500,14.760,1.780
38,38510.832000,-19.090,-25.296,-239.197,45.181,-337.664,-360.257,-33.500,39.760,1.780
39,38510.850000,-15.174,-24.285,-238.208,41.329,-340.528,-362.154,-42.500,11.760,-1.220
40,38510.875000,-17.132,-22.261,-237.220,48.108,-338.659,-359.323,-51.500,-1.240,-9.220
41,38510.895000,-20.069,-24.285,-239.197,41.258,-336.661,-360.188,-53.500,12.760,-9.220
42,38510.917000,-19.090,-25.296,-236.232,40.271,-333.749,-361.159,-60.500,52.760,-5.220
43,38510.932000,-17.132,-24.285,-234.255,40.359,-341.487,-362.136,-70.500,51.760,-11.220
44,38510.952000,-15.174,-22.261,-238.208,44.280,-336.682,-365.164,-86.500,45.760,-21.220
45,38510.972000,-9.300,-18.213,-242.162,41.285,-339.563,-360.185,-99.500,-1.240,-31.220
46,38510.986000,-13.216,-18.213,-244.139,36.401,-336.614,-362.071,-99.500,-40.240,-32.220
47,38511.16000,-20.069,-18.213,-248.093,34.409,-336.598,-360.067,-94.500,12.760,-20.220
48,38511.37000,-15.174,-17.202,-249.081,38.358,-336.632,-362.106,-77.500,21.760,-12.220
49,38511.54000,-13.216,-18.213,-251.058,42.324,-340.536,-363.156,-66.500,11.760,-11.220
50,38511.76000,-18.111,-18.213,-249.081,33.430,-334.654,-361.037,-63.500,17.760,-11.220
51,38511.99000,-16.153,-19.225,-246.116,35.413,-335.638,-362.055,-57.500,36.760,-13.220
52,38511.127000,-15.174,-18.213,-246.116,38.392,-336.630,-364.076,-58.500,38.760,-26.220
53,38511.160000,-12.237,-16.190,-245.127,32.478,-335.611,-362.003,-58.500,18.760,-37.220
54,38511.169000,-14.195,-16.190,-245.127,37.413,-334.685,-365.045,-63.500,22.760,-39.220
55,38511.189000,-11.258,-15.178,-244.139,34.478,-336.594,-364.006,-62.500,20.760,-31.220
56,38511.200000,-12.237,-15.178,-247.104,32.572,-332.702,-368.899,-54.500,16.760,-22.220
57,38511.222000,-13.216,-16.190,-241.174,36.444,-335.644,-365.027,-49.500,51.760,-17.220
58,38511.245000,-10.279,-15.178,-243.151,37.386,-331.783,-365.048,-49.500,54.760,-20.220
59,38511.265000,-10.279,-16.190,-241.174,31.550,-331.728,-366.914,-53.500,30.760,-19.220
60,38511.282000,-8.321,-13.154,-242.162,29.575,-327.839,-367.868,-67.500,31.760,-22.220
61,38511.311000,-14.195,-14.166,-242.162,30.554,-331.720,-365.911,-65.500,14.760,-26.220
62,38511.325000,-10.279,-12.142,-244.139,32.563,-331.735,-368.900,-68.500,35.760,-21.220
63,38511.342000,-5.384,-10.119,-244.139,31.602,-331.725,-369.868,-70.500,39.760,-15.220
64,38511.370000,-9.300,-11.130,-247.104,25.670,-328.771,-367.797,-68.500,3.760,-15.220
65,38511.390000,-12.237,-10.119,-246.116,25.713,-329.737,-369.766,-66.500,20.760,-6.220
66,38511.410000,-9.300,-10.119,-246.116,30.615,-330.749,-369.852,-62.500,26.760,0.780
67,38511.427000,-9.300,-7.083,-248.093,29.610,-329.773,-368.850,-59.500,22.760,3.780
68,38511.450000,-9.300,-9.107,-251.058,30.597,-328.814,-369.853,-49.500,13.760,3.780
69,38511.475000,-9.300,-8.095,-251.058,24.743,-326.824,-371.721,-44.500,19.760,-2.220
70,38511.494000,-9.300,-8.095,-252.046,27.670,-327.819,-370.787,-33.500,27.760,-1.220
71,38511.521000,-10.279,-9.107,-252.046,28.657,-328.795,-370.804,-25.500,21.760,-1.220
72,38511.533000,-8.321,-9.107,-252.046,29.609,-327.837,-369.837,-16.500,20.760,-0.220
73,38511.551000,-8.321,-9.107,-252.046,24.751,-325.855,-372.707,-7.500,18.760,-0.220
74,38511.567000,-9.300,-9.107,-251.058,30.597,-328.814,-369.853,0.500,13.760,-0.220
75,38511.594000,-8.321,-9.107,-250.069,30.579,-326.879,-369.855,6.500,6.760,-1.220
76,38511.609000,-8.321,-9.107,-248.093,24.681,-321.988,-370.741,10.500,4.760,-0.220
77,38511.636000,-8.321,-10.119,-246.116,24.744,-330.695,-369.748,11.500,4.760,1.780
78,38511.656000,-9.300,-9.107,-245.127,32.518,-324.962,-369.892,13.500,-3.240,0.780
79,38511.674000,-9.300,-10.119,-245.127,26.682,-324.907,-371.758,12.500,-10.240,-0.220
80,38511.699000,-10.279,-12.142,-243.151,25.704,-326.833,-370.754,14.500,-11.240,-0.220
81,38511.717000,-11.258,-10.119,-244.139,28.613,-325.894,-369.822,10.500,-2.240,-2.220
82,38511.741000,-9.300,-10.119,-242.162,27.695,-324.914,-373.745,7.500,-0.240,-2.220
83,38511.756000,-8.321,-11.130,-242.162,24.647,-323.925,-367.785,2.500,-9.240,-4.220
84,38511.779000,-10.279,-11.130,-241.174,26.735,-328.775,-372.739,-0.500,-14.240,-4.220
85,38511.796000,-11.258,-10.119,-241.174,34.493,-324.979,-370.911,-1.500,-12.240,-6.220
86,38511.819000,-9.300,-10.119,-243.151,32.579,-325.926,-372.845,-4.500,-6.240,-4.220
87,38511.844000,-8.321,-11.130,-243.151,24.708,-326.826,-369.752,-8.500,-16.240,-6.220
88,38511.864000,-9.300,-11.130,-245.127,26.752,-328.774,-373.723,-13.500,-17.240,-8.220
89,38511.881000,-11.258,-10.119,-242.162,23.764,-326.815,-371.704,-10.500,-10.240,-7.220
90,38511.909000,-10.279,-12.142,-244.139,22.812,-329.708,-371.684,-13.500,5.760,-8.220
91,38511.941000,-8.321,-10.119,-243.151,31.627,-328.820,-372.825,-18.500,-8.240,-13.220
92,38511.941000,-9.300,-10.119,-244.139,29.601,-326.870,-369.838,-22.500,-22.240,-15.220
93,38511.955000,4.405,-209.455,-253.035,26.653,-346.202,-358.934,121.500,-1780.240,225.780
94,38511.974000,-13.216,-21.249,-208.556,27.451,-352.997,-345.158,-45.500,-1687.240,35.780
95,38512.1000,-111.113,-62.735,-242.162,16.588,-368.391,-331.166,-129.500,-1403.240,21.780
96,38512.10000,-104.260,-20.237,-247.104,23.506,-366.513,-336.212,-262.500,-77.240,-28.220
97,38512.37000,-79.786,-16.190,-256.988,20.570,-362.615,-338.134,-221.500,645.760,-59.220
98,38512.57000,-75.870,-16.190,-281.699,21.656,-346.164,-352.939,-66.500,1228.760,-109.220
99,38512.80000,-8.321,-10.119,-272.803,13.886,-335.442,-361.674,-120.500,1359.760,-76.220
100,38512.97000,39.648,48.569,-252.046,15.894,-329.650,-367.623,-50.500,545.760,-109.220
101,38512.120000,18.111,8.095,-267.861,17.920,-329.664,-371.597,22.500,-73.240,-72.220
102,38512.151000,-18.111,-6.071,-273.792,18.890,-330.641,-370.629,30.500,-82.240,-59.220
103,38512.171000,-16.153,2.024,-266.873,21.808,-330.668,-369.696,57.500,81.760,-33.220
104,38512.187000,-0.489,-3.036,-256.000,23.774,-331.654,-369.729,78.500,115.760,-7.220
105,38512.212000,9.300,-2.024,-247.104,26.657,-327.812,-368.800,85.500,-13.240,-10.220
106,38512.230000,-0.489,-4.047,-245.127,28.614,-329.765,-367.848,90.500,-149.240,-4.220
107,38512.252000,-13.216,-5.059,-241.174,22.796,-331.645,-369.712,82.500,-96.240,4.780
108,38512.275000,-13.216,-6.071,-240.185,26.640,-329.749,-366.829,78.500,-11.240,18.780
109,38512.296000,-10.279,-7.083,-237.220,26.640,-329.749,-366.829,64.500,17.760,24.780
110,38512.309000,-9.300,-5.059,-238.208,22.805,-332.612,-369.711,54.500,28.760,31.780
111,38512.331000,-11.258,-8.095,-239.197,33.516,-332.713,-366.947,52.500,40.760,33.780
112,38512.351000,-11.258,-8.095,-239.197,25.774,-330.701,-372.719,44.500,77.760,33.780
113,38512.366000,-7.342,-8.095,-238.208,21.781,-325.830,-370.685,35.500,74.760,32.780
114,38512.391000,-5.384,-9.107,-239.197,22.786,-328.742,-370.700,29.500,36.760,35.780
115,38512.439000,-6.363,-9.107,-238.208,25.740,-330.703,-370.750,20.500,-7.240,40.780
116,38512.448000,-7.342,-9.107,-240.185,32.572,-330.766,-369.886,13.500,-53.240,44.780
117,38512.454000,-13.216,-9.107,-243.151,23.713,-328.753,-367.763,14.500,-53.240,43.780
118,38512.480000,-17.132,-10.119,-243.151,20.941,-327.750,-377.560,-659.500,491.760,-151.220
119,38512.496000,171.809,-37.439,-280.710,266.349,-350.320,-360.217,-229.500,-1594.240,215.780
120,38512.519000,-26.922,-32.379,-222.394,18.698,-356.785,-345.983,-2.500,-1371.240,-161.220
121,38512.540000,-162.019,-55.652,-263.907,17.769,-347.094,-353.854,-78.500,22.760,48.780
122,38512.562000,-131.671,-40.474,-266.873,19.801,-338.397,-362.760,-109.500,1496.760,-46.220
123,38512.577000,93.491,-17.202,-236.232,21.978,-317.108,-386.450,-47.500,1919.760,-69.220
124,38512.600000,99.365,29.344,-230.301,14.080,-313.169,-384.346,-204.500,677.760,56.780
125,38512.626000,-23.985,2.024,-271.815,16.012,-318.028,-380.437,-36.500,-842.240,-213.220
126,38512.654000,-48.459,-10.119,-276.757,17.927,-324.824,-374.556,-18.500,-613.240,-137.220
127,38512.669000,-37.690,-1.012,-270.826,21.850,-325.827,-374.624,-4.500,-52.240,-115.220
128,38512.686000,-0.489,-1.012,-256.000,22.837,-322.931,-376.614,13.500,257.760,-74.220
129,38512.709000,21.048,0.000,-245.127,18.948,-321.926,-378.516,25.500,239.760,-53.220
130,38512.721000,2.447,-1.012,-246.116,20.853,-320.011,-376.583,49.500,-68.240,-60.220
131,38512.749000,-16.153,-7.083,-250.069,22.828,-323.900,-375.629,59.500,-201.240,-55.220
132,38512.766000,-8.321,-6.071,-243.151,25.738,-324.896,-373.710,55.500,-13.240,-26.220
133,38512.792000,-0.489,-5.059,-235.243,27.747,-324.911,-376.699,50.500,72.760,-9.220
134,38512.806000,-0.489,-8.095,-235.243,25.738,-322.960,-374.697,41.500,48.760,-4.220
135,38512.826000,-0.489,-9.107,-235.243,27.695,-324.914,-373.745,29.500,33.760,4.780
136,38512.849000,-1.468,-9.107,-237.220,29.686,-321.058,-377.722,18.500,30.760,4.780
137,38512.866000,-1.468,-9.107,-239.197,22.776,-321.967,-373.661,10.500,22.760,6.780
138,38512.889000,-1.468,-8.095,-240.185,28.699,-322.017,-376.719,7.500,9.760,5.780
139,38512.926000,-4.405,-8.095,-240.185,23.806,-320.037,-377.619,1.500,-26.240,7.780
140,38512.940000,-5.384,-7.083,-245.127,22.872,-324.865,-377.597,-5.500,-27.240,14.780
141,38512.962000,-6.363,-8.095,-246.116,25.720,-322.961,-373.712,-9.500,-22.240,21.780
142,38512.976000,-9.300,-7.083,-247.104,26.768,-322.966,-377.668,-8.500,-9.240,22.780
143,38512.999000,-10.279,-7.083,-248.093,25.772,-322.958,-376.666,-2.500,16.760,20.780
144,38513.17000,-8.321,-8.095,-247.104,21.849,-321.955,-376.598,0.500,27.760,13.780
145,38513.32000,-6.363,-6.071,-247.104,28.681,-322.018,-375.734,0.500,14.760,8.780
146,38513.56000,-7.342,-7.083,-246.116,25.737,-319.088,-376.670,0.500,-4.240,5.780
147,38513.77000,-7.342,-6.071,-245.127,27.685,-320.075,-375.719,0.500,-14.240,5.780
148,38513.105000,-8.321,-6.071,-246.116,30.665,-323.003,-376.753,2.500,-31.240,2.780
149,38513.115000,-9.300,-5.059,-249.081,22.784,-320.999,-374.647,5.500,-38.240,-1.220
150,38513.137000,-11.258,-6.071,-248.093,20.836,-321.948,-374.611,10.500,-24.240,-4.220
151,38513.162000,-9.300,-7.083,-245.127,26.725,-323.936,-374.713,13.500,1.760,-5.220
152,38513.185000,-5.384,-7.083,-246.116,23.772,-323.911,-373.676,13.500,10.760,-5.220
153,38513.200000,-5.384,-5.059,-246.116,26.768,-324.902,-376.681,11.500,-2.240,-7.220
154,38513.227000,-6.363,-8.095,-244.139,21.719,-319.059,-370.692,9.500,-11.240,-8.220
155,38513.256000,-0.489,432.063,356.819,17.920,-329.664,-371.597,-635.500,-12.240,456.780
156,38513.271000,54.333,-231.715,-156.170,23.622,-345.213,-353.960,291.500,-2982.240,665.780
157,38513.272000,-95.449,-36.427,-214.486,18.504,-377.122,-324.298,-122.500,-2779.240,-48.220
158,38513.290000,-184.535,-41.486,-261.931,11.543,-381.906,-315.309,-184.500,-1237.240,31.780
159,38513.317000,-196.283,-20.237,-283.676,14.616,-378.053,-325.213,-187.500,788.760,-126.220
160,38513.350000,-138.524,-11.130,-288.618,15.837,-346.107,-355.790,-65.500,2500.760,-110.220
161,38513.365000,6.363,-19.225,-257.977,14.014,-326.724,-373.500,-146.500,2754.760,-48.220
162,38513.385000,128.734,78.925,-224.371,9.213,-314.091,-385.244,-79.500,881.760,-147.220
163,38513.405000,65.101,18.213,-256.988,17.995,-319.012,-381.455,0.500,-578.240,-112.220
164,38513.422000,-32.795,-11.130,-284.664,14.984,-325.765,-373.519,14.500,-642.240,-110.220
165,38513.440000,-45.522,2.024,-281.699,12.039,-324.771,-373.468,26.500,-117.240,-87.220
166,38513.467000,-15.174,1.012,-266.873,15.987,-320.933,-377.480,59.500,273.760,-49.220
167,38513.487000,16.153,0.000,-249.081,10.998,-317.990,-373.457,74.500,216.760,-31.220
168,38513.514000,21.048,2.024,-242.162,13.120,-320.903,-381.367,86.500,-134.240,-35.220
169,38513.526000,-3.426,-1.012,-246.116,20.828,-324.852,-372.639,88.500,-249.240,-35.220
170,38513.554000,-17.132,-3.036,-245.127,22.820,-324.868,-374.643,84.500,-64.240,-14.220
171,38513.575000,-10.279,-2.024,-242.162,21.911,-324.855,-378.565,78.500,49.760,-4.220
172,38513.591000,-0.489,-2.024,-238.208,19.945,-325.806,-377.544,70.500,35.760,-0.220
173,38513.612000,-3.426,-2.024,-237.220,19.840,-321.940,-373.609,65.500,26.760,1.780
174,38513.626000,-6.363,-4.047,-236.232,20.862,-320.979,-376.582,52.500,64.760,6.780
175,38513.644000,-3.426,-4.047,-236.232,28.690,-322.986,-375.733,39.500,103.760,12.780
176,38513.662000,3.426,-4.047,-237.220,25.702,-319.090,-374.701,28.500,69.760,19.780
177,38513.689000,3.426,-6.071,-235.243,21.849,-320.019,-377.585,16.500,-0.240,22.780
178,38513.716000,1.468,-4.047,-238.208,22.845,-321.963,-377.600,4.500,-48.240,26.780
179,38513.731000,-2.447,-6.071,-241.174,25.773,-324.894,-375.679,-5.500,-76.240,33.780
180,38513.751000,-6.363,-6.071,-246.116,22.794,-323.902,-373.659,-8.500,-80.240,34.780
181,38513.769000,-11.258,-5.059,-249.081,18.932,-323.863,-376.544,-1.500,-42.240,28.780
182,38513.796000,-14.195,-4.047,-254.023,24.724,-321.017,-373.697,4.500,-20.240,23.780
183,38513.816000,-12.237,-5.059,-257.977,24.803,-325.852,-375.661,20.500,22.760,11.780
184,38513.839000,-10.279,-3.036,-260.942,21.815,-323.893,-373.642,40.500,38.760,7.780
185,38513.859000,-10.279,-6.071,-268.849,21.867,-321.954,-377.583,70.500,21.760,10.780
186,38513.876000,-11.258,-5.059,-279.722,25.720,-321.025,-374.699,107.500,-7.240,4.780
187,38513.904000,-6.363,-3.036,-291.583,22.811,-323.901,-374.644,164.500,-106.240,-13.220
188,38513.919000,-4.405,-5.059,-321.236,30.552,-323.977,-369.858,257.500,-262.240,-39.220
189,38513.927000,-25.943,0.000,-389.436,33.542,-331.744,-368.918,441.500,-355.240,-65.220
190,38513.975000,-41.606,0.000,-414.147,45.233,-335.725,-364.198,667.500,-341.240,-79.220
191,38513.989000,-50.417,8.095,-419.089,53.996,-336.775,-361.398,789.500,-307.240,-102.220
192,38513.997000,-36.711,14.166,-398.332,67.635,-337.871,-357.700,1065.500,-125.240,-137.220
193,38514.20000,-25.943,13.154,-370.656,82.270,-340.911,-354.018,1312.500,-43.240,-145.220
194,38514.42000,-16.153,14.166,-333.097,98.834,-337.194,-352.346,1516.500,28.760,-154.220
195,38514.66000,-3.426,3.036,-292.571,107.571,-339.214,-347.576,1662.500,95.760,-117.220
196,38514.82000,3.426,0.000,-252.046,131.012,-340.398,-345.036,1759.500,158.760,-91.220
197,38514.105000,7.342,-19.225,-210.533,154.296,-337.719,-335.607,1792.500,223.760,-24.220
198,38514.114000,12.237,-33.391,-173.961,167.926,-335.912,-332.897,1763.500,271.760,29.780
199,38514.145000,23.985,-50.593,-145.297,183.435,-337.030,-324.310,1722.500,249.760,79.780
200,38514.170000,26.922,-66.783,-136.402,195.108,-339.077,-319.592,1619.500,94.760,79.780
201,38514.192000,24.964,-83.984,-125.529,214.428,-344.108,-303.192,1481.500,-154.240,91.780
202,38514.207000,7.342,-99.162,-120.587,214.306,-342.179,-297.285,1340.500,-336.240,98.780
203,38514.230000,-11.258,-117.375,-120.587,224.803,-349.067,-278.758,1185.500,-423.240,111.780
204,38514.247000,-18.111,-121.423,-126.517,239.464,-351.138,-277.046,1058.500,-377.240,96.780
205,38514.275000,-17.132,-130.530,-134.425,246.090,-358.956,-260.419,954.500,-367.240,79.780
206,38514.284000,-23.985,-134.577,-139.367,253.755,-361.940,-249.722,863.500,-341.240,68.780
207,38514.306000,-27.901,-144.696,-147.274,250.751,-365.789,-243.757,779.500,-315.240,57.780
208,38514.329000,-29.859,-149.755,-153.205,261.299,-368.802,-230.158,740.500,-295.240,49.780
209,38514.346000,-30.837,-153.802,-153.205,261.273,-369.772,-228.188,674.500,-231.240,30.780
210,38514.369000,-33.774,-159.874,-153.205,264.097,-372.708,-220.359,614.500,-141.240,13.780
211,38514.391000,-24.964,-167.968,-153.205,272.851,-370.856,-218.547,552.500,-81.240,11.780
212,38514.424000,-26.922,-169.992,-155.181,274.679,-373.784,-209.716,507.500,-139.240,6.780
213,38514.442000,-34.753,-175.051,-159.135,280.464,-375.778,-203.909,476.500,-149.240,11.780
214,38514.470000,-29.859,-178.087,-164.077,278.420,-373.830,-199.937,452.500,-157.240,10.780
215,38514.479000,-31.816,-178.087,-163.089,282.283,-379.676,-194.092,425.500,-228.240,-20.220
216,38514.499000,-36.711,-182.134,-163.089,287.054,-375.855,-189.259,403.500,-237.240,-58.220
217,38514.521000,-37.690,-180.111,-165.066,289.843,-380.730,-178.473,392.500,-213.240,-67.220
218,38514.540000,-36.711,-178.087,-160.124,288.891,-381.687,-179.440,385.500,-158.240,-95.220
219,38514.561000,-29.859,-177.075,-154.193,301.464,-380.843,-171.787,362.500,-70.240,-100.220
220,38514.574000,-25.943,-180.111,-152.216,301.429,-378.910,-170.805,335.500,-76.240,-87.220
221,38514.596000,-27.901,-181.123,-152.216,298.380,-375.986,-165.832,300.500,-114.240,-73.220
222,38514.619000,-29.859,-184.158,-157.158,299.290,-377.934,-160.923,281.500,-122.240,-54.220
223,38514.641000,-23.985,-181.123,-149.251,307.066,-376.072,-159.094,263.500,-96.240,-55.220
224,38514.669000,-17.132,-182.134,-140.355,305.110,-379.926,-157.086,236.500,-124.240,-65.220
225,38514.681000,-22.027,-188.206,-135.413,302.062,-378.938,-151.127,189.500,-112.240,-24.220
226,38514.704000,-22.027,-194.277,-139.367,306.902,-377.050,-149.246,159.500,-103.240,4.780
227,38514.726000,-24.964,-193.265,-144.309,310.798,-377.086,-148.330,117.500,-166.240,25.780
228,38514.744000,-25.943,-192.253,-150.239,309.786,-380.951,-144.370,93.500,-180.240,26.780
229,38514.771000,-31.816,-192.253,-149.251,305.830,-383.821,-140.359,80.500,-137.240,18.780
230,38514.787000,-33.774,-191.241,-149.251,309.752,-382.889,-141.414,66.500,-83.240,35.780
231,38514.816000,-38.669,-193.265,-149.251,308.757,-384.816,-139.425,56.500,-52.240,61.780
232,38514.836000,-36.711,-193.265,-149.251,306.817,-384.798,-140.375,37.500,-17.240,59.780
233,38514.865000,-34.753,-193.265,-150.239,303.864,-384.772,-139.338,18.500,-22.240,45.780
234,38514.874000,-35.732,-193.265,-149.251,312.627,-383.887,-137.526,9.500,-37.240,37.780
235,38514.894000,-37.690,-194.277,-151.228,306.869,-384.795,-143.329,-0.500,-39.240,33.780
236,38514.902000,-41.606,-194.277,-157.158,307.744,-384.809,-137.438,-9.500,-34.240,39.780
237,38514.940000,-40.627,-192.253,-156.170,300.947,-386.680,-139.285,-12.500,-24.240,36.780
238,38514.941000,-43.564,-191.241,-159.135,300.912,-384.746,-138.302,-10.500,-54.240,18.780
239,38514.961000,-47.480,-194.277,-165.066,303.900,-388.642,-139.334,0.500,-68.240,5.780
240,38514.989000,-51.396,-193.265,-162.100,303.840,-389.613,-135.394,5.500,-28.240,-24.220
241,38515.9000,-47.480,-192.253,-164.077,307.770,-387.712,-137.435,10.500,12.760,-44.220
242,38515.26000,-43.564,-190.229,-164.077,307.726,-384.810,-136.453,16.500,1.760,-56.220
243,38515.47000,-38.669,-189.217,-161.112,304.782,-383.816,-136.402,14.500,3.760,-60.220
244,38515.67000,-38.669,-188.206,-160.124,305.769,-384.793,-136.419,22.500,-2.240,-67.220
245,38515.84000,-39.648,-190.229,-156.170,302.825,-383.799,-136.368,15.500,33.760,-44.220
246,38515.109000,-37.690,-194.277,-149.251,311.640,-382.910,-137.509,14.500,44.760,-43.220
247,38515.129000,-37.690,-193.265,-136.402,312.636,-382.918,-138.511,-7.500,101.760,-51.220
248,38515.154000,-32.795,-191.241,-118.610,306.833,-380.925,-143.333,-63.500,182.760,-50.220
249,38515.174000,-28.880,-191.241,-100.819,306.885,-378.986,-147.274,-156.500,282.760,-27.220
250,38515.195000,-25.943,-186.182,-73.143,307.923,-376.088,-152.218,-286.500,374.760,4.780
251,38515.221000,-23.985,-180.111,-45.467,302.156,-376.029,-158.023,-470.500,420.760,27.780
252,38515.236000,-19.090,-174.040,-25.699,296.588,-376.926,-174.659,-588.500,411.760,43.780
253,38515.245000,-9.300,-172.016,-16.803,298.587,-372.102,-179.622,-843.500,238.760,51.780
254,38515.292000,-15.174,-168.980,-23.722,292.959,-373.971,-192.319,-1084.500,-42.240,23.780
255,38515.306000,-33.774,-157.850,-23.722,279.329,-371.907,-197.002,-1333.500,-91.240,-19.220
256,38515.326000,-33.774,-143.684,-34.595,270.843,-372.777,-214.571,-1578.500,-33.240,-57.220
257,38515.335000,-26.922,-127.494,-57.328,266.053,-370.790,-221.380,-1756.500,-33.240,-75.220
258,38515.357000,-29.859,-90.055,-101.807,251.678,-365.800,-240.820,-1878.500,-1.240,-79.220
259,38515.385000,-32.795,-75.889,-114.656,246.196,-366.693,-262.380,-1988.500,65.760,-70.220
260,38515.402000,-25.943,-66.783,-137.390,218.876,-363.536,-267.807,-2046.500,90.760,-51.220
261,38515.423000,-25.943,-42.498,-152.216,197.720,-360.415,-290.079,-2134.500,97.760,-53.220
262,38515.451000,-17.132,-19.225,-170.996,185.086,-358.359,-295.765,-2196.500,205.760,-58.220
263,38515.466000,-14.195,3.036,-188.788,163.843,-351.372,-315.086,-2231.500,296.760,-59.220
264,38515.482000,-20.069,17.202,-200.649,150.307,-348.335,-325.679,-2245.500,422.760,-61.220
265,38515.502000,-23.985,21.249,-205.591,127.072,-339.396,-343.983,-2249.500,740.760,-46.220
266,38515.526000,9.300,31.368,-203.614,108.617,-329.540,-356.466,-2291.500,1079.760,-27.220
267,38515.545000,43.564,54.640,-218.440,72.590,-314.682,-373.566,-2362.500,990.760,-62.220
268,38515.562000,32.795,86.008,-230.301,45.328,-302.811,-386.880,-2359.500,687.760,-152.220
269,38515.595000,9.300,100.174,-220.417,31.705,-295.907,-394.523,-2332.500,676.760,-157.220
270,38515.599000,30.837,110.292,-214.486,-7.394,-282.966,-402.706,-2355.500,878.760,-108.220
271,38515.626000,76.849,133.565,-237.220,-22.974,-276.044,-410.314,-2459.500,762.760,-126.220
272,38515.659000,41.606,151.779,-254.023,-56.321,-272.842,-406.775,-2429.500,135.760,-228.220
273,38515.678000,-29.859,152.791,-242.162,-72.047,-270.768,-403.546,-2334.500,75.760,-202.220
274,38515.710000,-6.363,177.075,-224.371,-101.482,-259.858,-404.022,-2336.500,790.760,-150.220
275,38515.712000,60.207,205.407,-225.359,-134.866,-248.915,-402.460,-2386.500,909.760,-243.220
276,38515.731000,62.164,223.621,-229.313,-148.669,-246.861,-397.296,-2389.500,375.760,-353.220
277,38515.749000,8.321,220.585,-223.382,-180.259,-240.784,-383.946,-2363.500,169.760,-345.220
278,38515.776000,8.321,228.680,-204.602,-198.955,-238.685,-378.695,-2373.500,322.760,-311.220
279,38515.794000,57.270,250.941,-201.637,-228.587,-236.498,-363.407,-2435.500,458.760,-283.220
280,38515.819000,46.501,269.154,-218.440,-238.546,-234.483,-354.373,-2425.500,-32.240,-370.220
281,38515.836000,-0.489,274.213,-218.440,-262.375,-236.225,-333.276,-2343.500,-202.240,-413.220
282,38515.856000,15.174,281.296,-221.405,-279.112,-239.951,-325.100,-2327.500,180.760,-380.220
283,38515.879000,70.975,294.451,-227.336,-295.132,-235.958,-306.116,-2251.500,23.760,-441.220
284,38515.892000,55.312,303.557,-231.290,-316.041,-247.406,-279.153,-2102.500,-582.240,-464.220
285,38515.910000,-16.153,291.415,-236.232,-323.080,-249.290,-267.213,-1895.500,-451.240,-390.220
286,38515.932000,3.426,277.249,-239.197,-334.084,-255.013,-250.275,-1835.500,-112.240,-249.220
287,38515.955000,29.859,280.285,-231.290,-337.202,-254.029,-240.377,-1627.500,121.760,-236.220
288,38515.977000,11.258,281.296,-228.324,-345.228,-256.873,-227.434,-1411.500,49.760,-215.220
289,38516.0,-0.489,261.059,-229.313,-357.117,-255.806,-219.349,-1205.500,217.760,-192.220
290,38516.32000,23.985,261.059,-222.394,-363.162,-251.891,-211.371,-1000.500,297.760,-198.220
291,38516.57000,24.964,280.285,-206.579,-367.170,-256.700,-203.419,-808.500,197.760,-248.220
292,38516.71000,6.363,267.130,-191.753,-359.342,-256.772,-203.557,-621.500,422.760,-257.220
293,38516.77000,36.711,253.976,-177.915,-364.296,-251.891,-202.491,-483.500,682.760,-168.220
294,38516.109000,63.143,247.905,-166.054,-364.340,-250.926,-200.522,-343.500,337.760,-111.220
295,38516.131000,36.711,249.929,-160.124,-364.375,-248.992,-199.540,-271.500,164.760,-93.220
296,38516.140000,17.132,253.976,-154.193,-370.272,-249.908,-197.465,-135.500,204.760,-71.220
297,38516.165000,34.753,257.012,-144.309,-374.074,-246.962,-205.277,-40.500,373.760,-64.220
298,38516.182000,44.543,254.988,-134.425,-362.289,-244.163,-209.427,41.500,338.760,-43.220
299,38516.202000,46.501,238.798,-120.587,-364.238,-243.177,-210.378,98.500,218.760,6.780
300,38516.223000,45.522,230.704,-110.703,-360.324,-243.212,-210.447,127.500,45.760,36.780
301,38516.240000,34.753,234.751,-109.714,-365.216,-245.104,-209.374,163.500,-41.240,48.780
302,38516.254000,23.985,240.822,-105.761,-365.199,-243.167,-211.345,190.500,30.760,65.780
303,38516.281000,28.880,238.798,-99.830,-366.161,-241.221,-213.299,198.500,51.760,77.780
304,38516.304000,31.816,237.787,-95.876,-364.143,-242.203,-216.287,196.500,2.760,76.780
305,38516.326000,25.943,234.751,-99.830,-361.156,-242.227,-219.293,192.500,-101.240,72.780
306,38516.347000,19.090,236.775,-105.761,-362.151,-242.219,-218.291,197.500,-115.240,74.780
307,38516.364000,20.069,241.834,-117.622,-356.272,-243.240,-218.394,211.500,-87.240,63.780
308,38516.391000,22.027,243.858,-142.332,-356.211,-244.205,-221.348,247.500,-100.240,41.780
309,38516.411000,27.901,251.953,-170.996,-360.090,-244.167,-223.248,341.500,-168.240,10.780
310,38516.435000,23.985,256.000,-205.591,-352.193,-244.234,-227.325,518.500,-206.240,-8.220
311,38516.441000,17.132,259.036,-237.220,-346.148,-248.149,-235.303,736.500,-126.240,11.780
312,38516.472000,18.111,274.213,-263.907,-348.027,-247.159,-240.193,1003.500,-74.240,53.780
313,38516.490000,21.048,293.439,-281.699,-338.027,-246.268,-253.169,1161.500,-7.240,73.780
314,38516.512000,18.111,296.474,-286.641,-321.055,-245.433,-273.160,1475.500,136.760,129.780
315,38516.540000,26.922,295.462,-286.641,-317.965,-241.579,-284.048,1771.500,217.760,181.780
316,38516.550000,28.880,305.581,-289.606,-300.033,-236.882,-305.044,2041.500,189.760,215.780
317,38516.581000,23.006,313.676,-285.652,-284.144,-236.043,-319.109,2283.500,286.760,284.780
318,38516.599000,25.943,317.723,-279.722,-257.397,-230.457,-341.246,2493.500,361.760,350.780
319,38516.621000,33.774,320.759,-271.815,-252.316,-224.684,-355.125,2670.500,339.760,383.780
320,38516.640000,38.669,316.711,-268.849,-212.787,-225.986,-377.481,2798.500,247.760,430.780
321,38516.659000,53.354,308.617,-261.931,-197.972,-222.240,-387.592,2853.500,152.760,435.780
322,38516.686000,52.375,302.545,-249.081,-158.443,-223.541,-409.948,2954.500,-44.240,457.780
323,38516.695000,41.606,282.308,-238.208,-118.134,-223.896,-421.490,2997.500,-136.240,432.780
324,38516.717000,36.711,266.119,-230.301,-91.576,-226.064,-428.848,3013.500,-107.240,446.780
325,38516.737000,43.564,248.917,-227.336,-54.271,-232.202,-433.439,3038.500,-120.240,491.780
326,38516.769000,46.501,225.644,-210.533,-35.696,-234.308,-431.796,3019.500,-221.240,516.780
327,38516.777000,43.564,180.111,-194.718,3.505,-239.500,-433.468,2969.500,-260.240,489.780
328,38516.800000,46.501,154.814,-198.672,28.894,-239.734,-430.964,2909.500,-273.240,470.780
329,38516.820000,39.648,131.542,-192.741,68.910,-247.848,-421.818,2862.500,-351.240,451.780
330,38516.847000,25.943,108.269,-174.950,111.853,-255.021,-412.725,2842.500,-377.240,451.780
331,38516.861000,29.859,84.996,-164.077,119.596,-260.905,-404.979,2774.500,-328.240,439.780
332,38516.882000,43.564,62.735,-158.147,158.488,-271.921,-385.965,2676.500,-328.240,425.780
333,38516.896000,33.774,44.522,-149.251,174.085,-280.778,-378.355,2589.500,-516.240,388.780
334,38516.910000,20.069,25.296,-148.263,206.066,-288.832,-357.254,2501.500,-573.240,334.780
335,38516.942000,18.111,3.036,-132.448,223.455,-294.813,-341.803,2403.500,-440.240,330.780
336,38516.960000,17.132,-17.202,-121.575,249.600,-304.747,-321.580,2293.500,-302.240,347.780
337,38516.992000,20.069,-43.510,-112.680,256.071,-310.638,-297.077,2168.500,-290.240,345.780
338,38517.11000,11.258,-65.771,-112.680,275.468,-312.762,-286.588,2035.500,-304.240,330.780
339,38517.30000,8.321,-84.996,-101.807,300.539,-321.725,-261.426,1971.500,-290.240,317.780
340,38517.46000,3.426,-97.138,-91.923,307.242,-322.764,-252.683,1849.500,-190.240,316.780
341,38517.62000,7.342,-118.387,-83.027,312.751,-330.581,-228.160,1706.500,-156.240,323.780
342,38517.90000,3.426,-134.577,-75.120,323.394,-334.557,-219.483,1548.500,-265.240,321.780
343,38517.110000,-9.300,-147.731,-71.166,325.059,-340.399,-199.817,1393.500,-375.240,288.780
344,38517.132000,-16.153,-160.885,-71.166,325.874,-343.321,-188.999,1244.500,-384.240,254.780
345,38517.150000,-18.111,-174.040,-74.131,335.305,-346.333,-167.504,1094.500,-375.240,232.780
346,38517.170000,-18.111,-179.099,-72.154,338.026,-355.083,-150.807,961.500,-406.240,200.780
347,38517.196000,-31.816,-189.217,-75.120,341.828,-358.029,-142.995,901.500,-408.240,164.780
348,38517.210000,-34.753,-193.265,-74.131,348.496,-359.069,-132.282,779.500,-317.240,143.780
349,38517.234000,-28.880,-200.348,-75.120,345.440,-360.985,-124.351,663.500,-224.240,121.780
350,38517.257000,-36.711,-204.395,-75.120,348.220,-362.956,-114.553,565.500,-198.240,89.780
351,38517.275000,-33.774,-206.419,-75.120,353.079,-364.938,-111.683,467.500,-103.240,82.780
352,38517.295000,-29.859,-209.455,-69.189,353.001,-365.911,-106.758,370.500,-49.240,77.780
353,38517.327000,-25.943,-216.538,-72.154,348.100,-366.835,-105.686,253.500,-88.240,68.780
354,38517.364000,-20.069,-217.549,-77.097,346.023,-368.759,-97.771,147.500,-220.240,63.780
355,38517.370000,-26.922,-215.526,-88.958,348.934,-373.627,-93.879,74.500,-368.240,53.780
356,38517.385000,-42.585,-217.549,-96.865,354.735,-371.749,-91.031,47.500,-392.240,54.780
357,38517.399000,-39.648,-214.514,-102.795,347.860,-374.591,-87.953,-8.500,-339.240,37.780
358,38517.425000,-39.648,-215.526,-109.714,346.864,-374.583,-86.951,-44.500,-311.240,0.780
359,38517.442000,-44.543,-213.502,-124.541,350.726,-372.686,-85.052,-74.500,-264.240,-32.220
360,38517.459000,-45.522,-211.478,-128.494,342.907,-375.518,-83.926,-72.500,-161.240,-58.220
361,38517.500000,-38.669,-210.466,-131.459,344.760,-371.670,-80.026,-81.500,-3.240,-77.220
362,38517.503000,-24.964,-212.490,-132.448,349.704,-371.712,-83.066,-83.500,57.760,-63.220
363,38517.532000,-19.090,-211.478,-133.436,346.786,-371.684,-83.999,-89.500,-19.240,-57.220
364,38517.546000,-19.090,-209.455,-137.390,347.833,-369.753,-88.942,-86.500,-40.240,-34.220
365,38517.561000,-23.985,-209.455,-137.390,347.799,-371.691,-85.986,-82.500,-24.240,-25.220
366,38517.594000,-23.006,-207.431,-131.459,354.717,-369.814,-91.033,-78.500,32.760,-3.220
367,38517.626000,-18.111,-208.443,-125.529,346.863,-368.776,-89.911,-96.500,41.760,20.780
368,38517.636000,-23.006,-209.455,-113.668,347.920,-371.684,-92.879,-130.500,35.760,24.780
369,38517.650000,-19.090,-206.419,-103.784,346.049,-371.662,-97.769,-187.500,91.760,27.780
370,38517.671000,-15.174,-204.395,-94.888,347.027,-369.735,-98.773,-258.500,84.760,42.780
371,38517.686000,-21.048,-205.407,-84.015,346.126,-366.818,-104.667,-351.500,106.760,69.780
372,38517.708000,-23.006,-204.395,-80.062,339.408,-371.588,-109.465,-460.500,123.760,91.780
373,38517.726000,-26.922,-205.407,-91.923,334.627,-370.569,-116.272,-525.500,115.760,104.780
374,38517.760000,-44.543,-210.466,-90.934,337.650,-372.527,-120.261,-557.500,192.760,110.780
375,38517.782000,-46.501,-203.383,-90.934,326.141,-371.439,-133.841,-621.500,387.760,82.780
376,38517.797000,-33.774,-191.241,-85.004,325.325,-362.710,-147.620,-722.500,504.760,39.780
377,38517.817000,-21.048,-180.111,-94.888,323.577,-366.552,-157.429,-844.500,429.760,-6.220
378,38517.832000,-19.090,-173.028,-107.737,318.865,-361.657,-170.149,-943.500,289.760,-13.220
379,38517.860000,-30.837,-173.028,-105.761,313.167,-361.594,-179.893,-1027.500,287.760,-39.220
380,38517.882000,-33.774,-162.909,-94.888,305.614,-355.700,-198.471,-1143.500,449.760,-68.220
381,38517.896000,-14.195,-145.708,-98.842,305.795,-354.722,-209.304,-1258.500,453.760,-95.220
382,38517.909000,2.447,-131.542,-111.691,298.278,-350.762,-228.865,-1364.500,272.760,-96.220
383,38517.937000,-2.447,-124.459,-109.714,281.911,-345.756,-246.301,-1423.500,208.760,-92.220
384,38517.960000,-12.237,-113.328,-102.795,269.354,-344.663,-255.925,-1565.500,222.760,-93.220
385,38517.982000,-1.468,-100.174,-121.575,252.043,-341.582,-274.327,-1699.500,232.760,-94.220
386,38518.2000,15.174,-90.055,-139.367,244.283,-335.700,-281.087,-1763.500,36.760,-115.220
387,38518.17000,12.237,-73.866,-140.355,223.077,-336.454,-298.432,-1862.500,-82.240,-97.220
388,38518.40000,-3.426,-57.676,-155.181,216.365,-334.448,-307.175,-1924.500,-18.240,-67.220
389,38518.62000,-15.174,-47.557,-165.066,196.112,-336.180,-322.566,-1990.500,205.760,0.780
390,38518.82000,8.321,-39.462,-191.753,176.661,-328.253,-333.060,-2016.500,136.760,0.780
391,38518.102000,13.216,-22.261,-212.510,152.388,-326.084,-344.447,-1982.500,61.760,-0.220
392,38518.120000,-25.943,11.130,-220.417,127.137,-321.970,-356.803,-1961.500,155.760,-1.220
393,38518.145000,11.258,15.178,-235.243,119.394,-316.087,-364.548,-1976.500,542.760,24.780
394,38518.162000,29.859,33.391,-243.151,94.132,-305.198,-379.865,-1988.500,610.760,13.780
395,38518.184000,3.426,50.593,-236.232,72.656,-301.128,-384.412,-1939.500,342.760,-10.220
396,38518.205000,-8.321,60.711,-226.347,47.380,-299.919,-393.811,-1888.500,440.760,-22.220
397,38518.220000,35.732,69.818,-234.255,33.678,-288.180,-399.489,-1962.500,710.760,-25.220
398,38518.234000,45.522,86.008,-238.208,8.348,-283.103,-407.907,-1985.500,406.760,-77.220
399,38518.261000,14.195,97.138,-231.290,-22.038,-277.023,-407.377,-1964.500,119.760,-106.220
400,38518.279000,19.090,114.340,-223.382,-33.771,-279.819,-406.181,-2007.500,182.760,-117.220
401,38518.301000,58.249,136.601,-227.336,-63.214,-271.814,-404.685,-2047.500,331.760,-123.220
402,38518.324000,36.711,145.708,-240.185,-82.793,-268.733,-405.327,-2073.500,-26.240,-139.220
403,38518.356000,-6.363,145.708,-235.243,-109.377,-269.470,-395.011,-2027.500,-261.240,-124.220
404,38518.385000,-7.342,158.862,-227.336,-115.282,-269.418,-392.938,-2027.500,119.760,-114.220
405,38518.391000,29.859,179.099,-222.394,-146.760,-262.368,-386.482,-2070.500,556.760,-120.220
406,38518.424000,40.627,187.194,-218.440,-174.298,-256.319,-381.080,-2097.500,487.760,-81.220
407,38518.434000,42.585,195.289,-207.568,-183.244,-250.440,-376.006,-2111.500,249.760,-47.220
408,38518.447000,33.774,220.585,-212.510,-210.902,-250.205,-360.750,-2102.500,106.760,-116.220
409,38518.470000,21.048,225.644,-221.405,-229.641,-247.141,-353.531,-2085.500,133.760,-137.220
410,38518.495000,49.438,226.656,-224.371,-253.394,-240.167,-341.306,-2062.500,331.760,-130.220
411,38518.512000,58.249,231.715,-232.278,-258.355,-243.998,-335.307,-2025.500,99.760,-94.220
412,38518.529000,23.006,251.953,-241.174,-283.180,-245.732,-313.208,-1921.500,-295.240,-99.220
413,38518.561000,9.300,275.225,-243.151,-294.074,-244.673,-306.125,-1794.500,-58.240,-145.220
414,38518.570000,49.438,270.166,-260.942,-310.968,-242.601,-292.046,-1705.500,273.760,-111.220
415,38518.597000,63.143,225.644,-283.676,-326.943,-247.316,-271.084,-1477.500,-219.240,47.780
416,38518.617000,-6.363,250.941,-276.757,-327.038,-248.289,-265.175,-1170.500,-600.240,103.780
417,38518.637000,-66.080,270.166,-277.745,-337.048,-248.213,-252.200,-956.500,107.760,12.780
418,38518.661000,-17.132,268.142,-273.792,-341.050,-240.439,-251.154,-854.500,654.760,-67.220
419,38518.677000,63.143,238.798,-255.012,-343.008,-234.614,-254.079,-641.500,1093.760,-133.220
420,38518.690000,70.975,223.621,-234.255,-345.988,-229.750,-254.032,-431.500,474.760,-149.220
421,38518.708000,20.069,227.668,-213.498,-338.124,-235.627,-253.180,-246.500,-9.240,-144.220
422,38518.738000,7.342,229.692,-203.614,-343.069,-233.650,-251.126,-135.500,219.760,-146.220
423,38518.759000,33.774,226.656,-189.776,-345.962,-230.717,-255.016,-15.500,428.760,-134.220
424,38518.781000,47.480,223.621,-176.927,-345.001,-230.727,-254.049,78.500,286.760,-92.220
425,38518.805000,41.606,223.621,-165.066,-345.946,-226.844,-257.974,143.500,151.760,-56.220
426,38518.820000,39.648,222.609,-157.158,-347.763,-232.626,-262.858,195.500,102.760,-27.220
427,38518.842000,37.690,218.561,-152.216,-337.044,-227.887,-263.053,217.500,89.760,-10.220
428,38518.862000,37.690,217.549,-150.239,-341.867,-229.774,-265.919,248.500,107.760,8.780
429,38518.885000,45.522,215.526,-144.309,-333.926,-230.807,-271.965,266.500,108.760,7.780
430,38518.903000,48.459,213.502,-135.413,-331.069,-227.934,-269.065,282.500,48.760,10.780
431,38518.923000,44.543,211.478,-129.483,-332.888,-227.909,-276.909,285.500,-14.240,20.780
432,38518.944000,39.648,209.455,-125.529,-333.866,-227.900,-276.891,278.500,-25.240,38.780
433,38518.966000,43.564,209.455,-118.610,-333.841,-226.930,-278.862,248.500,-57.240,54.780
434,38518.989000,43.564,211.478,-116.633,-324.056,-225.084,-280.022,223.500,-130.240,69.780
435,38519.4000,31.816,208.443,-112.680,-325.016,-228.945,-279.016,186.500,-123.240,87.780
436,38519.26000,32.795,202.372,-113.668,-329.813,-231.799,-282.865,164.500,-110.240,93.780
437,38519.49000,36.711,202.372,-121.575,-326.887,-228.923,-283.905,126.500,-141.240,88.780
438,38519.75000,31.816,203.383,-139.367,-325.960,-230.870,-279.981,96.500,-183.240,74.780
439,38519.97000,31.816,206.419,-167.042,-327.864,-232.785,-281.914,107.500,-189.240,46.780
440,38519.106000,27.901,216.538,-205.591,-321.067,-230.915,-280.068,196.500,-177.240,4.780
441,38519.124000,27.901,220.585,-243.151,-321.897,-237.673,-284.967,366.500,-156.240,-19.220
442,38519.151000,21.048,225.644,-270.826,-314.087,-235.809,-285.108,573.500,-125.240,-41.220
443,38519.179000,17.132,239.810,-298.502,-314.944,-235.793,-291.984,818.500,-39.240,-9.220
444,38519.197000,18.111,254.988,-324.201,-298.146,-233.032,-303.113,1099.500,31.760,25.780
445,38519.211000,26.922,265.107,-335.073,-284.186,-238.949,-315.167,1252.500,117.760,44.780
446,38519.225000,29.859,263.083,-335.073,-274.229,-237.092,-326.174,1547.500,157.760,87.780
447,38519.252000,32.795,265.107,-335.073,-261.215,-233.320,-345.113,1809.500,150.760,122.780
448,38519.285000,34.753,269.154,-331.120,-250.367,-227.606,-353.188,2037.500,169.760,162.780
449,38519.295000,41.606,266.119,-329.143,-224.597,-229.754,-371.361,2267.500,180.760,200.780
450,38519.311000,54.333,265.107,-318.270,-206.864,-226.036,-380.539,2468.500,60.760,237.780
451,38519.333000,55.312,263.083,-307.398,-175.187,-234.043,-397.826,2646.500,-72.240,241.780
452,38519.354000,46.501,256.000,-290.595,-137.823,-231.468,-410.304,2764.500,-86.240,262.780
453,38519.376000,53.354,248.917,-280.710,-115.187,-236.504,-415.620,2812.500,-131.240,265.780
454,38519.400000,52.375,237.787,-271.815,-74.948,-236.862,-423.223,2891.500,-221.240,282.780
455,38519.419000,50.417,220.585,-261.931,-51.394,-240.943,-425.604,2949.500,-245.240,325.780
456,38519.439000,49.438,184.158,-225.359,-15.189,-245.144,-424.271,2986.500,-281.240,333.780
457,38519.461000,34.753,162.909,-211.521,10.280,-254.085,-421.758,2978.500,-443.240,274.780
458,38519.484000,21.048,142.672,-201.637,49.379,-261.219,-416.534,2957.500,-476.240,225.780
459,38519.516000,23.006,118.387,-180.880,74.795,-266.291,-413.040,2918.500,-237.240,246.780
460,38519.535000,39.648,94.103,-162.100,111.779,-269.544,-400.893,2821.500,-107.240,280.780
461,38519.549000,40.627,71.842,-143.320,153.666,-279.616,-385.871,2716.500,-256.240,229.780
462,38519.562000,28.880,55.652,-128.494,169.175,-278.799,-378.271,2663.500,-316.240,185.780
463,38519.580000,25.943,25.296,-129.483,196.306,-285.838,-360.038,2548.500,-268.240,169.780
464,38519.602000,27.901,1.012,-119.598,220.570,-288.976,-347.665,2428.500,-166.240,209.780
465,38519.620000,36.711,-16.190,-113.668,244.740,-293.086,-329.384,2291.500,-145.240,234.780
466,38519.647000,27.901,-36.427,-111.691,251.444,-299.932,-317.681,2162.500,-286.240,196.780
467,38519.665000,21.048,-61.723,-113.668,274.610,-308.875,-295.438,2038.500,-324.240,201.780
468,38519.685000,15.174,-83.984,-111.691,296.710,-313.942,-270.227,1911.500,-308.240,220.780
469,38519.706000,7.342,-101.186,-103.784,300.512,-316.887,-262.415,1799.500,-297.240,215.780
470,38519.730000,1.468,-113.328,-97.853,314.810,-322.850,-238.050,1677.500,-232.240,192.780
471,38519.752000,3.426,-129.518,-94.888,325.400,-322.957,-228.393,1610.500,-216.240,186.780
472,38519.777000,10.279,-138.625,-90.934,336.823,-325.986,-208.902,1483.500,-175.240,164.780
473,38519.792000,7.342,-154.814,-79.073,348.401,-329.005,-198.274,1361.500,-232.240,150.780
474,38519.815000,4.405,-173.028,-81.050,342.263,-331.871,-181.427,1215.500,-283.240,150.780
475,38519.835000,-1.468,-179.099,-72.154,348.768,-337.760,-158.892,1085.500,-337.240,133.780
476,38519.850000,-7.342,-186.182,-67.212,357.488,-339.781,-153.138,960.500,-330.240,129.780
477,38519.876000,-13.216,-194.277,-59.305,356.251,-341.722,-137.362,821.500,-287.240,126.780
478,38519.890000,-9.300,-198.324,-58.317,365.041,-345.675,-134.560,675.500,-253.240,120.780
479,38519.912000,-14.195,-203.383,-59.305,364.834,-349.558,-120.769,557.500,-297.240,97.780
480,38519.930000,-18.111,-207.431,-52.386,360.746,-345.661,-112.826,490.500,-289.240,94.780
481,38519.951000,-16.153,-215.526,-55.351,362.696,-350.518,-109.901,348.500,-286.240,69.780
482,38519.987000,-22.027,-228.680,-65.236,364.558,-353.445,-103.040,212.500,-298.240,58.780
483,38520.6000,-23.985,-223.621,-71.166,364.490,-357.321,-97.127,112.500,-275.240,46.780
484,38520.12000,-22.027,-224.632,-80.062,366.447,-357.338,-97.162,29.500,-241.240,42.780
485,38520.47000,-23.006,-222.609,-88.958,358.584,-355.333,-96.041,-32.500,-259.240,11.780
486,38520.66000,-23.006,-220.585,-98.842,355.614,-357.244,-93.032,-76.500,-257.240,-7.220
487,38520.86000,-28.880,-218.561,-112.680,365.374,-358.303,-91.235,-103.500,-209.240,-4.220
488,38520.102000,-30.837,-220.585,-119.598,362.447,-357.308,-92.169,-118.500,-130.240,-1.220
489,38520.135000,-26.922,-217.549,-126.517,360.498,-356.321,-93.120,-125.500,-91.240,-2.220
490,38520.139000,-23.006,-214.514,-127.506,358.550,-359.207,-92.098,-127.500,-51.240,-22.220
491,38520.155000,-21.048,-211.478,-131.459,364.395,-356.358,-92.204,-133.500,-50.240,-30.220
492,38520.178000,-24.964,-211.478,-139.367,360.559,-359.222,-95.086,-118.500,-66.240,-38.220
493,38520.209000,-28.880,-209.455,-138.378,357.675,-357.256,-98.976,-115.500,18.760,-45.220
494,38520.210000,-17.132,-204.395,-142.332,363.511,-355.376,-98.097,-109.500,93.760,-43.220
495,38520.241000,-13.216,-209.455,-143.320,363.624,-356.337,-104.004,-115.500,103.760,-34.220
496,38520.261000,-6.363,-208.443,-140.355,357.692,-353.384,-101.934,-115.500,74.760,-21.220
497,38520.294000,-8.321,-208.443,-131.459,356.800,-355.306,-105.854,-124.500,60.760,-14.220
498,38520.307000,-8.321,-205.407,-120.587,358.835,-356.287,-109.826,-138.500,79.760,-10.220
499,38520.336000,-8.321,-204.395,-105.761,361.788,-356.313,-110.863,-171.500,135.760,7.780
500,38520.340000,-2.447,-204.395,-90.934,359.873,-353.389,-114.770,-254.500,190.760,39.780
501,38520.361000,2.447,-202.372,-83.027,356.116,-357.216,-121.590,-359.500,140.760,77.780
502,38520.375000,-8.321,-201.360,-74.131,352.314,-356.206,-128.416,-471.500,110.760,114.780
503,38520.410000,-13.216,-199.336,-67.212,347.482,-355.191,-132.269,-593.500,63.760,134.780
504,38520.426000,-17.132,-194.277,-78.085,341.750,-355.129,-140.043,-724.500,-45.240,114.780
505,38520.449000,-22.027,-192.253,-86.981,337.966,-356.054,-146.867,-840.500,-132.240,68.780
506,38520.466000,-31.816,-178.087,-85.004,337.135,-358.941,-153.740,-971.500,-74.240,34.780
507,38520.489000,-35.732,-164.933,-86.981,326.657,-357.859,-170.291,-1031.500,-21.240,17.780
508,38520.511000,-36.711,-157.850,-84.015,319.955,-358.756,-178.047,-1170.500,105.760,-29.220
509,38520.536000,-18.111,-148.743,-99.830,311.337,-352.858,-191.684,-1303.500,71.760,-66.220
510,38520.563000,-20.069,-140.648,-97.853,302.755,-350.830,-205.317,-1423.500,32.760,-72.220
511,38520.581000,-21.048,-129.518,-96.865,301.058,-352.733,-219.067,-1562.500,63.760,-92.220
512,38520.606000,-3.426,-112.316,-97.853,290.493,-349.720,-231.681,-1715.500,4.760,-91.220
513,38520.620000,9.300,-99.162,-114.656,275.045,-351.502,-242.235,-1837.500,-265.240,-72.220
514,38520.637000,3.426,-93.091,-154.193,260.722,-350.381,-262.656,-1838.500,-437.240,-17.220
515,38520.660000,-31.816,-76.901,-170.996,243.188,-351.184,-266.283,-1839.500,-335.240,52.780
516,38520.680000,-37.690,-63.747,-174.950,226.846,-345.209,-285.690,-1859.500,89.760,63.780
517,38520.689000,-18.111,-46.545,-191.753,219.147,-344.162,-293.431,-1877.500,380.760,73.780
518,38520.722000,3.426,-41.486,-212.510,194.017,-338.106,-313.667,-1873.500,362.760,110.780
519,38520.740000,-8.321,-12.142,-218.440,175.555,-338.898,-320.230,-1861.500,278.760,130.780
520,38520.762000,-22.027,-3.036,-218.440,155.257,-333.857,-336.613,-1822.500,446.760,145.780
521,38520.782000,5.384,-1.012,-231.290,130.056,-323.933,-354.883,-1846.500,733.760,161.780
522,38520.800000,22.027,5.059,-229.313,113.524,-317.969,-363.458,-1839.500,650.760,137.780
523,38520.822000,4.405,28.332,-226.347,86.315,-311.902,-376.766,-1835.500,468.760,72.780
524,38520.847000,1.468,37.439,-221.405,81.473,-306.047,-382.594,-1829.500,490.760,43.780
525,38520.866000,29.859,45.534,-232.278,51.302,-298.987,-394.866,-1883.500,652.760,42.780
526,38520.885000,37.690,62.735,-241.174,37.532,-291.123,-394.632,-1926.500,495.760,-28.220
527,38520.901000,-0.489,69.818,-230.301,9.258,-286.987,-402.012,-1892.500,244.760,-73.220
528,38520.925000,-9.300,92.079,-222.394,-17.147,-275.132,-408.450,-1893.500,525.760,-93.220
529,38520.941000,49.438,102.198,-226.347,-29.912,-268.243,-409.216,-1968.500,875.760,-137.220
530,38520.967000,85.660,120.411,-245.127,-61.243,-260.216,-411.625,-2044.500,383.760,-230.220
531,38520.986000,-0.489,111.304,-254.023,-71.009,-267.869,-408.490,-1964.500,-288.240,-239.220
532,38521.9000,-43.564,129.518,-242.162,-99.577,-259.879,-401.102,-1907.500,309.760,-185.220
533,38521.22000,26.922,161.897,-231.290,-112.273,-254.922,-404.821,-1903.500,713.760,-195.220
534,38521.40000,90.554,188.206,-236.232,-134.893,-246.013,-402.463,-1947.500,800.760,-272.220
535,38521.62000,57.270,192.253,-228.324,-144.817,-243.996,-395.398,-1939.500,40.760,-274.220
536,38521.85000,-8.321,191.241,-220.417,-174.335,-246.642,-384.044,-1891.500,-241.240,-194.220
537,38521.102000,7.342,205.407,-214.486,-197.058,-239.674,-374.790,-1878.500,253.760,-135.220
538,38521.132000,69.996,224.632,-212.510,-212.767,-237.599,-372.546,-1894.500,356.760,-142.220
539,38521.152000,69.017,224.632,-218.440,-234.578,-240.323,-354.436,-1884.500,-223.240,-151.220
540,38521.175000,14.195,215.526,-221.405,-240.569,-244.148,-345.466,-1818.500,-477.240,-128.220
541,38521.186000,5.384,234.751,-210.533,-263.290,-248.795,-330.292,-1762.500,-108.240,-101.220
542,38521.199000,30.837,254.988,-223.382,-273.248,-246.780,-321.258,-1747.500,23.760,-104.220
543,38521.231000,59.228,257.012,-217.452,-288.212,-243.759,-306.230,-1675.500,102.760,-124.220
544,38521.251000,72.933,257.012,-206.579,-299.216,-247.547,-290.279,-1608.500,-36.240,-127.220
545,38521.271000,59.228,237.787,-217.452,-303.216,-249.452,-284.300,-1524.500,-370.240,-38.220
546,38521.294000,21.048,230.704,-220.417,-319.243,-252.234,-261.370,-1358.500,-517.240,78.780
547,38521.311000,12.237,254.988,-219.429,-327.193,-250.234,-255.325,-1224.500,-289.240,121.780
548,38521.340000,29.859,258.024,-222.394,-333.263,-251.160,-243.403,-1076.500,-135.240,115.780
549,38521.350000,35.732,239.810,-221.405,-339.238,-249.176,-238.378,-914.500,-265.240,151.780
550,38521.389000,22.027,236.775,-210.533,-351.204,-251.018,-224.382,-745.500,-520.240,157.780
551,38521.404000,-20.069,240.822,-210.533,-349.385,-254.915,-214.565,-661.500,-520.240,147.780
552,38521.421000,-43.564,244.870,-209.544,-358.295,-252.905,-209.487,-485.500,-110.240,98.780
553,38521.441000,-12.237,252.964,-195.707,-361.189,-248.036,-214.364,-333.500,464.760,68.780
554,38521.459000,18.111,249.929,-172.973,-360.237,-245.143,-214.384,-208.500,561.760,34.780
555,38521.481000,23.985,236.775,-162.100,-361.224,-244.167,-214.368,-124.500,303.760,19.780
556,38521.499000,1.468,226.656,-158.147,-356.324,-241.307,-216.427,-47.500,248.760,8.780
557,38521.521000,6.363,229.692,-146.286,-357.269,-237.425,-220.352,20.500,445.760,12.780
558,38521.546000,27.901,231.715,-132.448,-357.278,-236.457,-220.353,57.500,404.760,2.780
559,38521.584000,38.669,228.680,-124.541,-356.238,-239.367,-222.337,79.500,161.760,-12.220
560,38521.584000,35.732,224.632,-120.587,-356.248,-234.528,-224.312,86.500,58.760,-17.220
561,38521.604000,24.964,222.609,-115.645,-361.123,-236.418,-224.223,86.500,-23.240,-40.220
562,38521.621000,29.859,223.621,-111.691,-358.170,-236.444,-225.260,79.500,3.760,-41.220
563,38521.641000,36.711,224.632,-108.726,-358.196,-233.541,-225.263,72.500,-45.240,-37.220
564,38521.659000,33.774,221.597,-106.749,-361.053,-236.414,-228.162,67.500,-103.240,-26.220
565,38521.686000,28.880,222.609,-103.784,-355.155,-241.305,-227.276,61.500,-60.240,-17.220
566,38521.699000,27.901,225.644,-106.749,-356.100,-239.359,-230.215,47.500,2.760,-14.220
567,38521.726000,24.964,223.621,-111.691,-352.203,-239.395,-229.300,27.500,103.760,-4.220
568,38521.744000,40.627,221.597,-118.610,-359.070,-237.398,-229.181,20.500,41.760,-12.220
569,38521.761000,45.522,227.668,-132.448,-357.087,-238.382,-230.199,32.500,-43.240,-21.220
570,38521.791000,34.753,227.668,-147.274,-353.191,-236.483,-230.270,68.500,-111.240,-31.220
571,38521.809000,36.711,229.692,-170.996,-357.078,-239.350,-230.198,152.500,-72.240,-27.220
572,38521.826000,44.543,229.692,-189.776,-351.163,-242.304,-231.284,280.500,-152.240,-16.220
573,38521.844000,41.606,236.775,-210.533,-352.045,-247.130,-234.216,435.500,-257.240,-22.220
574,38521.857000,29.859,245.881,-239.197,-341.196,-245.287,-240.317,637.500,-226.240,-13.220
575,38521.885000,34.753,256.000,-260.942,-345.968,-243.300,-248.110,873.500,-180.240,21.780
576,38521.912000,40.627,264.095,-277.745,-325.271,-248.318,-254.377,1126.500,-230.240,62.780
577,38521.930000,35.732,277.249,-298.502,-326.111,-250.237,-261.251,1408.500,-170.240,110.780
578,38521.952000,23.006,285.344,-311.351,-307.278,-246.521,-277.340,1561.500,-77.240,139.780
579,38521.972000,20.069,285.344,-314.317,-298.255,-249.492,-288.325,1834.500,130.760,215.780
580,38522.11000,35.732,293.439,-315.305,-289.138,-245.683,-308.180,2093.500,144.760,286.780
581,38522.20000,37.690,299.510,-315.305,-261.368,-244.943,-330.330,2344.500,46.760,311.780
582,38522.41000,31.816,297.486,-309.375,-244.544,-241.212,-343.430,2550.500,65.760,331.780
583,38522.55000,27.901,289.391,-296.525,-213.831,-239.531,-366.618,2743.500,30.760,338.780
584,38522.75000,33.774,285.344,-282.687,-196.989,-241.606,-377.742,2882.500,-6.240,392.780
585,38522.97000,39.648,274.213,-267.861,-158.559,-242.906,-393.188,2990.500,-142.240,413.780
586,38522.112000,33.774,260.047,-255.012,-141.828,-247.891,-396.431,3065.500,-237.240,358.780
587,38522.141000,21.048,240.822,-244.139,-96.618,-251.193,-407.072,3079.500,-363.240,327.780
588,38522.159000,26.922,224.632,-230.301,-82.797,-253.247,-413.221,3089.500,-305.240,328.780
589,38522.189000,31.816,201.360,-208.556,-33.750,-261.428,-417.032,3094.500,-278.240,334.780
590,38522.192000,35.732,175.051,-198.672,0.568,-267.543,-418.617,3056.500,-345.240,308.780
591,38522.220000,24.964,151.779,-189.776,24.928,-273.578,-410.180,2991.500,-481.240,245.780
592,38522.237000,19.090,133.565,-177.915,76.722,-285.669,-401.238,2924.500,-460.240,181.780
593,38522.254000,23.006,109.281,-166.054,85.417,-288.659,-393.513,2854.500,-343.240,146.780
594,38522.275000,33.774,79.937,-150.239,121.493,-295.770,-383.314,2747.500,-354.240,150.780
595,38522.297000,25.943,56.664,-132.448,146.744,-297.948,-371.945,2648.500,-442.240,119.780
596,38522.319000,16.153,34.403,-124.541,178.785,-306.967,-353.796,2588.500,-549.240,99.780
597,38522.336000,13.216,8.095,-120.587,209.718,-315.016,-328.738,2478.500,-470.240,39.780
598,38522.357000,11.258,-15.178,-113.668,219.375,-319.952,-319.059,2349.500,-335.240,19.780
599,38522.379000,13.216,-40.474,-104.772,243.484,-325.034,-296.837,2222.500,-248.240,29.780
600,38522.405000,24.964,-61.723,-103.784,255.044,-326.119,-286.211,2073.500,-300.240,50.780
601,38522.421000,11.258,-83.984,-96.865,276.227,-334.077,-262.950,1968.500,-422.240,25.780
602,38522.441000,-0.489,-103.209,-97.853,286.809,-337.089,-251.320,1830.500,-369.240,14.780
603,38522.463000,1.468,-120.411,-94.888,305.973,-340.193,-227.044,1709.500,-299.240,12.780
604,38522.499000,-3.426,-134.577,-85.992,317.431,-345.156,-208.537,1650.500,-264.240,3.780
605,38522.512000,0.489,-145.708,-75.120,323.102,-340.381,-199.782,1502.500,-163.240,3.780
606,38522.541000,8.321,-159.874,-75.120,328.689,-345.290,-181.171,1360.500,-131.240,11.780
607,38522.556000,3.426,-173.028,-63.259,343.288,-346.396,-176.506,1222.500,-200.240,7.780
608,38522.574000,-8.321,-181.123,-51.398,349.766,-349.382,-153.974,1069.500,-144.240,26.780
609,38522.605000,-8.321,-193.265,-46.456,346.770,-348.391,-150.969,906.500,-40.240,57.780
610,38522.620000,0.489,-201.360,-40.525,351.534,-351.347,-142.190,737.500,-74.240,75.780
611,38522.634000,2.447,-204.395,-37.560,355.396,-351.385,-139.305,557.500,-208.240,60.780
612,38522.659000,-7.342,-212.490,-43.490,354.201,-352.356,-126.485,390.500,-296.240,52.780
613,38522.671000,-13.216,-218.561,-50.409,359.978,-355.319,-119.692,313.500,-293.240,49.780
614,38522.704000,-16.153,-221.597,-62.270,360.004,-358.221,-119.689,171.500,-283.240,53.780
615,38522.721000,-17.132,-221.597,-71.166,355.978,-357.224,-113.712,58.500,-254.240,55.780
616,38522.741000,-15.174,-216.538,-84.015,349.137,-358.129,-113.590,-34.500,-265.240,34.780
617,38522.761000,-23.985,-214.514,-98.842,348.116,-359.090,-110.618,-89.500,-279.240,18.780
618,38522.779000,-30.837,-215.526,-106.749,358.801,-358.225,-106.870,-125.500,-186.240,11.780
619,38522.800000,-31.816,-211.478,-113.668,347.111,-360.051,-108.630,-153.500,-44.240,5.780
620,38522.815000,-34.753,-211.478,-125.529,352.134,-362.992,-114.622,-161.500,92.760,6.780
621,38522.840000,-23.985,-210.466,-125.529,352.125,-358.153,-116.596,-172.500,173.760,-6.220
622,38522.860000,-20.069,-209.455,-129.483,353.173,-360.094,-119.566,-180.500,177.760,-23.220
623,38522.883000,-11.258,-207.431,-135.413,343.404,-356.132,-122.351,-203.500,194.760,-22.220
624,38522.905000,-5.384,-208.443,-138.378,345.448,-358.081,-126.323,-222.500,112.760,-12.220
625,38522.948000,-6.363,-203.383,-142.332,350.348,-353.285,-129.369,-229.500,20.760,-11.220
626,38522.961000,-15.174,-200.348,-138.378,356.306,-357.205,-132.423,-231.500,21.760,-9.220
627,38522.961000,-13.216,-200.348,-136.402,348.600,-359.063,-138.191,-249.500,73.760,-3.220
628,38522.984000,-10.279,-199.336,-128.494,340.763,-356.089,-139.040,-273.500,106.760,8.780
629,38523.6000,-14.195,-196.300,-115.645,348.729,-356.152,-147.057,-323.500,188.760,20.780
630,38523.32000,-9.300,-194.277,-99.830,340.936,-358.015,-147.901,-404.500,230.760,29.780
631,38523.54000,-3.426,-191.241,-85.004,340.131,-357.996,-157.732,-462.500,212.760,29.780
632,38523.72000,-3.426,-188.206,-71.166,339.221,-354.112,-163.627,-591.500,124.760,31.780
633,38523.92000,-8.321,-182.134,-63.259,335.436,-351.165,-172.423,-756.500,93.760,36.780
634,38523.110000,-11.258,-178.087,-56.340,324.785,-352.029,-178.141,-928.500,112.760,51.780
635,38523.132000,-8.321,-171.004,-51.398,315.259,-349.990,-193.726,-1132.500,19.760,46.780
636,38523.145000,-10.279,-159.874,-48.432,300.859,-351.776,-208.236,-1329.500,-145.240,21.780
637,38523.175000,-17.132,-150.767,-50.409,296.098,-356.564,-213.068,-1543.500,-278.240,-7.220
638,38523.194000,-21.048,-134.577,-69.189,283.618,-352.563,-228.603,-1707.500,-401.240,-31.220
639,38523.217000,-32.795,-118.387,-93.900,284.710,-353.534,-234.528,-1814.500,-404.240,-41.220
640,38523.236000,-40.627,-104.221,-105.761,259.581,-357.156,-249.830,-1853.500,-335.240,-42.220
641,38523.268000,-37.690,-86.008,-107.737,248.982,-358.017,-258.502,-1968.500,-138.240,-49.220
642,38523.281000,-34.753,-66.783,-122.564,227.748,-351.997,-277.822,-2080.500,14.760,-74.220
643,38523.300000,-23.985,-53.628,-149.251,205.519,-347.906,-295.154,-2172.500,158.760,-66.220
644,38523.317000,-16.153,-34.403,-162.100,195.950,-346.836,-307.784,-2213.500,265.760,-47.220
645,38523.340000,-12.237,7.083,-166.054,168.896,-338.825,-330.942,-2238.500,442.760,-55.220
646,38523.356000,24.964,8.095,-192.741,150.399,-333.811,-338.496,-2350.500,603.760,-32.220
647,38523.369000,43.564,33.391,-216.463,117.327,-326.722,-352.686,-2417.500,275.760,-43.220
648,38523.396000,3.426,53.628,-219.429,102.727,-323.680,-358.338,-2350.500,-84.240,-32.220
649,38523.414000,0.489,71.842,-215.475,76.446,-323.432,-365.749,-2326.500,19.760,-20.220
650,38523.437000,41.606,88.032,-230.301,38.439,-315.333,-377.884,-2392.500,354.760,59.780
651,38523.459000,28.880,107.257,-250.069,24.774,-313.271,-380.598,-2412.500,81.760,93.780
652,38523.475000,-19.090,123.447,-255.012,-4.590,-312.037,-380.080,-2295.500,-116.240,95.780
653,38523.502000,-12.237,125.470,-247.104,-19.251,-308.031,-382.778,-2224.500,327.760,119.780
654,38523.519000,32.795,149.755,-254.023,-60.332,-299.913,-386.983,-2290.500,592.760,88.780
655,38523.541000,11.258,159.874,-264.896,-71.235,-295.951,-380.888,-2247.500,258.760,19.780
656,38523.569000,-18.111,165.945,-252.046,-103.509,-291.785,-383.275,-2156.500,409.760,49.780
657,38523.584000,6.363,184.158,-235.243,-135.932,-278.916,-381.732,-2155.500,782.760,16.780
658,38523.605000,41.606,194.277,-229.313,-147.761,-276.879,-377.588,-2165.500,782.760,-4.220
659,38523.625000,46.501,209.455,-227.336,-173.411,-270.852,-368.281,-2174.500,381.760,-31.220
660,38523.662000,12.237,230.704,-229.313,-192.167,-267.788,-360.077,-2156.500,-40.240,-60.220
661,38523.676000,-14.195,239.810,-222.394,-216.864,-262.740,-348.817,-2090.500,50.760,-104.220
662,38523.691000,5.384,241.834,-207.568,-224.831,-260.740,-341.787,-2073.500,430.760,-85.220
663,38523.696000,50.417,257.012,-198.672,-249.484,-260.529,-330.522,-2118.500,321.760,-98.220
664,38523.736000,48.459,268.142,-206.579,-263.391,-258.480,-319.449,-2106.500,-321.240,-125.220
665,38523.739000,-3.426,258.024,-204.602,-283.279,-265.095,-297.432,-2021.500,-690.240,-100.220
666,38523.764000,-37.690,276.237,-186.811,-298.337,-266.919,-274.521,-1949.500,-385.240,-51.220
667,38523.780000,-25.943,279.273,-169.019,-314.191,-267.756,-262.426,-1921.500,-140.240,-35.220
668,38523.801000,30.837,264.095,-188.788,-327.326,-269.599,-237.580,-1991.500,-160.240,3.780
669,38523.819000,23.006,291.415,-193.730,-333.360,-274.395,-225.654,-1938.500,-1019.240,-125.220
670,38523.837000,-48.459,291.415,-200.649,-340.656,-287.908,-193.022,-1795.500,-1419.240,-235.220
671,38523.865000,-64.122,270.166,-211.521,-350.657,-290.735,-179.060,-1671.500,-834.240,-255.220
672,38523.879000,-9.300,293.439,-217.452,-356.925,-294.576,-154.333,-1514.500,-482.240,-296.220
673,38523.905000,-10.279,303.557,-216.463,-355.279,-296.547,-135.655,-1264.500,-583.240,-317.220
674,38523.931000,-40.627,284.332,-204.602,-359.270,-299.419,-129.675,-1030.500,-117.240,-238.220
675,38523.954000,-16.153,265.107,-175.938,-356.394,-302.353,-124.800,-858.500,553.760,-85.220
676,38523.977000,24.964,247.905,-153.205,-361.382,-299.410,-120.777,-785.500,694.760,-14.220
677,38523.995000,47.480,235.763,-136.402,-372.234,-291.574,-119.610,-669.500,590.760,121.780
678,38524.16000,47.480,231.715,-130.471,-371.282,-292.553,-117.657,-579.500,166.760,188.780
679,38524.39000,28.880,245.881,-128.494,-371.403,-292.559,-110.763,-487.500,-263.240,169.780
680,38524.61000,-4.405,253.976,-127.506,-371.559,-288.697,-103.874,-377.500,-295.240,152.780
681,38524.81000,-16.153,257.012,-116.633,-376.478,-287.686,-102.804,-281.500,-51.240,158.780
682,38524.100000,-4.405,260.047,-107.737,-376.470,-286.717,-103.789,-203.500,85.760,189.780
683,38524.120000,-8.321,258.024,-103.784,-382.402,-283.764,-101.719,-140.500,67.760,189.780
684,38524.140000,-18.111,257.012,-100.819,-384.437,-282.782,-97.746,-104.500,62.760,203.780
685,38524.164000,-22.027,246.893,-98.842,-378.558,-279.932,-99.823,-45.500,63.760,205.780
686,38524.178000,-22.027,249.929,-93.900,-383.416,-279.885,-101.706,-2.500,-71.240,162.780
687,38524.200000,-24.964,251.953,-95.876,-384.490,-278.914,-96.765,48.500,-275.240,58.780
688,38524.220000,-35.732,248.917,-94.888,-383.493,-282.793,-95.794,105.500,-242.240,-44.220
689,38524.240000,-26.922,249.929,-87.969,-382.480,-282.800,-97.781,131.500,-57.240,-84.220
690,38524.257000,-2.447,254.988,-79.073,-377.509,-283.808,-101.805,153.500,-79.240,-90.220
691,38524.280000,-2.447,249.929,-78.085,-382.376,-284.730,-102.703,170.500,-71.240,-81.220
692,38524.302000,0.489,250.941,-76.108,-378.496,-284.768,-100.802,184.500,2.760,-51.220
693,38524.320000,8.321,247.905,-71.166,-373.544,-283.841,-104.829,194.500,-4.240,-49.220
694,38524.340000,18.111,245.881,-69.189,-380.349,-284.744,-106.676,208.500,-101.240,-34.220
695,38524.363000,18.111,244.870,-76.108,-380.409,-287.651,-101.750,216.500,-316.240,-57.220
696,38524.385000,-3.426,244.870,-92.911,-376.399,-292.521,-104.768,228.500,-315.240,-86.220
697,38524.410000,-7.342,256.000,-114.656,-372.485,-292.556,-104.837,257.500,-135.240,-102.220
698,38524.425000,-1.468,257.012,-142.332,-376.364,-292.519,-106.738,370.500,-138.240,-105.220
699,38524.447000,-18.111,258.024,-173.961,-372.346,-294.484,-111.729,533.500,-127.240,-118.220
700,38524.475000,-25.943,268.142,-210.533,-366.301,-298.400,-119.707,768.500,-46.240,-141.220
701,38524.494000,-36.711,278.261,-236.232,-365.227,-299.371,-124.647,1060.500,63.760,-160.220
702,38524.513000,-47.480,288.379,-256.000,-354.126,-300.418,-143.547,1215.500,148.760,-172.220
703,38524.535000,-50.417,302.545,-266.873,-347.876,-296.578,-167.289,1526.500,376.760,-173.220
704,38524.555000,-44.543,316.711,-276.757,-339.805,-298.571,-180.227,1832.500,574.760,-151.220
705,38524.572000,-35.732,324.806,-274.780,-322.687,-296.760,-209.081,2118.500,688.760,-103.220
706,38524.594000,-20.069,328.854,-261.931,-317.544,-293.886,-224.927,2351.500,641.760,-36.220
707,38524.613000,-10.279,335.937,-245.127,-296.460,-292.107,-256.804,2501.500,458.760,7.780
708,38524.637000,-6.363,324.806,-231.290,-281.592,-294.166,-266.910,2594.500,183.760,14.780
709,38524.652000,-7.342,308.617,-233.266,-257.657,-296.289,-291.942,2662.500,-31.240,-20.220
710,38524.675000,-3.426,301.534,-230.301,-242.824,-298.350,-300.078,2742.500,-199.240,-93.220
711,38524.695000,-9.300,292.427,-225.359,-208.203,-303.480,-319.389,2785.500,-287.240,-134.220
712,38524.712000,-20.069,280.285,-224.371,-171.694,-312.503,-332.822,2841.500,-388.240,-211.220
713,38524.737000,-19.090,264.095,-224.371,-157.830,-315.522,-340.939,2858.500,-296.240,-209.220
714,38524.754000,-24.964,246.893,-215.475,-120.464,-322.625,-348.483,2885.500,-241.240,-200.220
715,38524.775000,-17.132,226.656,-211.521,-99.820,-323.774,-353.770,2884.500,-136.240,-180.220
716,38524.808000,-10.279,205.407,-213.498,-59.607,-325.102,-359.402,2855.500,-107.240,-184.220
717,38524.826000,-19.090,184.158,-204.602,-45.873,-327.160,-360.627,2851.500,-129.240,-205.220
718,38524.835000,-23.985,156.838,-202.625,-4.731,-334.307,-360.362,2798.500,-68.240,-204.220
719,38524.863000,-28.880,135.589,-201.637,45.207,-336.694,-362.227,2774.500,37.760,-194.220
720,38524.880000,-29.859,118.387,-195.707,55.806,-335.833,-353.556,2763.500,97.760,-178.220
721,38524.902000,-23.985,98.150,-189.776,94.859,-336.194,-349.324,2738.500,239.760,-176.220
722,38524.930000,-17.132,76.901,-183.846,114.376,-332.504,-348.689,2702.500,330.760,-150.220
723,38524.934000,-17.132,55.652,-172.973,150.451,-335.744,-340.463,2644.500,294.760,-132.220
724,38524.966000,-11.258,32.379,-168.031,162.037,-333.923,-332.795,2553.500,210.760,-148.220
725,38524.981000,-4.405,16.190,-166.054,196.976,-329.420,-319.636,2468.500,146.760,-197.220
726,38525.1000,2.447,0.000,-163.089,224.106,-330.653,-304.363,2381.500,170.760,-210.220
727,38525.21000,16.153,-16.190,-154.193,244.480,-328.913,-295.866,2309.500,165.760,-189.220
728,38525.39000,19.090,-35.415,-135.413,264.640,-330.090,-273.579,2224.500,121.760,-140.220
729,38525.66000,20.069,-54.640,-127.506,277.187,-330.215,-263.956,2180.500,5.760,-123.220
730,38525.91000,13.216,-71.842,-127.506,302.196,-334.343,-237.813,2086.500,-118.240,-61.220
731,38525.111000,16.153,-88.032,-116.633,306.898,-332.462,-228.054,1989.500,-141.240,-20.220
732,38525.126000,19.090,-105.233,-109.714,327.975,-332.683,-202.831,1887.500,-255.240,-12.220
733,38525.141000,4.405,-123.447,-93.900,333.631,-337.588,-188.158,1790.500,-320.240,-23.220
734,38525.164000,7.342,-140.648,-85.992,351.877,-339.713,-167.805,1643.500,-255.240,-19.220
735,38525.179000,7.342,-149.755,-76.108,358.224,-339.803,-139.368,1522.500,-234.240,-18.220
736,38525.205000,1.468,-166.957,-62.270,358.156,-343.679,-133.456,1395.500,-198.240,-1.220
737,38525.227000,-0.489,-180.111,-46.456,363.682,-345.687,-112.878,1320.500,-165.240,10.780
738,38525.269000,1.468,-190.229,-36.571,374.315,-344.825,-106.176,1165.500,-128.240,14.780
739,38525.282000,-2.447,-200.348,-30.641,375.008,-345.817,-89.451,1004.500,-119.240,14.780
740,38525.296000,-4.405,-211.478,-27.676,379.789,-348.772,-81.657,832.500,-160.240,24.780
741,38525.310000,-8.321,-216.538,-23.722,379.598,-344.911,-72.798,661.500,-202.240,26.780
742,38525.339000,-9.300,-223.621,-29.653,381.383,-348.810,-61.011,487.500,-227.240,14.780
743,38525.354000,-16.153,-225.644,-37.560,378.377,-346.852,-58.007,351.500,-247.240,-1.220
744,38525.381000,-22.027,-227.668,-38.548,388.085,-347.913,-53.255,218.500,-163.240,-1.220
745,38525.401000,-15.174,-228.680,-49.421,383.158,-347.870,-51.199,89.500,-160.240,-30.220
746,38525.420000,-17.132,-229.692,-66.224,383.036,-345.941,-45.293,48.500,-188.240,-35.220
747,38525.437000,-22.027,-228.680,-68.201,379.175,-349.774,-46.204,-7.500,-182.240,-26.220
748,38525.457000,-21.048,-227.668,-72.154,381.140,-348.824,-47.225,-82.500,-119.240,-19.220
749,38525.466000,-19.090,-227.668,-85.992,380.144,-346.880,-47.209,-132.500,-109.240,-37.220
750,38525.495000,-17.132,-227.668,-96.865,384.111,-348.849,-49.246,-153.500,-55.240,-36.220
751,38525.516000,-13.216,-224.632,-102.795,383.158,-347.870,-51.199,-167.500,-25.240,-41.220
752,38525.539000,-14.195,-225.644,-100.819,383.158,-349.806,-50.212,-184.500,23.760,-30.220
753,38525.559000,-9.300,-224.632,-96.865,384.232,-348.842,-56.139,-226.500,120.760,-24.220
754,38525.581000,-2.447,-223.621,-93.900,376.437,-342.961,-60.931,-278.500,205.760,-1.220
755,38525.604000,5.384,-221.597,-80.062,378.507,-343.941,-66.873,-309.500,231.760,4.780
756,38525.634000,8.321,-218.561,-62.270,380.567,-343.953,-72.816,-399.500,282.760,24.780
757,38525.664000,17.132,-212.490,-57.328,375.891,-344.864,-84.546,-514.500,271.760,77.780
758,38525.673000,10.279,-204.395,-50.409,377.087,-349.700,-94.406,-618.500,172.760,135.780
759,38525.673000,1.468,-205.407,-47.444,368.359,-348.648,-99.175,-743.500,153.760,194.780
760,38525.700000,-8.321,-200.348,-42.502,363.752,-349.555,-114.843,-853.500,185.760,252.780
761,38525.719000,-23.985,-203.383,-57.328,354.079,-348.492,-121.565,-957.500,240.760,299.780
762,38525.737000,-32.795,-200.348,-74.131,345.576,-349.362,-138.149,-1024.500,341.760,312.780
763,38525.762000,-32.795,-180.111,-73.143,346.737,-352.265,-147.026,-1067.500,404.760,273.780
764,38525.785000,-31.816,-160.885,-72.154,335.462,-352.132,-173.407,-1193.500,536.760,240.780
765,38525.794000,-30.837,-145.708,-86.981,323.137,-344.250,-199.778,-1336.500,670.760,139.780
766,38525.821000,-22.027,-136.601,-98.842,309.672,-345.081,-212.337,-1453.500,768.760,59.780
767,38525.844000,-14.195,-134.577,-111.691,299.209,-334.319,-234.807,-1566.500,757.760,-24.220
768,38525.861000,-5.384,-119.399,-114.656,293.623,-331.346,-252.432,-1666.500,681.760,-121.220
769,38525.889000,-2.447,-93.091,-111.691,277.349,-321.495,-277.751,-1798.500,581.760,-185.220
770,38525.906000,12.237,-82.972,-140.355,269.667,-316.576,-288.450,-1900.500,312.760,-204.220
771,38525.924000,19.090,-86.008,-161.112,253.343,-312.536,-307.855,-1934.500,176.760,-230.220
772,38525.946000,-9.300,-61.723,-159.135,240.831,-312.408,-319.447,-1952.500,300.760,-239.220
773,38525.967000,-4.405,-32.379,-153.205,211.715,-298.577,-339.622,-2027.500,562.760,-254.220
774,38525.995000,37.690,-29.344,-211.521,190.455,-293.527,-356.972,-2088.500,400.760,-262.220
775,38526.10000,5.384,-7.083,-215.475,182.817,-291.509,-368.652,-2085.500,120.760,-298.220
776,38526.27000,3.426,15.178,-204.602,152.645,-282.513,-381.912,-2061.500,360.760,-310.220
777,38526.65000,47.480,34.403,-221.405,141.005,-274.658,-391.559,-2103.500,602.760,-360.220
778,38526.85000,57.270,37.439,-235.243,110.826,-266.630,-403.833,-2123.500,274.760,-384.220
779,38526.102000,20.069,53.628,-232.278,102.105,-264.609,-409.587,-2095.500,29.760,-413.220
780,38526.116000,17.132,74.877,-221.405,68.878,-255.593,-415.901,-2081.500,372.760,-417.220
781,38526.140000,50.417,83.984,-233.266,46.492,-247.639,-426.344,-2101.500,534.760,-412.220
782,38526.154000,71.954,90.055,-234.255,31.761,-243.636,-425.103,-2152.500,408.760,-378.220
783,38526.191000,30.837,106.245,-230.301,-0.529,-241.407,-425.519,-2154.500,-15.240,-386.220
784,38526.199000,11.258,129.518,-217.452,-19.060,-240.267,-429.130,-2126.500,142.760,-424.220
785,38526.217000,30.837,142.672,-222.394,-51.440,-230.299,-428.569,-2167.500,575.760,-414.220
786,38526.236000,72.933,144.696,-219.429,-62.213,-225.362,-430.353,-2214.500,601.760,-442.220
787,38526.259000,76.849,175.051,-226.347,-93.664,-221.214,-423.895,-2270.500,209.760,-545.220
788,38526.276000,20.069,185.170,-230.301,-109.355,-221.073,-421.648,-2218.500,57.760,-609.220
789,38526.299000,21.048,192.253,-214.486,-133.974,-215.052,-415.313,-2214.500,594.760,-537.220
790,38526.325000,104.260,218.561,-203.614,-166.475,-203.156,-408.845,-2265.500,715.760,-523.220
791,38526.339000,102.302,233.739,-227.336,-182.207,-207.857,-401.670,-2333.500,98.760,-555.220
792,38526.359000,20.069,233.739,-225.359,-209.828,-215.364,-384.437,-2246.500,-519.240,-503.220
793,38526.396000,4.405,249.929,-213.498,-217.821,-214.334,-375.437,-2165.500,-8.240,-408.220
794,38526.410000,67.059,256.000,-210.533,-242.534,-215.094,-360.232,-2152.500,276.760,-328.220
795,38526.437000,61.185,260.047,-209.544,-259.305,-218.822,-350.086,-2076.500,-301.240,-280.220
796,38526.444000,-32.795,273.202,-215.475,-278.208,-220.606,-331.045,-1936.500,-259.240,-290.220
797,38526.463000,-43.564,270.166,-211.521,-294.159,-214.673,-316.988,-1879.500,822.760,-259.220
798,38526.491000,74.891,256.000,-216.463,-309.920,-210.665,-312.776,-1851.500,1149.760,-234.220
799,38526.506000,124.818,274.213,-199.660,-322.917,-212.501,-295.808,-1789.500,353.760,-303.220
800,38526.525000,15.174,285.344,-212.510,-325.114,-218.304,-279.026,-1664.500,-863.240,-455.220
801,38526.551000,-25.943,274.213,-227.336,-333.182,-225.989,-261.154,-1517.500,-459.240,-425.220
802,38526.576000,27.901,282.308,-213.498,-338.091,-229.818,-258.110,-1357.500,212.760,-395.220
803,38526.580000,45.522,277.249,-211.521,-348.101,-231.677,-244.148,-1181.500,123.760,-372.220
804,38526.602000,26.922,263.083,-197.683,-352.101,-231.646,-239.155,-961.500,102.760,-313.220
805,38526.625000,24.964,266.119,-176.927,-355.210,-229.694,-230.242,-799.500,283.760,-267.220
806,38526.652000,26.922,259.036,-158.147,-353.322,-231.651,-225.351,-685.500,529.760,-204.220
807,38526.670000,28.880,250.941,-144.309,-359.193,-229.662,-226.234,-647.500,655.760,-173.220
808,38526.698000,57.270,233.739,-138.378,-359.325,-220.958,-223.289,-537.500,703.760,-117.220
809,38526.715000,70.975,236.775,-133.436,-362.303,-223.838,-219.295,-439.500,266.760,-145.220
810,38526.732000,30.837,249.929,-137.390,-370.139,-226.671,-217.184,-334.500,-154.240,-211.220
811,38526.755000,10.279,252.964,-135.413,-362.328,-228.679,-215.351,-229.500,76.760,-202.220
812,38526.773000,35.732,252.964,-120.587,-366.182,-227.672,-219.222,-142.500,277.760,-154.220
813,38526.789000,50.417,251.953,-108.726,-365.256,-225.748,-217.271,-73.500,104.760,-125.220
814,38526.803000,35.732,248.917,-103.784,-361.331,-232.558,-214.379,-12.500,34.760,-93.220
815,38526.830000,26.922,246.893,-97.853,-363.272,-228.668,-217.303,22.500,145.760,-53.220
816,38526.858000,33.774,241.834,-92.911,-364.251,-226.723,-218.272,31.500,163.760,-41.220
817,38526.872000,39.648,242.846,-88.958,-366.156,-226.702,-221.192,53.500,71.760,-40.220
818,38526.895000,35.732,240.822,-85.992,-362.251,-225.770,-221.262,70.500,-6.240,-36.220
819,38526.917000,35.732,238.798,-86.981,-360.327,-229.662,-217.354,74.500,-46.240,-26.220
820,38526.935000,38.669,241.834,-96.865,-363.220,-228.665,-220.257,88.500,-113.240,-10.220
821,38526.958000,36.711,248.917,-104.772,-363.159,-231.565,-222.224,122.500,-161.240,-0.220
822,38526.979000,39.648,249.929,-115.645,-360.214,-232.559,-222.275,172.500,-181.240,2.780
823,38527.0,40.627,251.953,-128.494,-358.240,-232.576,-223.294,253.500,-193.240,23.780
824,38527.22000,42.585,252.964,-139.367,-359.175,-233.533,-225.245,356.500,-181.240,71.780
825,38527.39000,40.627,253.976,-150.239,-352.326,-231.659,-226.353,415.500,-175.240,96.780
826,38527.60000,36.711,259.036,-162.100,-352.161,-232.618,-235.215,547.500,-73.240,147.780
827,38527.82000,47.480,263.083,-175.938,-349.191,-232.642,-237.237,692.500,84.760,209.780
828,38527.99000,55.312,263.083,-183.846,-350.007,-227.785,-249.041,847.500,149.760,283.780
829,38527.115000,63.143,265.107,-193.730,-345.903,-223.938,-261.916,1008.500,106.760,333.780
830,38527.140000,60.207,267.130,-208.556,-336.967,-223.043,-269.951,1200.500,60.760,391.780
831,38527.173000,45.522,266.119,-209.544,-329.029,-214.397,-280.931,1362.500,132.760,418.780
832,38527.191000,44.543,278.261,-211.521,-319.046,-213.507,-292.922,1510.500,174.760,465.780
833,38527.210000,64.122,294.451,-227.336,-306.085,-205.865,-310.880,1704.500,77.760,558.780
834,38527.232000,65.101,292.427,-244.139,-301.003,-203.963,-322.786,1804.500,49.760,605.780
835,38527.252000,54.333,298.498,-247.104,-281.140,-198.317,-342.833,1984.500,113.760,679.780
836,38527.270000,48.459,300.522,-238.208,-262.266,-189.759,-363.850,2144.500,217.760,740.780
837,38527.293000,54.333,294.451,-226.347,-245.416,-186.995,-377.934,2254.500,277.760,783.780
838,38527.321000,71.954,287.368,-217.452,-225.745,-175.552,-390.109,2318.500,119.760,821.780
839,38527.330000,76.849,278.261,-212.510,-210.860,-175.674,-402.186,2363.500,-146.240,843.780
840,38527.347000,63.143,258.024,-214.486,-180.240,-178.837,-417.490,2386.500,-273.240,858.780
841,38527.375000,69.017,240.822,-217.452,-166.456,-177.021,-423.643,2413.500,-326.240,834.780
842,38527.390000,68.038,219.573,-228.324,-137.827,-182.105,-435.957,2450.500,-375.240,825.780
843,38527.411000,62.164,210.466,-233.266,-116.283,-184.235,-436.336,2467.500,-487.240,804.780
844,38527.428000,51.396,195.289,-230.301,-83.800,-192.261,-443.792,2512.500,-528.240,767.780
845,38527.446000,43.564,182.134,-224.371,-46.555,-199.371,-444.443,2537.500,-454.240,731.780
846,38527.465000,52.375,163.921,-217.452,-33.764,-205.290,-445.647,2536.500,-345.240,701.780
847,38527.491000,52.375,142.672,-212.510,1.446,-213.355,-441.338,2523.500,-381.240,695.780
848,38527.511000,45.522,124.459,-210.533,18.177,-216.404,-445.568,2497.500,-455.240,682.780
849,38527.539000,39.648,107.257,-196.695,54.296,-224.481,-437.338,2472.500,-450.240,660.780
850,38527.562000,39.648,88.032,-184.834,72.871,-228.523,-434.708,2410.500,-458.240,624.780
851,38527.581000,32.795,63.747,-178.903,107.927,-242.403,-418.577,2379.500,-504.240,559.780
852,38527.612000,26.922,45.534,-185.822,137.294,-255.252,-413.174,2309.500,-591.240,521.780
853,38527.626000,20.069,26.308,-194.718,145.842,-261.155,-395.599,2272.500,-618.240,466.780
854,38527.641000,17.132,10.119,-190.764,177.945,-273.074,-379.417,2261.500,-554.240,407.780
855,38527.661000,26.922,4.047,-183.846,190.519,-276.101,-369.791,2213.500,-483.240,337.780
856,38527.679000,20.069,-9.107,-180.880,217.634,-287.013,-348.600,2164.500,-510.240,276.780
857,38527.701000,13.216,-30.356,-175.938,230.236,-296.815,-336.998,2120.500,-450.240,266.780
858,38527.739000,19.090,-50.593,-169.019,256.336,-299.977,-317.767,2052.500,-423.240,261.780
859,38527.741000,19.090,-64.759,-155.181,260.877,-312.624,-291.253,2010.500,-524.240,213.780
860,38527.763000,13.216,-77.913,-140.355,279.270,-315.708,-278.776,1980.500,-562.240,188.780
861,38527.778000,11.258,-91.067,-130.471,302.305,-319.818,-251.615,1895.500,-550.240,148.780
862,38527.794000,8.321,-102.198,-109.714,311.945,-326.690,-239.964,1801.500,-495.240,136.780
863,38527.821000,-1.468,-118.387,-94.888,323.377,-334.558,-218.499,1711.500,-368.240,128.780
864,38527.839000,-0.489,-134.577,-79.073,326.036,-334.600,-202.794,1581.500,-270.240,125.780
865,38527.861000,2.447,-147.731,-59.305,340.421,-340.558,-183.353,1436.500,-270.240,120.780
866,38527.884000,5.384,-159.874,-52.386,342.161,-337.684,-172.558,1241.500,-330.240,94.780
867,38527.911000,-4.405,-175.051,-50.409,348.787,-345.502,-155.930,1092.500,-451.240,86.780
868,38527.926000,-15.174,-189.217,-45.467,351.411,-345.546,-138.257,928.500,-419.240,79.780
869,38527.946000,-20.069,-201.360,-41.514,360.149,-349.502,-132.500,853.500,-392.240,70.780
870,38527.964000,-19.090,-208.443,-46.456,361.778,-351.474,-112.837,704.500,-339.240,28.780
871,38527.978000,-15.174,-212.490,-49.421,367.589,-352.499,-109.001,581.500,-317.240,-3.220
872,38528.25000,-17.132,-219.573,-58.317,361.571,-355.357,-99.047,466.500,-360.240,-19.220
873,38528.39000,-25.943,-218.561,-60.293,363.450,-354.411,-95.143,364.500,-340.240,-36.220
874,38528.48000,-27.901,-221.597,-64.247,369.174,-353.505,-87.370,266.500,-227.240,-47.220
875,38528.70000,-24.964,-221.597,-68.201,371.097,-355.461,-84.448,176.500,-133.240,-63.220
876,38528.93000,-16.153,-224.632,-74.131,372.058,-355.471,-83.481,91.500,-142.240,-73.220
877,38528.115000,-17.132,-222.609,-82.039,371.962,-352.572,-79.545,27.500,-162.240,-71.220
878,38528.138000,-20.069,-222.609,-83.027,371.010,-355.466,-79.525,-3.500,-135.240,-66.220
879,38528.163000,-12.237,-221.597,-90.934,365.122,-353.477,-79.423,-64.500,-115.240,-58.220
880,38528.178000,-16.153,-220.585,-95.876,375.893,-352.607,-80.599,-108.500,-117.240,-48.220
881,38528.200000,-14.195,-221.597,-100.819,370.014,-353.522,-79.509,-144.500,-82.240,-34.220
882,38528.217000,-17.132,-220.585,-107.737,367.121,-352.525,-82.413,-153.500,-32.240,-20.220
883,38528.235000,-19.090,-222.609,-107.737,370.092,-352.550,-84.434,-161.500,77.760,-11.220
884,38528.257000,-15.174,-224.632,-101.807,369.165,-350.602,-88.358,-193.500,177.760,-10.220
885,38528.275000,-9.300,-217.549,-94.888,367.260,-352.517,-90.291,-252.500,193.760,-25.220
886,38528.298000,-1.468,-216.538,-94.888,362.479,-349.563,-98.085,-284.500,173.760,-10.220
887,38528.320000,-0.489,-215.526,-91.923,366.419,-348.629,-100.125,-348.500,130.760,1.780
888,38528.338000,-1.468,-216.538,-90.934,365.614,-350.546,-108.968,-427.500,104.760,22.780
889,38528.359000,-4.405,-218.561,-88.958,357.889,-348.533,-115.725,-489.500,115.760,35.780
890,38528.395000,-10.279,-219.573,-85.992,358.980,-347.568,-122.637,-565.500,207.760,42.780
891,38528.409000,-2.447,-217.549,-85.992,351.377,-347.484,-135.300,-659.500,262.760,61.780
892,38528.428000,4.405,-208.443,-86.981,358.356,-348.507,-142.314,-750.500,208.760,71.780
893,38528.431000,-3.426,-198.324,-84.015,349.783,-347.446,-155.946,-854.500,225.760,65.780
894,38528.450000,-9.300,-188.206,-78.085,343.029,-346.410,-161.734,-967.500,336.760,35.780
895,38528.483000,-10.279,-174.040,-78.085,337.529,-343.432,-184.283,-1039.500,399.760,16.780
896,38528.494000,9.300,-169.992,-99.830,324.894,-339.440,-190.955,-1143.500,378.760,20.780
897,38528.521000,-0.489,-165.945,-94.888,320.330,-337.441,-210.566,-1231.500,345.760,36.780
898,38528.544000,-21.048,-143.684,-81.050,318.734,-329.660,-235.158,-1351.500,554.760,-0.220
899,38528.565000,-20.069,-123.447,-90.934,306.282,-328.561,-250.690,-1493.500,791.760,-41.220
900,38528.582000,25.943,-125.470,-123.552,288.000,-322.567,-271.047,-1577.500,575.760,-42.220
901,38528.605000,31.816,-120.411,-123.552,275.470,-320.505,-282.641,-1695.500,181.760,-77.220
902,38528.626000,-0.489,-92.079,-111.691,258.150,-314.521,-302.031,-1804.500,172.760,-149.220
903,38528.648000,-27.901,-69.818,-117.622,250.469,-315.409,-309.770,-1943.500,435.760,-163.220
904,38528.668000,17.132,-53.628,-149.251,226.254,-302.590,-330.030,-1990.500,348.760,-168.220
905,38528.689000,-11.258,-25.296,-151.228,213.760,-306.333,-340.633,-2025.500,-77.240,-197.220
906,38528.706000,-37.690,-5.059,-149.251,190.473,-299.333,-354.996,-2118.500,-63.240,-235.220
907,38528.754000,-7.342,14.166,-157.158,167.229,-287.492,-374.288,-2215.500,324.760,-275.220
908,38528.760000,15.174,35.415,-171.985,148.732,-286.349,-379.869,-2287.500,449.760,-351.220
909,38528.773000,10.279,43.510,-195.707,115.678,-279.259,-395.044,-2330.500,447.760,-378.220
910,38528.781000,10.279,65.771,-209.544,106.965,-270.463,-404.744,-2380.500,663.760,-434.220
911,38528.813000,38.669,79.937,-204.602,68.868,-252.690,-416.889,-2363.500,903.760,-426.220
912,38528.835000,67.059,94.103,-203.614,57.299,-250.638,-427.516,-2335.500,678.760,-436.220
913,38528.866000,59.228,106.245,-216.463,23.005,-237.746,-430.862,-2329.500,488.760,-425.220
914,38528.870000,51.396,128.506,-226.347,-9.235,-231.642,-436.205,-2334.500,396.760,-394.220
915,38528.896000,57.270,143.684,-225.359,-32.789,-223.689,-435.798,-2325.500,464.760,-367.220
916,38528.914000,67.059,157.850,-220.417,-62.198,-217.618,-435.285,-2347.500,391.760,-354.220
917,38528.937000,64.122,175.051,-222.394,-76.928,-213.616,-434.044,-2363.500,202.760,-395.220
918,38528.963000,58.249,193.265,-224.371,-109.374,-213.331,-424.611,-2393.500,95.760,-420.220
919,38528.984000,69.996,221.597,-244.139,-130.027,-209.279,-420.312,-2444.500,39.760,-405.220
920,38529.7000,48.459,223.621,-245.127,-160.532,-212.884,-407.955,-2380.500,-79.240,-374.220
921,38529.21000,31.816,232.727,-242.162,-179.323,-211.758,-396.795,-2341.500,35.760,-334.220
922,38529.43000,59.228,260.047,-240.185,-206.867,-214.421,-386.460,-2336.500,108.760,-353.220
923,38529.65000,88.597,273.202,-234.255,-237.495,-212.226,-370.169,-2308.500,44.760,-423.220
924,38529.79000,88.597,275.225,-240.185,-242.516,-217.029,-360.230,-2266.500,-385.240,-390.220
925,38529.105000,26.922,250.941,-250.069,-266.325,-228.448,-335.184,-2139.500,-861.240,-236.220
926,38529.119000,-11.258,260.047,-233.266,-271.399,-231.318,-323.277,-1997.500,-516.240,-147.220
927,38529.146000,23.006,288.379,-207.568,-299.056,-231.083,-308.022,-1914.500,90.760,-154.220
928,38529.173000,79.786,274.213,-211.521,-304.147,-232.018,-296.117,-1863.500,-44.240,-155.220
929,38529.194000,68.038,257.012,-210.533,-321.127,-235.758,-274.154,-1752.500,-771.240,-114.220
930,38529.216000,9.300,262.071,-206.579,-338.078,-248.207,-249.228,-1624.500,-913.240,-75.220
931,38529.229000,-1.468,268.142,-196.695,-345.127,-245.252,-239.263,-1557.500,-676.240,-65.220
932,38529.251000,36.711,266.119,-194.718,-356.157,-251.945,-220.355,-1467.500,-394.240,-55.220
933,38529.266000,37.690,267.130,-186.811,-363.180,-249.956,-211.373,-1341.500,-674.240,-6.220
934,38529.286000,12.237,264.095,-170.996,-368.443,-256.708,-186.661,-1206.500,-859.240,43.780
935,38529.306000,-14.195,251.953,-168.031,-368.564,-256.715,-179.767,-1091.500,-631.240,114.780
936,38529.329000,-19.090,244.870,-177.915,-374.685,-259.579,-163.904,-970.500,-184.240,181.780
937,38529.346000,-3.426,263.083,-176.927,-380.739,-254.697,-155.927,-784.500,91.760,182.780
938,38529.369000,-2.447,273.202,-169.019,-387.658,-252.703,-152.854,-621.500,239.760,102.780
939,38529.386000,-2.447,267.130,-161.112,-389.685,-250.753,-149.867,-477.500,434.760,-1.220
940,38529.414000,1.468,267.130,-149.251,-388.680,-249.792,-151.855,-407.500,534.760,-49.220
941,38529.434000,7.342,257.012,-133.436,-386.699,-244.969,-155.833,-284.500,766.760,-80.220
942,38529.448000,27.901,242.846,-117.622,-391.530,-245.889,-158.700,-225.500,930.760,-71.220
943,38529.468000,70.975,243.858,-105.761,-387.713,-239.155,-156.807,-185.500,664.760,-30.220
944,38529.498000,79.786,244.870,-99.830,-386.673,-242.064,-158.790,-110.500,-8.240,-35.220
945,38529.515000,38.669,245.881,-100.819,-396.519,-242.947,-154.677,-52.500,-267.240,-61.220
946,38529.537000,23.006,243.858,-99.830,-384.716,-242.082,-158.825,-13.500,-72.240,-31.220
947,38529.554000,40.627,243.858,-90.934,-388.682,-243.985,-154.815,8.500,-72.240,-10.220
948,38529.575000,45.522,244.870,-85.992,-392.648,-243.952,-151.791,36.500,-148.240,22.780
949,38529.598000,31.816,240.822,-90.934,-384.828,-244.992,-150.944,53.500,-295.240,30.780
950,38529.618000,15.174,251.953,-97.853,-389.704,-243.011,-152.829,99.500,-251.240,27.780
951,38529.640000,9.300,253.976,-109.714,-392.630,-243.952,-152.776,169.500,-65.240,16.780
952,38529.662000,5.384,256.000,-126.517,-390.613,-244.934,-155.764,261.500,60.760,-24.220
953,38529.680000,2.447,258.024,-148.263,-387.548,-243.985,-163.695,332.500,209.760,-59.220
954,38529.697000,23.006,265.107,-175.938,-380.655,-243.077,-166.771,470.500,165.760,-92.220
955,38529.721000,25.943,271.178,-196.695,-379.476,-247.914,-175.647,647.500,2.760,-138.220
956,38529.743000,22.027,284.332,-215.475,-376.463,-248.905,-179.637,881.500,-36.240,-149.220
957,38529.749000,12.237,280.285,-221.405,-372.324,-248.927,-192.508,995.500,5.760,-110.220
958,38529.781000,8.321,279.273,-224.371,-371.155,-248.926,-203.357,1209.500,168.760,-82.220
959,38529.801000,17.132,291.415,-230.301,-359.120,-247.080,-221.293,1423.500,314.760,-0.220
960,38529.821000,36.711,302.545,-241.174,-346.055,-241.369,-244.173,1667.500,314.760,51.780
961,38529.854000,27.901,299.510,-252.046,-333.135,-242.441,-255.229,1927.500,335.760,117.780
962,38529.873000,20.069,302.545,-263.907,-316.035,-234.823,-286.059,2157.500,550.760,167.780
963,38529.891000,39.648,328.854,-275.768,-306.017,-233.931,-300.019,2401.500,695.760,234.780
964,38529.900000,57.270,331.889,-282.687,-285.022,-222.478,-331.907,2651.500,686.760,356.780
965,38529.923000,57.270,334.925,-272.803,-261.279,-220.741,-348.080,2820.500,671.760,529.780
966,38529.950000,57.270,338.972,-249.081,-234.473,-210.312,-376.131,2885.500,632.760,719.780
967,38529.965000,72.933,314.688,-228.324,-213.582,-198.865,-402.110,2972.500,541.760,814.780
968,38529.982000,85.660,299.510,-226.347,-181.154,-195.279,-412.533,3021.500,374.760,955.780
969,38530.5000,84.681,277.249,-219.429,-147.687,-192.667,-425.926,3065.500,49.760,1031.780
970,38530.25000,75.870,252.964,-205.591,-130.853,-195.711,-436.065,3068.500,-238.240,1009.780
971,38530.58000,67.059,220.585,-196.695,-85.764,-199.019,-439.812,3036.500,-454.240,932.780
972,38530.60000,61.185,186.182,-197.683,-60.140,-206.015,-447.148,2948.500,-584.240,826.780
973,38530.81000,69.017,154.814,-206.579,-25.873,-216.005,-443.805,2837.500,-682.240,700.780
974,38530.100000,80.765,142.672,-204.602,-9.176,-222.928,-444.092,2762.500,-867.240,538.780
975,38530.148000,68.038,132.553,-193.730,30.843,-240.721,-430.013,2740.500,-994.240,447.780
976,38530.160000,28.880,112.316,-183.846,71.849,-261.425,-414.963,2724.500,-1134.240,278.780
977,38530.174000,14.195,92.079,-173.961,96.305,-268.423,-411.449,2679.500,-867.240,153.780
978,38530.196000,33.774,80.949,-176.927,130.277,-274.558,-393.339,2592.500,-452.240,118.780
979,38530.221000,42.585,67.794,-165.066,149.813,-278.609,-389.742,2568.500,-272.240,156.780
980,38530.236000,31.816,44.522,-144.309,183.759,-287.649,-368.674,2528.500,-230.240,236.780
981,38530.259000,29.859,27.320,-132.448,192.488,-288.701,-363.905,2431.500,-87.240,305.780
982,38530.287000,34.753,3.036,-129.483,221.481,-292.860,-341.770,2337.500,-68.240,391.780
983,38530.301000,32.795,-26.308,-123.552,252.535,-302.838,-322.619,2251.500,-192.240,469.780
984,38530.315000,22.027,-46.545,-111.691,258.226,-309.677,-308.929,2197.500,-259.240,483.780
985,38530.337000,15.174,-63.747,-105.761,274.578,-320.491,-287.548,2070.500,-350.240,453.780
986,38530.360000,13.216,-89.043,-110.703,281.221,-324.437,-273.879,1945.500,-457.240,406.780
987,38530.378000,1.468,-107.257,-107.737,298.447,-333.330,-247.593,1845.500,-598.240,351.780
988,38530.400000,-20.069,-124.459,-91.923,304.067,-334.365,-232.924,1746.500,-583.240,288.780
989,38530.415000,-14.195,-140.648,-93.900,311.577,-345.101,-209.417,1612.500,-482.240,219.780
990,38530.431000,-20.069,-156.838,-86.981,323.892,-350.079,-184.034,1516.500,-521.240,131.780
991,38530.463000,-41.606,-165.945,-71.166,333.496,-353.082,-172.387,1419.500,-390.240,80.780
992,38530.480000,-36.711,-176.063,-55.351,345.057,-356.103,-160.774,1281.500,-164.240,39.780
993,38530.508000,-12.237,-182.134,-40.525,346.808,-360.004,-147.018,1205.500,-118.240,15.780
994,38530.553000,-12.237,-189.217,-29.653,357.337,-357.211,-135.394,1055.500,-183.240,-23.220
995,38530.562000,-14.195,-201.360,-25.699,353.250,-359.121,-124.491,881.500,-225.240,-15.220
996,38530.562000,-14.195,-209.455,-21.745,358.949,-361.120,-113.760,707.500,-279.240,5.780
997,38530.584000,-21.048,-219.573,-24.710,356.889,-364.980,-105.844,537.500,-286.240,22.780
998,38530.611000,-25.943,-224.632,-27.676,361.643,-365.032,-98.052,392.500,-251.240,41.780
999,38530.628000,-22.027,-231.715,-29.653,363.444,-365.059,-89.224,243.500,-272.240,37.780
1000,38530.656000,-23.985,-235.763,-42.502,363.427,-363.124,-89.226,109.500,-334.240,3.780
