Shimmer,Shimmer,Shimmer,Shimmer,Shimmer,Shimmer,Shimmer,Shimmer,Shimmer,Shimmer,Shimmer,Shimmer,Shimmer,Shimmer,Shimmer,Shimmer,Shimmer,Shimmer,Shimmer,Shimmer,
Timestamp,Timestamp,Wide Range Accelerometer X,Wide Range Accelerometer X,Wide Range Accelerometer Y,Wide Range Accelerometer Y,Wide Range Accelerometer Z,Wide Range Accelerometer Z,Gyroscope X,Gyroscope X,Gyroscope Y,Gyroscope Y,Gyroscope Z,Gyroscope Z,Magnetometer X,Magnetometer X,Magnetometer Y,Magnetometer Y,Magnetometer Z,Magnetometer Z,
RAW,CAL,RAW,CAL,RAW,CAL,RAW,CAL,RAW,CAL,RAW,CAL,RAW,CAL,RAW,CAL,RAW,CAL,RAW,CAL,
no units,mSecs,no units,m/(sec^2),no units,m/(sec^2),no units,m/(sec^2),no units,deg/sec,no units,deg/sec,no units,deg/sec,no units,local,no units,local,no units,local,
6883638,0,5248,-3.21765787860208,-15136,-9.28019619865113,-3056,1.87369711833231,3,2.6219512195122,-43,-0.182926829268293,-7,0.426829268292683,-68,0.295652173913043,35,0.152173913043478,129,-0.629268292682927,
6884278,19.53125,5248,-3.21765787860208,-15136,-9.28019619865113,-2976,1.82464745554874,1,2.92682926829268,-48,-0.0609756097560976,-6,0.365853658536585,-70,0.304347826086957,42,0.182608695652174,127,-0.619512195121951,
6884918,39.0625,5200,-3.18822808093194,-15072,-9.24095646842428,-3072,1.88350705088903,-5,3.10975609756098,-51,0.304878048780488,-9,0.548780487804878,-70,0.304347826086957,41,0.178260869565217,130,-0.634146341463415,
6885558,58.59375,5184,-3.17841814837523,-15072,-9.24095646842428,-2992,1.83445738810546,-5,3.47560975609756,-57,0.304878048780488,-13,0.792682926829268,-71,0.308695652173913,41,0.178260869565217,129,-0.629268292682927,
6886198,78.125,5232,-3.20784794604537,-15072,-9.24095646842428,-3072,1.88350705088903,-2,3.53658536585366,-58,0.121951219512195,-10,0.609756097560976,-69,0.3,37,0.160869565217391,130,-0.634146341463415,
6886838,97.65625,5280,-3.23727774371551,-15088,-9.25076640098099,-3008,1.84426732066217,9,3.59756097560976,-59,-0.548780487804878,-10,0.609756097560976,-68,0.295652173913043,37,0.160869565217391,131,-0.639024390243902,
6887478,117.1875,5248,-3.21765787860208,-15088,-9.25076640098099,-2976,1.82464745554874,12,3.59756097560976,-59,-0.731707317073171,-13,0.792682926829268,-69,0.3,43,0.18695652173913,128,-0.624390243902439,
6888118,136.71875,5168,-3.16860821581852,-15120,-9.27038626609442,-2912,1.78540772532189,9,3.41463414634146,-56,-0.548780487804878,-19,1.15853658536585,-70,0.304347826086957,41,0.178260869565217,129,-0.629268292682927,
6888758,156.25,5200,-3.18822808093194,-15072,-9.24095646842428,-3008,1.84426732066217,13,3.35365853658537,-55,-0.792682926829268,-17,1.03658536585366,-68,0.295652173913043,37,0.160869565217391,129,-0.629268292682927,
6889398,175.78125,5152,-3.1587982832618,-15072,-9.24095646842428,-2976,1.82464745554874,20,3.41463414634146,-56,-1.21951219512195,-20,1.21951219512195,-68,0.295652173913043,38,0.165217391304348,130,-0.634146341463415,
6890038,195.3125,5136,-3.14898835070509,-15056,-9.23114653586757,-2928,1.7952176578786,25,2.98780487804878,-49,-1.52439024390244,-18,1.09756097560976,-71,0.308695652173913,41,0.178260869565217,128,-0.624390243902439,
6890678,214.84375,5104,-3.12936848559166,-15040,-9.22133660331085,-2944,1.80502759043532,26,3.10975609756098,-51,-1.58536585365854,-15,0.914634146341463,-68,0.295652173913043,40,0.173913043478261,129,-0.629268292682927,
6891318,234.375,5088,-3.11955855303495,-15072,-9.24095646842428,-2928,1.7952176578786,28,2.68292682926829,-44,-1.70731707317073,-12,0.731707317073171,-70,0.304347826086957,38,0.165217391304348,130,-0.634146341463415,
6891958,253.90625,5040,-3.09012875536481,-15152,-9.29000613120785,-2992,1.83445738810546,22,2.6219512195122,-43,-1.34146341463415,-11,0.670731707317073,-71,0.308695652173913,42,0.182608695652174,128,-0.624390243902439,
6892598,273.4375,5024,-3.08031882280809,-15120,-9.27038626609442,-3024,1.85407725321888,20,2.74390243902439,-45,-1.21951219512195,-10,0.609756097560976,-68,0.295652173913043,38,0.165217391304348,129,-0.629268292682927,
6893238,292.96875,4992,-3.06069895769467,-15120,-9.27038626609442,-3008,1.84426732066217,8,2.92682926829268,-48,-0.487804878048781,-6,0.365853658536585,-68,0.295652173913043,37,0.160869565217391,129,-0.629268292682927,
6893878,312.5,5024,-3.08031882280809,-15120,-9.27038626609442,-3104,1.90312691600245,1,3.17073170731707,-52,-0.0609756097560976,-4,0.24390243902439,-70,0.304347826086957,41,0.178260869565217,129,-0.629268292682927,
6894518,332.03125,5056,-3.09993868792152,-15056,-9.23114653586757,-3072,1.88350705088903,-1,3.53658536585366,-58,0.0609756097560976,-6,0.365853658536585,-71,0.308695652173913,41,0.178260869565217,130,-0.634146341463415,
6895158,351.5625,5040,-3.09012875536481,-15072,-9.24095646842428,-2960,1.81483752299203,-26,3.78048780487805,-62,1.58536585365854,-1,0.0609756097560976,-69,0.3,41,0.178260869565217,127,-0.619512195121951,
6895798,371.09375,5168,-3.16860821581852,-15136,-9.28019619865113,-2992,1.83445738810546,-33,3.65853658536585,-60,2.01219512195122,2,-0.121951219512195,-69,0.3,37,0.160869565217391,129,-0.629268292682927,
6896438,390.625,5280,-3.23727774371551,-15184,-9.30962599632127,-3104,1.90312691600245,-11,3.90243902439024,-64,0.670731707317073,12,-0.731707317073171,-70,0.304347826086957,41,0.178260869565217,130,-0.634146341463415,
6897078,410.15625,5184,-3.17841814837523,-15072,-9.24095646842428,-2960,1.81483752299203,-3,3.65853658536585,-60,0.182926829268293,9,-0.548780487804878,-72,0.31304347826087,39,0.169565217391304,128,-0.624390243902439,
6897718,429.6875,5264,-3.2274678111588,-15040,-9.22133660331085,-2928,1.7952176578786,-13,3.59756097560976,-59,0.792682926829268,4,-0.24390243902439,-69,0.3,38,0.165217391304348,130,-0.634146341463415,
6898358,449.21875,5216,-3.19803801348866,-15024,-9.21152667075414,-2960,1.81483752299203,-13,3.35365853658537,-55,0.792682926829268,-3,0.182926829268293,-68,0.295652173913043,39,0.169565217391304,129,-0.629268292682927,
6898998,468.75,5168,-3.16860821581852,-15040,-9.22133660331085,-2912,1.78540772532189,-6,3.35365853658537,-55,0.365853658536585,-4,0.24390243902439,-69,0.3,41,0.178260869565217,128,-0.624390243902439,
6899638,488.28125,5248,-3.21765787860208,-15072,-9.24095646842428,-2912,1.78540772532189,-3,3.17073170731707,-52,0.182926829268293,-9,0.548780487804878,-68,0.295652173913043,40,0.173913043478261,128,-0.624390243902439,
6900278,507.8125,5248,-3.21765787860208,-15024,-9.21152667075414,-2928,1.7952176578786,-2,2.86585365853659,-47,0.121951219512195,-9,0.548780487804878,-68,0.295652173913043,39,0.169565217391304,130,-0.634146341463415,
6900918,527.34375,5216,-3.19803801348866,-15008,-9.20171673819742,-2960,1.81483752299203,4,2.68292682926829,-44,-0.24390243902439,-10,0.609756097560976,-71,0.308695652173913,38,0.165217391304348,129,-0.629268292682927,
6901558,546.875,5152,-3.1587982832618,-15008,-9.20171673819742,-3040,1.8638871857756,3,2.5,-41,-0.182926829268293,-5,0.304878048780488,-69,0.3,40,0.173913043478261,127,-0.619512195121951,
6902198,566.40625,5088,-3.11955855303495,-15040,-9.22133660331085,-3120,1.91293684855917,5,2.68292682926829,-44,-0.304878048780488,-8,0.487804878048781,-69,0.3,39,0.169565217391304,129,-0.629268292682927,
6902838,585.9375,5072,-3.10974862047823,-14992,-9.19190680564071,-3024,1.85407725321888,-8,2.6219512195122,-43,0.487804878048781,-11,0.670731707317073,-71,0.308695652173913,38,0.165217391304348,129,-0.629268292682927,
6903478,605.46875,5152,-3.1587982832618,-15024,-9.21152667075414,-3104,1.90312691600245,-8,2.5609756097561,-42,0.487804878048781,-9,0.548780487804878,-70,0.304347826086957,38,0.165217391304348,129,-0.629268292682927,
6904118,625,5168,-3.16860821581852,-15040,-9.22133660331085,-3056,1.87369711833231,-1,2.80487804878049,-46,0.0609756097560976,-6,0.365853658536585,-69,0.3,39,0.169565217391304,128,-0.624390243902439,
6904758,644.53125,5200,-3.18822808093194,-15088,-9.25076640098099,-3056,1.87369711833231,-5,2.98780487804878,-49,0.304878048780488,-6,0.365853658536585,-68,0.295652173913043,36,0.156521739130435,130,-0.634146341463415,
6905398,664.0625,5168,-3.16860821581852,-15056,-9.23114653586757,-3072,1.88350705088903,-9,2.98780487804878,-49,0.548780487804878,-9,0.548780487804878,-69,0.3,43,0.18695652173913,129,-0.629268292682927,
6906038,683.59375,5168,-3.16860821581852,-15088,-9.25076640098099,-3024,1.85407725321888,-9,3.17073170731707,-52,0.548780487804878,-12,0.731707317073171,-70,0.304347826086957,42,0.182608695652174,129,-0.629268292682927,
6906678,703.125,5232,-3.20784794604537,-15120,-9.27038626609442,-2976,1.82464745554874,-10,3.10975609756098,-51,0.609756097560976,-11,0.670731707317073,-70,0.304347826086957,43,0.18695652173913,129,-0.629268292682927,
6907318,722.65625,5184,-3.17841814837523,-15072,-9.24095646842428,-3008,1.84426732066217,-12,3.17073170731707,-52,0.731707317073171,-14,0.853658536585366,-70,0.304347826086957,37,0.160869565217391,130,-0.634146341463415,
6907958,742.1875,5184,-3.17841814837523,-15072,-9.24095646842428,-3024,1.85407725321888,-15,3.29268292682927,-54,0.914634146341463,-11,0.670731707317073,-70,0.304347826086957,40,0.173913043478261,130,-0.634146341463415,
6908598,761.71875,5168,-3.16860821581852,-15040,-9.22133660331085,-2992,1.83445738810546,-7,2.92682926829268,-48,0.426829268292683,-13,0.792682926829268,-70,0.304347826086957,39,0.169565217391304,129,-0.629268292682927,
6909238,781.25,5152,-3.1587982832618,-15056,-9.23114653586757,-2944,1.80502759043532,-8,2.98780487804878,-49,0.487804878048781,-13,0.792682926829268,-68,0.295652173913043,37,0.160869565217391,130,-0.634146341463415,
6909878,800.78125,5152,-3.1587982832618,-15104,-9.26057633353771,-3008,1.84426732066217,-4,3.04878048780488,-50,0.24390243902439,-14,0.853658536585366,-69,0.3,37,0.160869565217391,130,-0.634146341463415,
6910518,820.3125,5216,-3.19803801348866,-15024,-9.21152667075414,-3024,1.85407725321888,3,2.74390243902439,-45,-0.182926829268293,-11,0.670731707317073,-70,0.304347826086957,40,0.173913043478261,128,-0.624390243902439,
6911158,839.84375,5104,-3.12936848559166,-15120,-9.27038626609442,-3024,1.85407725321888,6,2.6219512195122,-43,-0.365853658536585,-8,0.487804878048781,-68,0.295652173913043,41,0.178260869565217,128,-0.624390243902439,
6911798,859.375,5120,-3.13917841814837,-15136,-9.28019619865113,-3024,1.85407725321888,3,2.86585365853659,-47,-0.182926829268293,-4,0.24390243902439,-70,0.304347826086957,42,0.182608695652174,130,-0.634146341463415,
6912438,878.90625,5120,-3.13917841814837,-15120,-9.27038626609442,-2992,1.83445738810546,-3,2.92682926829268,-48,0.182926829268293,-5,0.304878048780488,-72,0.31304347826087,40,0.173913043478261,130,-0.634146341463415,
6913078,898.4375,5120,-3.13917841814837,-15136,-9.28019619865113,-3024,1.85407725321888,-7,2.68292682926829,-44,0.426829268292683,-5,0.304878048780488,-68,0.295652173913043,40,0.173913043478261,129,-0.629268292682927,
6913718,917.96875,5088,-3.11955855303495,-15104,-9.26057633353771,-2976,1.82464745554874,-13,2.92682926829268,-48,0.792682926829268,-5,0.304878048780488,-71,0.308695652173913,39,0.169565217391304,128,-0.624390243902439,
6914358,937.5,5104,-3.12936848559166,-15056,-9.23114653586757,-3056,1.87369711833231,-16,2.74390243902439,-45,0.975609756097561,-2,0.121951219512195,-70,0.304347826086957,39,0.169565217391304,128,-0.624390243902439,
6914998,957.03125,5136,-3.14898835070509,-15040,-9.22133660331085,-3104,1.90312691600245,-17,2.86585365853659,-47,1.03658536585366,0,0,-69,0.3,42,0.182608695652174,127,-0.619512195121951,
6915638,976.5625,5184,-3.17841814837523,-15088,-9.25076640098099,-3056,1.87369711833231,-17,2.98780487804878,-49,1.03658536585366,5,-0.304878048780488,-69,0.3,37,0.160869565217391,129,-0.629268292682927,
6916278,996.09375,5152,-3.1587982832618,-15072,-9.24095646842428,-3024,1.85407725321888,-13,2.98780487804878,-49,0.792682926829268,2,-0.121951219512195,-71,0.308695652173913,37,0.160869565217391,128,-0.624390243902439,
6916918,1015.625,5120,-3.13917841814837,-15072,-9.24095646842428,-2976,1.82464745554874,-6,3.17073170731707,-52,0.365853658536585,7,-0.426829268292683,-70,0.304347826086957,42,0.182608695652174,129,-0.629268292682927,
6917558,1035.15625,5136,-3.14898835070509,-14960,-9.17228694052728,-3088,1.89331698344574,-2,3.10975609756098,-51,0.121951219512195,0,0,-69,0.3,37,0.160869565217391,129,-0.629268292682927,
6918198,1054.6875,5136,-3.14898835070509,-15040,-9.22133660331085,-2976,1.82464745554874,-21,3.04878048780488,-50,1.28048780487805,2,-0.121951219512195,-70,0.304347826086957,41,0.178260869565217,130,-0.634146341463415,
6918838,1074.21875,5232,-3.20784794604537,-15200,-9.31943592887799,-2944,1.80502759043532,-14,2.86585365853659,-47,0.853658536585366,7,-0.426829268292683,-70,0.304347826086957,41,0.178260869565217,129,-0.629268292682927,
6919478,1093.75,5280,-3.23727774371551,-15248,-9.34886572654813,-3088,1.89331698344574,14,2.80487804878049,-46,-0.853658536585366,16,-0.975609756097561,-72,0.31304347826087,39,0.169565217391304,128,-0.624390243902439,
6920118,1113.28125,5120,-3.13917841814837,-15200,-9.31943592887799,-3120,1.91293684855917,4,3.10975609756098,-51,-0.24390243902439,9,-0.548780487804878,-69,0.3,38,0.165217391304348,130,-0.634146341463415,
6920758,1132.8125,5104,-3.12936848559166,-15072,-9.24095646842428,-3008,1.84426732066217,-27,3.10975609756098,-51,1.64634146341463,0,0,-69,0.3,38,0.165217391304348,131,-0.639024390243902,
6921398,1152.34375,5264,-3.2274678111588,-15008,-9.20171673819742,-3072,1.88350705088903,-23,3.10975609756098,-51,1.40243902439024,-3,0.182926829268293,-69,0.3,40,0.173913043478261,128,-0.624390243902439,
6922038,1171.875,5264,-3.2274678111588,-14976,-9.182096873084,-3072,1.88350705088903,-18,3.23170731707317,-53,1.09756097560976,-2,0.121951219512195,-69,0.3,40,0.173913043478261,128,-0.624390243902439,
6922678,1191.40625,5280,-3.23727774371551,-14928,-9.15266707541386,-3104,1.90312691600245,-10,3.35365853658537,-55,0.609756097560976,-1,0.0609756097560976,-70,0.304347826086957,40,0.173913043478261,131,-0.639024390243902,
6923318,1210.9375,5296,-3.24708767627223,-14976,-9.182096873084,-2992,1.83445738810546,1,2.92682926829268,-48,-0.0609756097560976,3,-0.182926829268293,-71,0.308695652173913,41,0.178260869565217,126,-0.614634146341463,
6923958,1230.46875,5328,-3.26670754138565,-15072,-9.24095646842428,-2960,1.81483752299203,8,2.80487804878049,-46,-0.487804878048781,5,-0.304878048780488,-70,0.304347826086957,38,0.165217391304348,129,-0.629268292682927,
6924598,1250,5328,-3.26670754138565,-15136,-9.28019619865113,-2928,1.7952176578786,26,2.5,-41,-1.58536585365854,0,0,-69,0.3,38,0.165217391304348,128,-0.624390243902439,
6925238,1269.53125,5344,-3.27651747394237,-15104,-9.26057633353771,-2880,1.76578786020846,33,2.25609756097561,-37,-2.01219512195122,-5,0.304878048780488,-72,0.31304347826087,41,0.178260869565217,130,-0.634146341463415,
6925878,1289.0625,5184,-3.17841814837523,-14960,-9.17228694052728,-2928,1.7952176578786,23,2.5,-41,-1.40243902439024,-13,0.792682926829268,-70,0.304347826086957,40,0.173913043478261,129,-0.629268292682927,
6926518,1308.59375,5200,-3.18822808093194,-14976,-9.182096873084,-2944,1.80502759043532,27,1.76829268292683,-29,-1.64634146341463,-13,0.792682926829268,-68,0.295652173913043,36,0.156521739130435,129,-0.629268292682927,
6927158,1328.125,5120,-3.13917841814837,-15056,-9.23114653586757,-2896,1.77559779276517,39,1.82926829268293,-30,-2.37804878048781,-13,0.792682926829268,-68,0.295652173913043,36,0.156521739130435,128,-0.624390243902439,
6927798,1347.65625,5104,-3.12936848559166,-15056,-9.23114653586757,-2992,1.83445738810546,37,1.89024390243902,-31,-2.25609756097561,-14,0.853658536585366,-72,0.31304347826087,42,0.182608695652174,129,-0.629268292682927,
6928438,1367.1875,5088,-3.11955855303495,-15040,-9.22133660331085,-2992,1.83445738810546,35,2.01219512195122,-33,-2.13414634146341,-9,0.548780487804878,-70,0.304347826086957,41,0.178260869565217,128,-0.624390243902439,
6929078,1386.71875,5056,-3.09993868792152,-15104,-9.26057633353771,-2960,1.81483752299203,38,1.95121951219512,-32,-2.31707317073171,-7,0.426829268292683,-69,0.3,37,0.160869565217391,129,-0.629268292682927,
6929718,1406.25,5056,-3.09993868792152,-15168,-9.29981606376456,-2928,1.7952176578786,26,1.82926829268293,-30,-1.58536585365854,-7,0.426829268292683,-69,0.3,38,0.165217391304348,129,-0.629268292682927,
6930358,1425.78125,5072,-3.10974862047823,-15168,-9.29981606376456,-2880,1.76578786020846,26,1.95121951219512,-32,-1.58536585365854,-7,0.426829268292683,-69,0.3,39,0.169565217391304,128,-0.624390243902439,
6930998,1445.3125,5104,-3.12936848559166,-15056,-9.23114653586757,-2880,1.76578786020846,27,1.95121951219512,-32,-1.64634146341463,-5,0.304878048780488,-69,0.3,41,0.178260869565217,128,-0.624390243902439,
6931638,1464.84375,5136,-3.14898835070509,-15104,-9.26057633353771,-2960,1.81483752299203,26,1.64634146341463,-27,-1.58536585365854,-4,0.24390243902439,-68,0.295652173913043,37,0.160869565217391,129,-0.629268292682927,
6932278,1484.375,5120,-3.13917841814837,-15088,-9.25076640098099,-3072,1.88350705088903,37,1.70731707317073,-28,-2.25609756097561,3,-0.182926829268293,-68,0.295652173913043,42,0.182608695652174,127,-0.619512195121951,
6932918,1503.90625,5104,-3.12936848559166,-15072,-9.24095646842428,-3024,1.85407725321888,36,1.52439024390244,-25,-2.19512195121951,1,-0.0609756097560976,-68,0.295652173913043,42,0.182608695652174,129,-0.629268292682927,
6933558,1523.4375,5104,-3.12936848559166,-15152,-9.29000613120785,-2928,1.7952176578786,36,1.64634146341463,-27,-2.19512195121951,0,0,-68,0.295652173913043,40,0.173913043478261,128,-0.624390243902439,
6934198,1542.96875,5072,-3.10974862047823,-15104,-9.26057633353771,-2928,1.7952176578786,35,1.34146341463415,-22,-2.13414634146341,0,0,-69,0.3,38,0.165217391304348,129,-0.629268292682927,
6934838,1562.5,5088,-3.11955855303495,-15088,-9.25076640098099,-2896,1.77559779276517,35,1.70731707317073,-28,-2.13414634146341,-1,0.0609756097560976,-70,0.304347826086957,39,0.169565217391304,129,-0.629268292682927,
6935478,1582.03125,5104,-3.12936848559166,-15120,-9.27038626609442,-2944,1.80502759043532,43,1.52439024390244,-25,-2.6219512195122,-1,0.0609756097560976,-68,0.295652173913043,39,0.169565217391304,128,-0.624390243902439,
6936118,1601.5625,5024,-3.08031882280809,-15104,-9.26057633353771,-2960,1.81483752299203,49,1.52439024390244,-25,-2.98780487804878,6,-0.365853658536585,-68,0.295652173913043,38,0.165217391304348,128,-0.624390243902439,
6936758,1621.09375,5024,-3.08031882280809,-15168,-9.29981606376456,-2896,1.77559779276517,44,1.46341463414634,-24,-2.68292682926829,1,-0.0609756097560976,-68,0.295652173913043,38,0.165217391304348,128,-0.624390243902439,
6937398,1640.625,5040,-3.09012875536481,-15152,-9.29000613120785,-2928,1.7952176578786,38,1.70731707317073,-28,-2.31707317073171,4,-0.24390243902439,-70,0.304347826086957,43,0.18695652173913,128,-0.624390243902439,
6938038,1660.15625,4960,-3.04107909258124,-15248,-9.34886572654813,-2960,1.81483752299203,35,1.89024390243902,-31,-2.13414634146341,2,-0.121951219512195,-66,0.28695652173913,38,0.165217391304348,129,-0.629268292682927,
6938678,1679.6875,4960,-3.04107909258124,-15184,-9.30962599632127,-2912,1.78540772532189,34,1.82926829268293,-30,-2.07317073170732,5,-0.304878048780488,-68,0.295652173913043,38,0.165217391304348,128,-0.624390243902439,
6939318,1699.21875,4976,-3.05088902513795,-15248,-9.34886572654813,-2912,1.78540772532189,28,1.64634146341463,-27,-1.70731707317073,7,-0.426829268292683,-70,0.304347826086957,41,0.178260869565217,128,-0.624390243902439,
6939958,1718.75,4992,-3.06069895769467,-15232,-9.33905579399141,-2912,1.78540772532189,21,1.76829268292683,-29,-1.28048780487805,8,-0.487804878048781,-69,0.3,40,0.173913043478261,128,-0.624390243902439,
6940598,1738.28125,4928,-3.02145922746781,-15184,-9.30962599632127,-2928,1.7952176578786,20,1.89024390243902,-31,-1.21951219512195,12,-0.731707317073171,-68,0.295652173913043,43,0.18695652173913,129,-0.629268292682927,
6941238,1757.8125,4832,-2.96259963212753,-15008,-9.20171673819742,-2960,1.81483752299203,21,2.07317073170732,-34,-1.28048780487805,6,-0.365853658536585,-67,0.291304347826087,38,0.165217391304348,128,-0.624390243902439,
6941878,1777.34375,4928,-3.02145922746781,-15040,-9.22133660331085,-2912,1.78540772532189,1,2.01219512195122,-33,-0.0609756097560976,6,-0.365853658536585,-67,0.291304347826087,41,0.178260869565217,127,-0.619512195121951,
6942518,1796.875,4992,-3.06069895769467,-15296,-9.37829552421827,-2976,1.82464745554874,-5,1.89024390243902,-31,0.304878048780488,11,-0.670731707317073,-66,0.28695652173913,41,0.178260869565217,127,-0.619512195121951,
6943158,1816.40625,5072,-3.10974862047823,-15232,-9.33905579399141,-3024,1.85407725321888,4,2.25609756097561,-37,-0.24390243902439,19,-1.15853658536585,-71,0.308695652173913,42,0.182608695652174,126,-0.614634146341463,
6943798,1835.9375,5008,-3.07050889025138,-15152,-9.29000613120785,-2976,1.82464745554874,13,2.6219512195122,-43,-0.792682926829268,22,-1.34146341463415,-70,0.304347826086957,40,0.173913043478261,129,-0.629268292682927,
6944438,1855.46875,5008,-3.07050889025138,-15152,-9.29000613120785,-2960,1.81483752299203,-11,2.37804878048781,-39,0.670731707317073,13,-0.792682926829268,-69,0.3,44,0.191304347826087,126,-0.614634146341463,
6945078,1875,5024,-3.08031882280809,-15120,-9.27038626609442,-2960,1.81483752299203,-10,2.37804878048781,-39,0.609756097560976,5,-0.304878048780488,-67,0.291304347826087,39,0.169565217391304,128,-0.624390243902439,
6945718,1894.53125,5040,-3.09012875536481,-15088,-9.25076640098099,-3024,1.85407725321888,2,2.5,-41,-0.121951219512195,5,-0.304878048780488,-69,0.3,39,0.169565217391304,128,-0.624390243902439,
6946358,1914.0625,5040,-3.09012875536481,-15072,-9.24095646842428,-2992,1.83445738810546,9,2.5609756097561,-42,-0.548780487804878,5,-0.304878048780488,-67,0.291304347826087,42,0.182608695652174,129,-0.629268292682927,
6946998,1933.59375,5072,-3.10974862047823,-15104,-9.26057633353771,-2944,1.80502759043532,17,2.31707317073171,-38,-1.03658536585366,9,-0.548780487804878,-66,0.28695652173913,38,0.165217391304348,128,-0.624390243902439,
6947638,1953.125,5024,-3.08031882280809,-15104,-9.26057633353771,-2912,1.78540772532189,28,2.13414634146341,-35,-1.70731707317073,10,-0.609756097560976,-67,0.291304347826087,39,0.169565217391304,128,-0.624390243902439,
6948278,1972.65625,5088,-3.11955855303495,-15232,-9.33905579399141,-2912,1.78540772532189,31,2.01219512195122,-33,-1.89024390243902,9,-0.548780487804878,-70,0.304347826086957,43,0.18695652173913,128,-0.624390243902439,
6948918,1992.1875,5040,-3.09012875536481,-15072,-9.24095646842428,-2944,1.80502759043532,29,1.89024390243902,-31,-1.76829268292683,2,-0.121951219512195,-69,0.3,42,0.182608695652174,127,-0.619512195121951,
6949558,2011.71875,4928,-3.02145922746781,-15120,-9.27038626609442,-2880,1.76578786020846,20,2.07317073170732,-34,-1.21951219512195,-5,0.304878048780488,-68,0.295652173913043,43,0.18695652173913,128,-0.624390243902439,
6950198,2031.25,5024,-3.08031882280809,-15136,-9.28019619865113,-2832,1.73635806253832,14,2.13414634146341,-35,-0.853658536585366,-6,0.365853658536585,-67,0.291304347826087,39,0.169565217391304,129,-0.629268292682927,
6950838,2050.78125,4928,-3.02145922746781,-15200,-9.31943592887799,-2912,1.78540772532189,14,1.95121951219512,-32,-0.853658536585366,-1,0.0609756097560976,-68,0.295652173913043,41,0.178260869565217,126,-0.614634146341463,
6951478,2070.3125,4848,-2.97240956468424,-15248,-9.34886572654813,-2912,1.78540772532189,7,2.37804878048781,-39,-0.426829268292683,1,-0.0609756097560976,-67,0.291304347826087,41,0.178260869565217,128,-0.624390243902439,
6952118,2089.84375,4832,-2.96259963212753,-15184,-9.30962599632127,-2944,1.80502759043532,-3,2.37804878048781,-39,0.182926829268293,0,0,-66,0.28695652173913,38,0.165217391304348,129,-0.629268292682927,
6952758,2109.375,4784,-2.93316983445739,-15136,-9.28019619865113,-2960,1.81483752299203,-25,2.92682926829268,-48,1.52439024390244,2,-0.121951219512195,-67,0.291304347826087,41,0.178260869565217,127,-0.619512195121951,
6953398,2128.90625,4816,-2.95278969957082,-15104,-9.26057633353771,-2976,1.82464745554874,-35,3.35365853658537,-55,2.13414634146341,5,-0.304878048780488,-69,0.3,44,0.191304347826087,127,-0.619512195121951,
6954038,2148.4375,4880,-2.99202942979767,-15088,-9.25076640098099,-2992,1.83445738810546,-40,3.71951219512195,-61,2.4390243902439,9,-0.548780487804878,-69,0.3,38,0.165217391304348,129,-0.629268292682927,
6954678,2167.96875,4864,-2.98221949724096,-15152,-9.29000613120785,-3008,1.84426732066217,-42,3.78048780487805,-62,2.5609756097561,12,-0.731707317073171,-67,0.291304347826087,38,0.165217391304348,127,-0.619512195121951,
6955318,2187.5,4928,-3.02145922746781,-15152,-9.29000613120785,-3008,1.84426732066217,-36,4.02439024390244,-66,2.19512195121951,11,-0.670731707317073,-66,0.28695652173913,39,0.169565217391304,127,-0.619512195121951,
6955958,2207.03125,4992,-3.06069895769467,-15200,-9.31943592887799,-2896,1.77559779276517,-34,3.78048780487805,-62,2.07317073170732,4,-0.24390243902439,-67,0.291304347826087,38,0.165217391304348,127,-0.619512195121951,
6956598,2226.5625,5056,-3.09993868792152,-15232,-9.33905579399141,-2944,1.80502759043532,-32,3.71951219512195,-61,1.95121951219512,1,-0.0609756097560976,-68,0.295652173913043,43,0.18695652173913,128,-0.624390243902439,
6957238,2246.09375,5056,-3.09993868792152,-15216,-9.3292458614347,-2896,1.77559779276517,-28,4.02439024390244,-66,1.70731707317073,0,0,-68,0.295652173913043,41,0.178260869565217,128,-0.624390243902439,
6957878,2265.625,4960,-3.04107909258124,-15184,-9.30962599632127,-2864,1.75597792765175,-22,3.84146341463415,-63,1.34146341463415,-3,0.182926829268293,-67,0.291304347826087,38,0.165217391304348,128,-0.624390243902439,
6958518,2285.15625,5072,-3.10974862047823,-15104,-9.26057633353771,-2768,1.69711833231147,-17,3.29268292682927,-54,1.03658536585366,-7,0.426829268292683,-70,0.304347826086957,42,0.182608695652174,128,-0.624390243902439,
6959158,2304.6875,5024,-3.08031882280809,-15184,-9.30962599632127,-2848,1.74616799509503,-12,3.23170731707317,-53,0.731707317073171,-4,0.24390243902439,-68,0.295652173913043,41,0.178260869565217,129,-0.629268292682927,
6959798,2324.21875,4992,-3.06069895769467,-15184,-9.30962599632127,-2896,1.77559779276517,-5,3.29268292682927,-54,0.304878048780488,-4,0.24390243902439,-68,0.295652173913043,42,0.182608695652174,127,-0.619512195121951,
6960438,2343.75,4976,-3.05088902513795,-15152,-9.29000613120785,-2928,1.7952176578786,0,3.23170731707317,-53,0,-5,0.304878048780488,-68,0.295652173913043,38,0.165217391304348,128,-0.624390243902439,
6961078,2363.28125,4944,-3.03126916002452,-15120,-9.27038626609442,-2944,1.80502759043532,4,3.04878048780488,-50,-0.24390243902439,-5,0.304878048780488,-68,0.295652173913043,41,0.178260869565217,128,-0.624390243902439,
6961718,2382.8125,4976,-3.05088902513795,-15232,-9.33905579399141,-2896,1.77559779276517,5,3.04878048780488,-50,-0.304878048780488,-5,0.304878048780488,-67,0.291304347826087,42,0.182608695652174,125,-0.609756097560976,
6962358,2402.34375,4880,-2.99202942979767,-15216,-9.3292458614347,-2976,1.82464745554874,7,3.29268292682927,-54,-0.426829268292683,-5,0.304878048780488,-67,0.291304347826087,41,0.178260869565217,127,-0.619512195121951,
6962998,2421.875,4848,-2.97240956468424,-15152,-9.29000613120785,-2912,1.78540772532189,-5,3.41463414634146,-56,0.304878048780488,-11,0.670731707317073,-68,0.295652173913043,41,0.178260869565217,127,-0.619512195121951,
6963638,2441.40625,4784,-2.93316983445739,-15184,-9.30962599632127,-2896,1.77559779276517,-26,4.02439024390244,-66,1.58536585365854,-13,0.792682926829268,-69,0.3,38,0.165217391304348,129,-0.629268292682927,
6964278,2460.9375,4848,-2.97240956468424,-15216,-9.3292458614347,-2960,1.81483752299203,-36,4.08536585365854,-67,2.19512195121951,-6,0.365853658536585,-67,0.291304347826087,40,0.173913043478261,129,-0.629268292682927,
6964918,2480.46875,5008,-3.07050889025138,-15312,-9.38810545677498,-2912,1.78540772532189,-23,4.26829268292683,-70,1.40243902439024,0,0,-67,0.291304347826087,38,0.165217391304348,128,-0.624390243902439,
6965558,2500,4960,-3.04107909258124,-15264,-9.35867565910484,-2960,1.81483752299203,-14,4.39024390243902,-72,0.853658536585366,1,-0.0609756097560976,-69,0.3,38,0.165217391304348,128,-0.624390243902439,
6966198,2519.53125,4912,-3.0116492949111,-15232,-9.33905579399141,-2896,1.77559779276517,-24,3.96341463414634,-65,1.46341463414634,-5,0.304878048780488,-69,0.3,41,0.178260869565217,128,-0.624390243902439,
6966838,2539.0625,4960,-3.04107909258124,-15136,-9.28019619865113,-2832,1.73635806253832,-30,3.96341463414634,-65,1.82926829268293,-10,0.609756097560976,-67,0.291304347826087,38,0.165217391304348,128,-0.624390243902439,
6967478,2558.59375,4976,-3.05088902513795,-15168,-9.29981606376456,-2880,1.76578786020846,-21,3.90243902439024,-64,1.28048780487805,-13,0.792682926829268,-67,0.291304347826087,40,0.173913043478261,128,-0.624390243902439,
6968118,2578.125,5040,-3.09012875536481,-15168,-9.29981606376456,-2944,1.80502759043532,-12,3.59756097560976,-59,0.731707317073171,-13,0.792682926829268,-69,0.3,41,0.178260869565217,129,-0.629268292682927,
6968758,2597.65625,4976,-3.05088902513795,-15152,-9.29000613120785,-2912,1.78540772532189,4,3.35365853658537,-55,-0.24390243902439,-7,0.426829268292683,-69,0.3,41,0.178260869565217,129,-0.629268292682927,
6969398,2617.1875,4912,-3.0116492949111,-15168,-9.29981606376456,-2800,1.71673819742489,13,2.98780487804878,-49,-0.792682926829268,-8,0.487804878048781,-68,0.295652173913043,37,0.160869565217391,129,-0.629268292682927,
6970038,2636.71875,4976,-3.05088902513795,-15200,-9.31943592887799,-2848,1.74616799509503,10,2.74390243902439,-45,-0.609756097560976,-7,0.426829268292683,-66,0.28695652173913,38,0.165217391304348,128,-0.624390243902439,
6970678,2656.25,4944,-3.03126916002452,-15232,-9.33905579399141,-3040,1.8638871857756,11,2.68292682926829,-44,-0.670731707317073,-14,0.853658536585366,-68,0.295652173913043,39,0.169565217391304,127,-0.619512195121951,
6971318,2675.78125,4928,-3.02145922746781,-15152,-9.29000613120785,-2896,1.77559779276517,1,2.74390243902439,-45,-0.0609756097560976,-14,0.853658536585366,-68,0.295652173913043,41,0.178260869565217,127,-0.619512195121951,
6971958,2695.3125,4928,-3.02145922746781,-15136,-9.28019619865113,-2880,1.76578786020846,0,2.80487804878049,-46,0,-15,0.914634146341463,-67,0.291304347826087,39,0.169565217391304,129,-0.629268292682927,
6972598,2714.84375,4912,-3.0116492949111,-15200,-9.31943592887799,-2960,1.81483752299203,8,2.6219512195122,-43,-0.487804878048781,-9,0.548780487804878,-71,0.308695652173913,39,0.169565217391304,129,-0.629268292682927,
6973238,2734.375,4912,-3.0116492949111,-15280,-9.36848559166156,-2896,1.77559779276517,7,2.86585365853659,-47,-0.426829268292683,-9,0.548780487804878,-68,0.295652173913043,41,0.178260869565217,127,-0.619512195121951,
6973878,2753.90625,4848,-2.97240956468424,-15232,-9.33905579399141,-3008,1.84426732066217,2,2.80487804878049,-46,-0.121951219512195,-11,0.670731707317073,-69,0.3,40,0.173913043478261,127,-0.619512195121951,
6974518,2773.4375,4928,-3.02145922746781,-15168,-9.29981606376456,-2976,1.82464745554874,-10,2.98780487804878,-49,0.609756097560976,-11,0.670731707317073,-69,0.3,41,0.178260869565217,127,-0.619512195121951,
6975158,2792.96875,4928,-3.02145922746781,-15168,-9.29981606376456,-2976,1.82464745554874,-15,3.10975609756098,-51,0.914634146341463,-13,0.792682926829268,-69,0.3,39,0.169565217391304,128,-0.624390243902439,
6975798,2812.5,4896,-3.00183936235438,-15216,-9.3292458614347,-2896,1.77559779276517,-12,3.35365853658537,-55,0.731707317073171,-14,0.853658536585366,-67,0.291304347826087,38,0.165217391304348,127,-0.619512195121951,
6976438,2832.03125,5008,-3.07050889025138,-15216,-9.3292458614347,-2848,1.74616799509503,-3,3.35365853658537,-55,0.182926829268293,-13,0.792682926829268,-66,0.28695652173913,38,0.165217391304348,127,-0.619512195121951,
6977078,2851.5625,4928,-3.02145922746781,-15232,-9.33905579399141,-2848,1.74616799509503,-1,3.41463414634146,-56,0.0609756097560976,-14,0.853658536585366,-68,0.295652173913043,42,0.182608695652174,129,-0.629268292682927,
6977718,2871.09375,5056,-3.09993868792152,-15152,-9.29000613120785,-2928,1.7952176578786,3,3.35365853658537,-55,-0.182926829268293,-13,0.792682926829268,-68,0.295652173913043,43,0.18695652173913,128,-0.624390243902439,
6978358,2890.625,4992,-3.06069895769467,-15248,-9.34886572654813,-2848,1.74616799509503,-1,3.53658536585366,-58,0.0609756097560976,-17,1.03658536585366,-68,0.295652173913043,38,0.165217391304348,128,-0.624390243902439,
6978998,2910.15625,5120,-3.13917841814837,-15232,-9.33905579399141,-2928,1.7952176578786,-1,3.47560975609756,-57,0.0609756097560976,-19,1.15853658536585,-68,0.295652173913043,40,0.173913043478261,128,-0.624390243902439,
6979638,2929.6875,5120,-3.13917841814837,-15248,-9.34886572654813,-2912,1.78540772532189,3,3.35365853658537,-55,-0.182926829268293,-23,1.40243902439024,-69,0.3,42,0.182608695652174,129,-0.629268292682927,
6980278,2949.21875,4992,-3.06069895769467,-15168,-9.29981606376456,-2816,1.72654812998161,4,3.17073170731707,-52,-0.24390243902439,-27,1.64634146341463,-69,0.3,39,0.169565217391304,127,-0.619512195121951,
6980918,2968.75,4960,-3.04107909258124,-15136,-9.28019619865113,-2912,1.78540772532189,11,3.04878048780488,-50,-0.670731707317073,-25,1.52439024390244,-68,0.295652173913043,37,0.160869565217391,129,-0.629268292682927,
6981558,2988.28125,4992,-3.06069895769467,-15104,-9.26057633353771,-2880,1.76578786020846,13,2.86585365853659,-47,-0.792682926829268,-25,1.52439024390244,-68,0.295652173913043,37,0.160869565217391,129,-0.629268292682927,
6982198,3007.8125,5008,-3.07050889025138,-15104,-9.26057633353771,-2912,1.78540772532189,19,2.80487804878049,-46,-1.15853658536585,-22,1.34146341463415,-68,0.295652173913043,42,0.182608695652174,128,-0.624390243902439,
6982838,3027.34375,4960,-3.04107909258124,-15168,-9.29981606376456,-2800,1.71673819742489,23,2.92682926829268,-48,-1.40243902439024,-19,1.15853658536585,-70,0.304347826086957,43,0.18695652173913,127,-0.619512195121951,
6983478,3046.875,4928,-3.02145922746781,-15200,-9.31943592887799,-2912,1.78540772532189,26,2.92682926829268,-48,-1.58536585365854,-18,1.09756097560976,-69,0.3,39,0.169565217391304,129,-0.629268292682927,
6984118,3066.40625,4960,-3.04107909258124,-15232,-9.33905579399141,-2960,1.81483752299203,21,2.80487804878049,-46,-1.28048780487805,-18,1.09756097560976,-69,0.3,39,0.169565217391304,128,-0.624390243902439,
6984758,3085.9375,4992,-3.06069895769467,-15232,-9.33905579399141,-2944,1.80502759043532,25,3.17073170731707,-52,-1.52439024390244,-18,1.09756097560976,-68,0.295652173913043,40,0.173913043478261,127,-0.619512195121951,
6985398,3105.46875,4928,-3.02145922746781,-15152,-9.29000613120785,-2960,1.81483752299203,9,3.29268292682927,-54,-0.548780487804878,-23,1.40243902439024,-67,0.291304347826087,39,0.169565217391304,128,-0.624390243902439,
6986038,3125,4896,-3.00183936235438,-15088,-9.25076640098099,-2880,1.76578786020846,-11,3.10975609756098,-51,0.670731707317073,-20,1.21951219512195,-69,0.3,40,0.173913043478261,129,-0.629268292682927,
6986678,3144.53125,4944,-3.03126916002452,-15200,-9.31943592887799,-2928,1.7952176578786,-1,3.23170731707317,-53,0.0609756097560976,-10,0.609756097560976,-69,0.3,39,0.169565217391304,129,-0.629268292682927,
6987318,3164.0625,4960,-3.04107909258124,-15280,-9.36848559166156,-2960,1.81483752299203,12,3.71951219512195,-61,-0.731707317073171,-3,0.182926829268293,-68,0.295652173913043,40,0.173913043478261,128,-0.624390243902439,
6987958,3183.59375,4976,-3.05088902513795,-15184,-9.30962599632127,-2896,1.77559779276517,3,3.65853658536585,-60,-0.182926829268293,-4,0.24390243902439,-67,0.291304347826087,38,0.165217391304348,128,-0.624390243902439,
6988598,3203.125,4944,-3.03126916002452,-15120,-9.27038626609442,-2944,1.80502759043532,-10,3.35365853658537,-55,0.609756097560976,-6,0.365853658536585,-69,0.3,42,0.182608695652174,129,-0.629268292682927,
6989238,3222.65625,4896,-3.00183936235438,-15136,-9.28019619865113,-2912,1.78540772532189,-10,3.59756097560976,-59,0.609756097560976,-8,0.487804878048781,-71,0.308695652173913,36,0.156521739130435,128,-0.624390243902439,
6989878,3242.1875,4944,-3.03126916002452,-15168,-9.29981606376456,-2896,1.77559779276517,-14,3.59756097560976,-59,0.853658536585366,-11,0.670731707317073,-67,0.291304347826087,41,0.178260869565217,128,-0.624390243902439,
6990518,3261.71875,4960,-3.04107909258124,-15168,-9.29981606376456,-2976,1.82464745554874,-8,3.65853658536585,-60,0.487804878048781,-11,0.670731707317073,-69,0.3,41,0.178260869565217,129,-0.629268292682927,
6991158,3281.25,4992,-3.06069895769467,-15152,-9.29000613120785,-2976,1.82464745554874,-9,3.78048780487805,-62,0.548780487804878,-8,0.487804878048781,-69,0.3,40,0.173913043478261,128,-0.624390243902439,
6991798,3300.78125,4992,-3.06069895769467,-15200,-9.31943592887799,-2944,1.80502759043532,-13,3.84146341463415,-63,0.792682926829268,-7,0.426829268292683,-68,0.295652173913043,37,0.160869565217391,129,-0.629268292682927,
6992438,3320.3125,4992,-3.06069895769467,-15200,-9.31943592887799,-3024,1.85407725321888,-16,3.90243902439024,-64,0.975609756097561,-4,0.24390243902439,-68,0.295652173913043,43,0.18695652173913,128,-0.624390243902439,
6993078,3339.84375,4992,-3.06069895769467,-15200,-9.31943592887799,-2928,1.7952176578786,-24,4.08536585365854,-67,1.46341463414634,-5,0.304878048780488,-67,0.291304347826087,41,0.178260869565217,128,-0.624390243902439,
6993718,3359.375,5040,-3.09012875536481,-15024,-9.21152667075414,-2928,1.7952176578786,-30,4.08536585365854,-67,1.82926829268293,-10,0.609756097560976,-70,0.304347826086957,43,0.18695652173913,127,-0.619512195121951,
6994358,3378.90625,5056,-3.09993868792152,-15072,-9.24095646842428,-2896,1.77559779276517,-27,4.02439024390244,-66,1.64634146341463,-10,0.609756097560976,-70,0.304347826086957,39,0.169565217391304,129,-0.629268292682927,
6994998,3398.4375,5104,-3.12936848559166,-15104,-9.26057633353771,-2976,1.82464745554874,-27,4.26829268292683,-70,1.64634146341463,-9,0.548780487804878,-70,0.304347826086957,42,0.182608695652174,128,-0.624390243902439,
6995638,3417.96875,5056,-3.09993868792152,-15136,-9.28019619865113,-2976,1.82464745554874,-29,4.32926829268293,-71,1.76829268292683,-9,0.548780487804878,-67,0.291304347826087,38,0.165217391304348,128,-0.624390243902439,
6996278,3437.5,5024,-3.08031882280809,-15072,-9.24095646842428,-3024,1.85407725321888,-31,4.39024390243902,-72,1.89024390243902,-8,0.487804878048781,-68,0.295652173913043,38,0.165217391304348,128,-0.624390243902439,
6996918,3457.03125,5024,-3.08031882280809,-15088,-9.25076640098099,-3024,1.85407725321888,-29,4.63414634146342,-76,1.76829268292683,-11,0.670731707317073,-70,0.304347826086957,44,0.191304347826087,129,-0.629268292682927,
6997558,3476.5625,5024,-3.08031882280809,-15088,-9.25076640098099,-3024,1.85407725321888,-42,4.63414634146342,-76,2.5609756097561,-16,0.975609756097561,-69,0.3,45,0.195652173913043,129,-0.629268292682927,
6998198,3496.09375,5040,-3.09012875536481,-15072,-9.24095646842428,-2992,1.83445738810546,-40,4.69512195121951,-77,2.4390243902439,-9,0.548780487804878,-68,0.295652173913043,37,0.160869565217391,128,-0.624390243902439,
6998838,3515.625,5152,-3.1587982832618,-15008,-9.20171673819742,-2960,1.81483752299203,-32,4.26829268292683,-70,1.95121951219512,-11,0.670731707317073,-68,0.295652173913043,38,0.165217391304348,130,-0.634146341463415,
6999478,3535.15625,5120,-3.13917841814837,-15072,-9.24095646842428,-2960,1.81483752299203,-21,4.26829268292683,-70,1.28048780487805,-9,0.548780487804878,-70,0.304347826086957,40,0.173913043478261,130,-0.634146341463415,
7000118,3554.6875,5168,-3.16860821581852,-15056,-9.23114653586757,-2864,1.75597792765175,-15,4.20731707317073,-69,0.914634146341463,-8,0.487804878048781,-70,0.304347826086957,39,0.169565217391304,129,-0.629268292682927,
7000758,3574.21875,5168,-3.16860821581852,-15072,-9.24095646842428,-2960,1.81483752299203,-10,3.84146341463415,-63,0.609756097560976,-10,0.609756097560976,-68,0.295652173913043,37,0.160869565217391,129,-0.629268292682927,
7001398,3593.75,5120,-3.13917841814837,-15104,-9.26057633353771,-3008,1.84426732066217,-9,3.78048780487805,-62,0.548780487804878,-13,0.792682926829268,-70,0.304347826086957,42,0.182608695652174,128,-0.624390243902439,
7002038,3613.28125,5104,-3.12936848559166,-15072,-9.24095646842428,-3056,1.87369711833231,-3,3.35365853658537,-55,0.182926829268293,-13,0.792682926829268,-68,0.295652173913043,40,0.173913043478261,128,-0.624390243902439,
7002678,3632.8125,5088,-3.11955855303495,-15088,-9.25076640098099,-3104,1.90312691600245,3,3.35365853658537,-55,-0.182926829268293,-13,0.792682926829268,-68,0.295652173913043,41,0.178260869565217,128,-0.624390243902439,
7003318,3652.34375,5168,-3.16860821581852,-15056,-9.23114653586757,-3104,1.90312691600245,14,3.35365853658537,-55,-0.853658536585366,-12,0.731707317073171,-69,0.3,38,0.165217391304348,129,-0.629268292682927,
7003958,3671.875,5152,-3.1587982832618,-15024,-9.21152667075414,-3152,1.93255671367259,31,3.17073170731707,-52,-1.89024390243902,-10,0.609756097560976,-70,0.304347826086957,38,0.165217391304348,129,-0.629268292682927,
7004598,3691.40625,5280,-3.23727774371551,-15008,-9.20171673819742,-3120,1.91293684855917,26,3.10975609756098,-51,-1.58536585365854,-12,0.731707317073171,-70,0.304347826086957,40,0.173913043478261,128,-0.624390243902439,
7005238,3710.9375,5360,-3.28632740649908,-15104,-9.26057633353771,-3168,1.94236664622931,70,2.98780487804878,-49,-4.26829268292683,-15,0.914634146341463,-68,0.295652173913043,39,0.169565217391304,128,-0.624390243902439,
7005878,3730.46875,4976,-3.05088902513795,-15184,-9.30962599632127,-2960,1.81483752299203,70,3.29268292682927,-54,-4.26829268292683,-17,1.03658536585366,-70,0.304347826086957,39,0.169565217391304,129,-0.629268292682927,
7006518,3750,5024,-3.08031882280809,-15216,-9.3292458614347,-3056,1.87369711833231,11,3.17073170731707,-52,-0.670731707317073,-17,1.03658536585366,-69,0.3,39,0.169565217391304,129,-0.629268292682927,
7007158,3769.53125,5040,-3.09012875536481,-15072,-9.24095646842428,-3088,1.89331698344574,37,3.41463414634146,-56,-2.25609756097561,-19,1.15853658536585,-69,0.3,37,0.160869565217391,128,-0.624390243902439,
7007798,3789.0625,5008,-3.07050889025138,-15088,-9.25076640098099,-3072,1.88350705088903,26,3.35365853658537,-55,-1.58536585365854,-20,1.21951219512195,-70,0.304347826086957,37,0.160869565217391,129,-0.629268292682927,
7008438,3808.59375,4992,-3.06069895769467,-15072,-9.24095646842428,-3072,1.88350705088903,7,3.29268292682927,-54,-0.426829268292683,-13,0.792682926829268,-69,0.3,42,0.182608695652174,129,-0.629268292682927,
7009078,3828.125,5104,-3.12936848559166,-15168,-9.29981606376456,-3040,1.8638871857756,13,3.53658536585366,-58,-0.792682926829268,-4,0.24390243902439,-70,0.304347826086957,42,0.182608695652174,128,-0.624390243902439,
7009718,3847.65625,5088,-3.11955855303495,-15136,-9.28019619865113,-3072,1.88350705088903,26,3.29268292682927,-54,-1.58536585365854,0,0,-69,0.3,38,0.165217391304348,129,-0.629268292682927,
7010358,3867.1875,4992,-3.06069895769467,-15072,-9.24095646842428,-3120,1.91293684855917,25,3.23170731707317,-53,-1.52439024390244,-2,0.121951219512195,-68,0.295652173913043,38,0.165217391304348,130,-0.634146341463415,
7010998,3886.71875,5040,-3.09012875536481,-15072,-9.24095646842428,-3104,1.90312691600245,19,3.29268292682927,-54,-1.15853658536585,-3,0.182926829268293,-69,0.3,40,0.173913043478261,130,-0.634146341463415,
7011638,3906.25,5040,-3.09012875536481,-15120,-9.27038626609442,-3072,1.88350705088903,24,3.35365853658537,-55,-1.46341463414634,-2,0.121951219512195,-70,0.304347826086957,40,0.173913043478261,129,-0.629268292682927,
7012278,3925.78125,5120,-3.13917841814837,-15104,-9.26057633353771,-3088,1.89331698344574,28,3.47560975609756,-57,-1.70731707317073,2,-0.121951219512195,-67,0.291304347826087,38,0.165217391304348,130,-0.634146341463415,
7012918,3945.3125,5104,-3.12936848559166,-15152,-9.29000613120785,-3152,1.93255671367259,32,3.04878048780488,-50,-1.95121951219512,-1,0.0609756097560976,-68,0.295652173913043,37,0.160869565217391,130,-0.634146341463415,
7013558,3964.84375,5024,-3.08031882280809,-15152,-9.29000613120785,-3120,1.91293684855917,27,3.17073170731707,-52,-1.64634146341463,-4,0.24390243902439,-68,0.295652173913043,42,0.182608695652174,129,-0.629268292682927,
7014198,3984.375,4944,-3.03126916002452,-15088,-9.25076640098099,-3152,1.93255671367259,15,3.29268292682927,-54,-0.914634146341463,-4,0.24390243902439,-67,0.291304347826087,41,0.178260869565217,128,-0.624390243902439,
7014838,4003.90625,4976,-3.05088902513795,-15104,-9.26057633353771,-3088,1.89331698344574,14,3.29268292682927,-54,-0.853658536585366,-5,0.304878048780488,-68,0.295652173913043,40,0.173913043478261,130,-0.634146341463415,
7015478,4023.4375,4960,-3.04107909258124,-15040,-9.22133660331085,-3136,1.92274678111588,6,3.53658536585366,-58,-0.365853658536585,-6,0.365853658536585,-68,0.295652173913043,40,0.173913043478261,129,-0.629268292682927,
7016118,4042.96875,5040,-3.09012875536481,-15040,-9.22133660331085,-3280,2.0110361741263,6,3.65853658536585,-60,-0.365853658536585,-5,0.304878048780488,-69,0.3,43,0.18695652173913,128,-0.624390243902439,
7016758,4062.5,5088,-3.11955855303495,-15072,-9.24095646842428,-3264,2.00122624156959,17,3.90243902439024,-64,-1.03658536585366,-4,0.24390243902439,-69,0.3,39,0.169565217391304,129,-0.629268292682927,
7017398,4082.03125,5184,-3.17841814837523,-15120,-9.27038626609442,-3328,2.04046597179644,32,4.51219512195122,-74,-1.95121951219512,-7,0.426829268292683,-68,0.295652173913043,38,0.165217391304348,130,-0.634146341463415,
7018038,4101.5625,5200,-3.18822808093194,-15184,-9.30962599632127,-3392,2.0797057020233,41,4.9390243902439,-81,-2.5,-1,0.0609756097560976,-68,0.295652173913043,42,0.182608695652174,128,-0.624390243902439,
7018678,4121.09375,5280,-3.23727774371551,-15136,-9.28019619865113,-3488,2.13856529736358,57,5.18292682926829,-85,-3.47560975609756,-8,0.487804878048781,-67,0.291304347826087,37,0.160869565217391,129,-0.629268292682927,
7019318,4140.625,5328,-3.26670754138565,-15104,-9.26057633353771,-3472,2.12875536480687,80,5.36585365853659,-88,-4.87804878048781,-10,0.609756097560976,-67,0.291304347826087,37,0.160869565217391,129,-0.629268292682927,
7019958,4160.15625,5376,-3.29613733905579,-15232,-9.33905579399141,-3440,2.10913549969344,100,5.54878048780488,-91,-6.09756097560976,-9,0.548780487804878,-71,0.308695652173913,42,0.182608695652174,129,-0.629268292682927,
7020598,4179.6875,5360,-3.28632740649908,-15152,-9.29000613120785,-3392,2.0797057020233,130,5.67073170731707,-93,-7.92682926829268,-8,0.487804878048781,-69,0.3,41,0.178260869565217,130,-0.634146341463415,
7021238,4199.21875,5264,-3.2274678111588,-15072,-9.24095646842428,-3408,2.08951563458001,163,5.97560975609756,-98,-9.9390243902439,-8,0.487804878048781,-67,0.291304347826087,40,0.173913043478261,128,-0.624390243902439,
7021878,4218.75,5152,-3.1587982832618,-14944,-9.16247700797057,-3424,2.09932556713673,162,6.40243902439024,-105,-9.87804878048781,-15,0.914634146341463,-67,0.291304347826087,37,0.160869565217391,130,-0.634146341463415,
7022518,4238.28125,5088,-3.11955855303495,-15008,-9.20171673819742,-3584,2.19742489270386,124,6.03658536585366,-99,-7.5609756097561,-24,1.46341463414634,-71,0.308695652173913,40,0.173913043478261,128,-0.624390243902439,
7023158,4257.8125,5568,-3.41385652973636,-14992,-9.19190680564071,-3664,2.24647455548743,111,6.09756097560976,-100,-6.76829268292683,-32,1.95121951219512,-67,0.291304347826087,41,0.178260869565217,128,-0.624390243902439,
7023798,4277.34375,5776,-3.54138565297364,-15088,-9.25076640098099,-4320,2.64868179031269,236,5.60975609756098,-92,-14.390243902439,-22,1.34146341463415,-66,0.28695652173913,37,0.160869565217391,130,-0.634146341463415,
7024438,4296.875,5664,-3.47271612507664,-15056,-9.23114653586757,-5152,3.1587982832618,351,7.25609756097561,-119,-21.4024390243902,-16,0.975609756097561,-67,0.291304347826087,41,0.178260869565217,128,-0.624390243902439,
7025078,4316.40625,6144,-3.76701410177805,-15136,-9.28019619865113,-5920,3.62967504598406,309,10.2439024390244,-168,-18.8414634146341,-6,0.365853658536585,-65,0.282608695652174,41,0.178260869565217,129,-0.629268292682927,
7025718,4335.9375,7216,-4.42427958307787,-15392,-9.43715511955855,-6944,4.25751072961373,327,13.4756097560976,-221,-19.9390243902439,25,-1.52439024390244,-66,0.28695652173913,39,0.169565217391304,129,-0.629268292682927,
7026358,4355.46875,8448,-5.17964438994482,-15312,-9.38810545677498,-8080,4.9540159411404,564,20,-328,-34.390243902439,40,-2.4390243902439,-64,0.278260869565217,39,0.169565217391304,131,-0.639024390243902,
7026998,4375,8688,-5.32679337829552,-15376,-9.42734518700184,-9392,5.75843041079093,966,29.3292682926829,-481,-58.9024390243902,58,-3.53658536585366,-64,0.278260869565217,39,0.169565217391304,130,-0.634146341463415,
7027638,4394.53125,8160,-5.00306560392397,-15744,-9.65297363580625,-10016,6.14101778050276,1184,39.6341463414634,-650,-72.1951219512195,32,-1.95121951219512,-60,0.260869565217391,35,0.152173913043478,130,-0.634146341463415,
7028278,4414.0625,7648,-4.68914776210914,-16352,-10.0257510729614,-10592,6.49417535254445,1176,49.8780487804878,-818,-71.7073170731707,-26,1.58536585365854,-61,0.265217391304348,34,0.147826086956522,132,-0.64390243902439,
7028918,4433.59375,7296,-4.47332924586143,-16752,-10.2709993868792,-11008,6.74923359901901,1093,59.7560975609756,-980,-66.6463414634146,-55,3.35365853658537,-60,0.260869565217391,35,0.152173913043478,132,-0.64390243902439,
7029558,4453.125,7440,-4.56161863887186,-16800,-10.3004291845494,-11568,7.09258123850398,913,69.9390243902439,-1147,-55.6707317073171,-152,9.26829268292683,-57,0.247826086956522,32,0.139130434782609,132,-0.64390243902439,
7030198,4472.65625,7504,-4.60085836909871,-17072,-10.4671980380135,-12080,7.40649908031882,819,81.0975609756098,-1330,-49.9390243902439,-227,13.8414634146341,-55,0.239130434782609,29,0.126086956521739,135,-0.658536585365854,
7030838,4492.1875,7808,-4.78724708767627,-17376,-10.653586756591,-12528,7.68117719190681,739,90.2439024390244,-1480,-45.0609756097561,-290,17.6829268292683,-57,0.247826086956522,34,0.147826086956522,137,-0.668292682926829,
7031478,4511.71875,8160,-5.00306560392397,-17664,-10.8301655426119,-12688,7.77927651747394,717,99.8780487804878,-1638,-43.719512195122,-391,23.8414634146341,-56,0.243478260869565,31,0.134782608695652,139,-0.678048780487805,
7032118,4531.25,7760,-4.75781729000613,-17840,-10.9380748007357,-12672,7.76946658491723,777,110.30487804878,-1809,-47.3780487804878,-487,29.6951219512195,-54,0.234782608695652,25,0.108695652173913,140,-0.682926829268293,
7032758,4550.78125,7024,-4.3065603923973,-17760,-10.8890251379522,-12400,7.6026977314531,762,120.426829268293,-1975,-46.4634146341463,-617,37.6219512195122,-54,0.234782608695652,22,0.0956521739130435,145,-0.707317073170732,
7033398,4570.3125,6688,-4.10055180870631,-17712,-10.859595340282,-12256,7.51440833844267,652,126.280487804878,-2071,-39.7560975609756,-717,43.719512195122,-55,0.239130434782609,24,0.104347826086957,145,-0.707317073170732,
7034038,4589.84375,6624,-4.06131207847946,-17312,-10.6143470263642,-12112,7.42611894543225,535,131.646341463415,-2159,-32.6219512195122,-792,48.2926829268293,-56,0.243478260869565,20,0.0869565217391304,147,-0.717073170731707,
7034678,4609.375,6896,-4.22808093194359,-16720,-10.2513795217658,-12128,7.43592887798896,421,136.646341463415,-2241,-25.6707317073171,-870,53.0487804878049,-54,0.234782608695652,15,0.0652173913043478,151,-0.736585365853659,
7035318,4628.90625,6784,-4.1594114040466,-16192,-9.92765174739424,-11584,7.1023911710607,394,140.426829268293,-2303,-24.0243902439024,-935,57.0121951219512,-56,0.243478260869565,9,0.0391304347826087,153,-0.746341463414634,
7035958,4648.4375,6720,-4.12017167381974,-15568,-9.5450643776824,-10992,6.73942366646229,418,141.158536585366,-2315,-25.4878048780488,-991,60.4268292682927,-55,0.239130434782609,10,0.0434782608695652,155,-0.75609756097561,
7036598,4667.96875,6128,-3.75720416922134,-14976,-9.182096873084,-10464,6.41569589209074,502,140.487804878049,-2304,-30.609756097561,-1013,61.7682926829268,-54,0.234782608695652,5,0.0217391304347826,157,-0.765853658536585,
7037238,4687.5,5664,-3.47271612507664,-13856,-8.49540159411404,-10048,6.16063764561619,517,140.426829268293,-2303,-31.5243902439024,-999,60.9146341463415,-54,0.234782608695652,2,0.00869565217391304,160,-0.780487804878049,
7037878,4707.03125,5968,-3.6591048436542,-12720,-7.79889638258737,-9968,6.11158798283262,453,135.548780487805,-2223,-27.6219512195122,-1018,62.0731707317073,-54,0.234782608695652,-4,-0.0173913043478261,162,-0.790243902439024,
7038518,4726.5625,6080,-3.7277743715512,-11824,-7.2495401594114,-10000,6.13120784794604,551,131.524390243902,-2157,-33.5975609756098,-1017,62.0121951219512,-52,0.226086956521739,-3,-0.0130434782608696,162,-0.790243902439024,
7039158,4746.09375,5712,-3.50214592274678,-11120,-6.817903126916,-9984,6.12139791538933,718,127.865853658537,-2097,-43.780487804878,-1007,61.4024390243902,-52,0.226086956521739,-9,-0.0391304347826087,165,-0.804878048780488,
7039798,4765.625,5408,-3.31575720416922,-10688,-6.55303494788473,-10080,6.18025751072961,832,123.292682926829,-2022,-50.7317073170732,-968,59.0243902439024,-52,0.226086956521739,-10,-0.0434782608695652,163,-0.795121951219512,
7040438,4785.15625,4896,-3.00183936235438,-9872,-6.05272838749234,-10144,6.21949724095647,842,120.426829268293,-1975,-51.3414634146341,-922,56.219512195122,-49,0.21304347826087,-19,-0.0826086956521739,166,-0.809756097560976,
7041078,4804.6875,4608,-2.82526057633354,-8864,-5.43470263641937,-10192,6.24892703862661,798,115.853658536585,-1900,-48.6585365853659,-877,53.4756097560976,-49,0.21304347826087,-14,-0.0608695652173913,165,-0.804878048780488,
7041718,4824.21875,4336,-2.6584917228694,-7840,-4.8068669527897,-10320,6.32740649908032,800,108.90243902439,-1786,-48.7804878048781,-843,51.4024390243902,-47,0.204347826086957,-19,-0.0826086956521739,164,-0.8,
7042358,4843.75,3808,-2.33476394849785,-6880,-4.21827099938688,-10416,6.3862660944206,804,104.024390243902,-1706,-49.0243902439024,-801,48.8414634146341,-44,0.191304347826087,-24,-0.104347826086957,167,-0.814634146341463,
7042998,4863.28125,3184,-1.95217657878602,-6112,-3.74739423666462,-10352,6.34702636419375,710,99.0853658536585,-1625,-43.2926829268293,-756,46.0975609756098,-41,0.178260869565217,-26,-0.11304347826087,167,-0.814634146341463,
7043638,4882.8125,2848,-1.74616799509503,-5312,-3.25689760882894,-10384,6.36664622930717,583,93.0487804878049,-1526,-35.5487804878049,-714,43.5365853658537,-40,0.173913043478261,-32,-0.139130434782609,166,-0.809756097560976,
7044278,4902.34375,2784,-1.70692826486818,-4464,-2.73697118332311,-10560,6.47455548743102,475,86.890243902439,-1425,-28.9634146341463,-662,40.3658536585366,-39,0.169565217391304,-35,-0.152173913043478,167,-0.814634146341463,
7044918,4921.875,2800,-1.71673819742489,-3712,-2.27590435315757,-10720,6.57265481299816,446,80.3658536585366,-1318,-27.1951219512195,-620,37.8048780487805,-39,0.169565217391304,-34,-0.147826086956522,166,-0.809756097560976,
7045558,4941.40625,2720,-1.66768853464132,-3040,-1.8638871857756,-10848,6.65113427345187,475,74.3292682926829,-1219,-28.9634146341463,-573,34.9390243902439,-37,0.160869565217391,-37,-0.160869565217391,163,-0.795121951219512,
7046198,4960.9375,2368,-1.45187001839362,-2576,-1.5793991416309,-11056,6.77866339668915,489,68.780487804878,-1128,-29.8170731707317,-514,31.3414634146341,-36,0.156521739130435,-38,-0.165217391304348,164,-0.8,
7046838,4980.46875,2000,-1.22624156958921,-1920,-1.17719190680564,-11136,6.82771305947272,483,62.2560975609756,-1021,-29.4512195121951,-439,26.7682926829268,-33,0.143478260869565,-43,-0.18695652173913,167,-0.814634146341463,
7047478,5000,1568,-0.96137339055794,-1360,-0.833844267320662,-11344,6.95524218270999,456,56.4024390243902,-925,-27.8048780487805,-346,21.0975609756098,-34,0.147826086956522,-39,-0.169565217391304,163,-0.795121951219512,
7048118,5019.53125,1424,-0.873083997547517,-784,-0.48068669527897,-11616,7.12201103617413,395,50.0609756097561,-821,-24.0853658536585,-259,15.7926829268293,-34,0.147826086956522,-43,-0.18695652173913,163,-0.795121951219512,
7048758,5039.0625,1488,-0.912323727774372,-448,-0.274678111587983,-11728,7.19068056407112,354,45.1829268292683,-741,-21.5853658536585,-172,10.4878048780488,-32,0.139130434782609,-45,-0.195652173913043,163,-0.795121951219512,
7049398,5058.59375,1296,-0.794604537093807,-32,-0.0196198651134273,-11840,7.25935009196812,345,40.0609756097561,-657,-21.0365853658537,-75,4.57317073170732,-30,0.130434782608696,-46,-0.2,163,-0.795121951219512,
7050038,5078.125,1024,-0.627835683629675,320,0.196198651134273,-11856,7.26916002452483,289,34.2682926829268,-562,-17.6219512195122,13,-0.792682926829268,-29,0.126086956521739,-48,-0.208695652173913,162,-0.790243902439024,
7050678,5097.65625,1072,-0.657265481299816,528,0.323727774371551,-12000,7.35744941753525,125,29.0853658536585,-477,-7.6219512195122,90,-5.48780487804878,-30,0.130434782608696,-50,-0.217391304347826,162,-0.790243902439024,
7051318,5117.1875,1744,-1.06928264868179,800,0.490496627835684,-11872,7.27896995708154,-13,25.4268292682927,-417,0.792682926829268,85,-5.18292682926829,-29,0.126086956521739,-50,-0.217391304347826,162,-0.790243902439024,
7051958,5136.71875,2656,-1.62844880441447,928,0.568976088289393,-12000,7.35744941753525,57,20.2439024390244,-332,-3.47560975609756,76,-4.63414634146342,-29,0.126086956521739,-50,-0.217391304347826,161,-0.785365853658537,
7052598,5156.25,2464,-1.51072961373391,976,0.598405885959534,-12144,7.44573881054568,364,15.9756097560976,-262,-22.1951219512195,69,-4.20731707317073,-31,0.134782608695652,-46,-0.2,161,-0.785365853658537,
7053238,5175.78125,1568,-0.96137339055794,976,0.598405885959534,-12384,7.59288779889638,532,11.219512195122,-184,-32.4390243902439,41,-2.5,-26,0.11304347826087,-53,-0.230434782608696,161,-0.785365853658537,
7053878,5195.3125,1280,-0.784794604537094,864,0.529736358062538,-12784,7.83813611281422,533,6.28048780487805,-103,-32.5,25,-1.52439024390244,-26,0.11304347826087,-48,-0.208695652173913,160,-0.780487804878049,
7054518,5214.84375,1360,-0.833844267320662,544,0.333537706928265,-13696,8.3973022685469,530,2.68292682926829,-44,-32.3170731707317,26,-1.58536585365854,-26,0.11304347826087,-49,-0.21304347826087,161,-0.785365853658537,
7055158,5234.375,1248,-0.765174739423666,352,0.215818516247701,-14512,8.8976088289393,574,0.792682926829268,-13,-35,36,-2.19512195121951,-23,0.1,-52,-0.226086956521739,159,-0.775609756097561,
7055798,5253.90625,1024,-0.627835683629675,48,0.029429797670141,-15296,9.37829552421827,557,-1.46341463414634,24,-33.9634146341463,52,-3.17073170731707,-23,0.1,-50,-0.217391304347826,159,-0.775609756097561,
7056438,5273.4375,848,-0.519926425505825,-128,-0.0784794604537094,-16112,9.87860208461067,457,-1.89024390243902,31,-27.8658536585366,73,-4.45121951219512,-22,0.0956521739130435,-49,-0.21304347826087,157,-0.765853658536585,
7057078,5292.96875,704,-0.431637032495402,32,0.0196198651134273,-16576,10.1630901287554,309,-1.52439024390244,25,-18.8414634146341,52,-3.17073170731707,-22,0.0956521739130435,-50,-0.217391304347826,156,-0.760975609756098,
7057718,5312.5,1200,-0.735744941753525,-96,-0.058859595340282,-16736,10.2611894543225,28,1.40243902439024,-23,-1.70731707317073,-37,2.25609756097561,-24,0.104347826086957,-44,-0.191304347826087,157,-0.765853658536585,
7058358,5332.03125,1504,-0.922133660331085,80,0.0490496627835684,-16848,10.3298589822195,100,3.17073170731707,-52,-6.09756097560976,-53,3.23170731707317,-21,0.091304347826087,-49,-0.21304347826087,155,-0.75609756097561,
7058998,5351.5625,1424,-0.873083997547517,144,0.088289393010423,-16736,10.2611894543225,82,4.69512195121951,-77,-5,-63,3.84146341463415,-21,0.091304347826087,-49,-0.21304347826087,156,-0.760975609756098,
7059638,5371.09375,1328,-0.814224402207235,320,0.196198651134273,-16544,10.1434702636419,52,5.24390243902439,-86,-3.17073170731707,-71,4.32926829268293,-20,0.0869565217391304,-52,-0.226086956521739,158,-0.770731707317073,
7060278,5390.625,1584,-0.971183323114654,432,0.264868179031269,-16320,10.0061312078479,89,5.24390243902439,-86,-5.42682926829268,-79,4.81707317073171,-20,0.0869565217391304,-50,-0.217391304347826,158,-0.770731707317073,
7060918,5410.15625,1808,-1.10852237890864,512,0.313917841814838,-16080,9.85898221949724,154,4.81707317073171,-79,-9.39024390243902,-93,5.67073170731707,-19,0.0826086956521739,-48,-0.208695652173913,156,-0.760975609756098,
7061558,5429.6875,1728,-1.05947271612508,640,0.392397302268547,-16096,9.86879215205395,227,4.51219512195122,-74,-13.8414634146341,-91,5.54878048780488,-20,0.0869565217391304,-50,-0.217391304347826,157,-0.765853658536585,
7062198,5449.21875,1296,-0.794604537093807,944,0.578786020846107,-16112,9.87860208461067,253,4.81707317073171,-79,-15.4268292682927,-83,5.0609756097561,-22,0.0956521739130435,-47,-0.204347826086957,156,-0.760975609756098,
7062838,5468.75,880,-0.539546290619252,1040,0.637645616186389,-16224,9.94727161250766,219,4.08536585365854,-67,-13.3536585365854,-66,4.02439024390244,-21,0.091304347826087,-51,-0.221739130434783,157,-0.765853658536585,
7063478,5488.28125,544,-0.333537706928265,976,0.598405885959534,-16320,10.0061312078479,161,4.32926829268293,-71,-9.81707317073171,-44,2.68292682926829,-19,0.0826086956521739,-45,-0.195652173913043,154,-0.751219512195122,
7064118,5507.8125,656,-0.402207234825261,816,0.500306560392397,-16448,10.0846106683017,110,4.75609756097561,-78,-6.70731707317073,-39,2.37804878048781,-21,0.091304347826087,-46,-0.2,154,-0.751219512195122,
7064758,5527.34375,896,-0.549356223175966,944,0.578786020846107,-16656,10.2121397915389,131,5.30487804878049,-87,-7.98780487804878,-36,2.19512195121951,-18,0.0782608695652174,-49,-0.21304347826087,155,-0.75609756097561,
7065398,5546.875,976,-0.598405885959534,752,0.461066830165543,-16720,10.2513795217658,204,6.70731707317073,-110,-12.4390243902439,-31,1.89024390243902,-19,0.0826086956521739,-47,-0.204347826086957,155,-0.75609756097561,
7066038,5566.40625,608,-0.37277743715512,704,0.431637032495402,-16816,10.3102391171061,164,8.41463414634146,-138,-10,-21,1.28048780487805,-21,0.091304347826087,-47,-0.204347826086957,153,-0.746341463414634,
7066678,5585.9375,128,-0.0784794604537094,752,0.461066830165543,-16496,10.1140404659718,33,9.02439024390244,-148,-2.01219512195122,-33,2.01219512195122,-17,0.0739130434782609,-52,-0.226086956521739,155,-0.75609756097561,
7067318,5605.46875,320,-0.196198651134273,784,0.48068669527897,-16192,9.92765174739424,-64,9.26829268292683,-152,3.90243902439024,-38,2.31707317073171,-19,0.0826086956521739,-47,-0.204347826086957,155,-0.75609756097561,
7067958,5625,1024,-0.627835683629675,848,0.519926425505825,-15840,9.71183323114654,40,8.84146341463415,-145,-2.4390243902439,-45,2.74390243902439,-18,0.0782608695652174,-49,-0.21304347826087,154,-0.751219512195122,
7068598,5644.53125,1552,-0.951563458001226,1072,0.657265481299816,-15600,9.56468424279583,296,6.70731707317073,-110,-18.0487804878049,-36,2.19512195121951,-18,0.0782608695652174,-50,-0.217391304347826,155,-0.75609756097561,
7069238,5664.0625,1088,-0.66707541385653,1008,0.618025751072961,-15600,9.56468424279583,429,6.46341463414634,-106,-26.1585365853659,-18,1.09756097560976,-16,0.0695652173913043,-52,-0.226086956521739,155,-0.75609756097561,
7069878,5683.59375,-80,0.0490496627835684,1120,0.686695278969957,-15744,9.65297363580625,259,5.79268292682927,-95,-15.7926829268293,-14,0.853658536585366,-18,0.0782608695652174,-48,-0.208695652173913,153,-0.746341463414634,
7070518,5703.125,-256,0.156958920907419,1216,0.745554874310239,-15584,9.55487431023912,49,5.42682926829268,-89,-2.98780487804878,-21,1.28048780487805,-17,0.0739130434782609,-47,-0.204347826086957,151,-0.736585365853659,
7071158,5722.65625,96,-0.058859595340282,1168,0.716125076640098,-15824,9.70202329858982,-20,5.24390243902439,-86,1.21951219512195,-21,1.28048780487805,-16,0.0695652173913043,-48,-0.208695652173913,152,-0.741463414634146,
7071798,5742.1875,448,-0.274678111587983,1200,0.735744941753525,-15952,9.78050275904353,-16,5.48780487804878,-90,0.975609756097561,-29,1.76829268292683,-17,0.0739130434782609,-51,-0.221739130434783,155,-0.75609756097561,
7072438,5761.71875,368,-0.225628448804414,1184,0.725935009196812,-15952,9.78050275904353,22,5.85365853658537,-96,-1.34146341463415,-21,1.28048780487805,-15,0.0652173913043478,-50,-0.217391304347826,153,-0.746341463414634,
7073078,5781.25,224,-0.137339055793991,1264,0.77498467198038,-15968,9.79031269160024,0,5.85365853658537,-96,0,-18,1.09756097560976,-16,0.0695652173913043,-52,-0.226086956521739,152,-0.741463414634146,
7073718,5800.78125,176,-0.10790925812385,1328,0.814224402207235,-15824,9.70202329858982,-47,5.1219512195122,-84,2.86585365853659,-9,0.548780487804878,-17,0.0739130434782609,-49,-0.21304347826087,152,-0.741463414634146,
7074358,5820.3125,272,-0.166768853464132,1328,0.814224402207235,-15904,9.75107296137339,-61,4.32926829268293,-71,3.71951219512195,-16,0.975609756097561,-18,0.0782608695652174,-51,-0.221739130434783,152,-0.741463414634146,
7074998,5839.84375,592,-0.362967504598406,1376,0.843654199877376,-16000,9.80993255671367,1,3.59756097560976,-59,-0.0609756097560976,-6,0.365853658536585,-15,0.0652173913043478,-54,-0.234782608695652,153,-0.746341463414634,
7075638,5859.375,656,-0.402207234825261,1184,0.725935009196812,-15904,9.75107296137339,137,4.08536585365854,-67,-8.35365853658537,13,-0.792682926829268,-16,0.0695652173913043,-49,-0.21304347826087,152,-0.741463414634146,
7076278,5878.90625,352,-0.215818516247701,1056,0.647455548743102,-16064,9.84917228694053,204,4.20731707317073,-69,-12.4390243902439,31,-1.89024390243902,-16,0.0695652173913043,-48,-0.208695652173913,154,-0.751219512195122,
7076918,5898.4375,112,-0.0686695278969957,1008,0.618025751072961,-16304,9.99632127529123,142,4.81707317073171,-79,-8.65853658536586,26,-1.58536585365854,-15,0.0652173913043478,-48,-0.208695652173913,154,-0.751219512195122,
7077558,5917.96875,-16,0.00980993255671367,1232,0.755364806866953,-16544,10.1434702636419,59,4.9390243902439,-81,-3.59756097560976,11,-0.670731707317073,-13,0.0565217391304348,-53,-0.230434782608696,153,-0.746341463414634,
7078198,5937.5,64,-0.0392397302268547,1408,0.863274064990803,-16496,10.1140404659718,-2,4.9390243902439,-81,0.121951219512195,8,-0.487804878048781,-15,0.0652173913043478,-53,-0.230434782608696,154,-0.751219512195122,
7078838,5957.03125,288,-0.176578786020846,1424,0.873083997547517,-16576,10.1630901287554,10,5.36585365853659,-88,-0.609756097560976,10,-0.609756097560976,-16,0.0695652173913043,-51,-0.221739130434783,153,-0.746341463414634,
7079478,5976.5625,464,-0.284488044144696,1328,0.814224402207235,-16448,10.0846106683017,45,5.36585365853659,-88,-2.74390243902439,14,-0.853658536585366,-16,0.0695652173913043,-51,-0.221739130434783,153,-0.746341463414634,
7080118,5996.09375,560,-0.343347639484979,1120,0.686695278969957,-16272,9.9767014101778,116,5.91463414634146,-97,-7.07317073170732,10,-0.609756097560976,-14,0.0608695652173913,-53,-0.230434782608696,153,-0.746341463414634,
7080758,6015.625,320,-0.196198651134273,1008,0.618025751072961,-16144,9.89822194972409,139,6.70731707317073,-110,-8.47560975609756,10,-0.609756097560976,-13,0.0565217391304348,-47,-0.204347826086957,150,-0.731707317073171,
7081398,6035.15625,224,-0.137339055793991,1008,0.618025751072961,-15984,9.80012262415696,123,6.82926829268293,-112,-7.5,13,-0.792682926829268,-17,0.0739130434782609,-50,-0.217391304347826,150,-0.731707317073171,
7082038,6054.6875,224,-0.137339055793991,976,0.598405885959534,-15984,9.80012262415696,108,6.95121951219512,-114,-6.58536585365854,13,-0.792682926829268,-15,0.0652173913043478,-50,-0.217391304347826,151,-0.736585365853659,
7082678,6074.21875,224,-0.137339055793991,976,0.598405885959534,-16000,9.80993255671367,83,6.82926829268293,-112,-5.0609756097561,2,-0.121951219512195,-15,0.0652173913043478,-49,-0.21304347826087,149,-0.726829268292683,
7083318,6093.75,160,-0.0980993255671367,1024,0.627835683629675,-15888,9.74126302881668,66,6.95121951219512,-114,-4.02439024390244,-2,0.121951219512195,-14,0.0608695652173913,-50,-0.217391304347826,152,-0.741463414634146,
7083958,6113.28125,48,-0.029429797670141,1056,0.647455548743102,-15840,9.71183323114654,15,6.89024390243902,-113,-0.914634146341463,-2,0.121951219512195,-12,0.0521739130434783,-53,-0.230434782608696,151,-0.736585365853659,
7084598,6132.8125,128,-0.0784794604537094,1104,0.676885346413243,-15920,9.7608828939301,-18,6.40243902439024,-105,1.09756097560976,1,-0.0609756097560976,-13,0.0565217391304348,-53,-0.230434782608696,151,-0.736585365853659,
7085238,6152.34375,224,-0.137339055793991,1152,0.706315144083384,-15872,9.73145309625996,7,5.36585365853659,-88,-0.426829268292683,-4,0.24390243902439,-16,0.0695652173913043,-49,-0.21304347826087,149,-0.726829268292683,
7085878,6171.875,112,-0.0686695278969957,1248,0.765174739423666,-15808,9.69221336603311,29,5.1219512195122,-84,-1.76829268292683,-12,0.731707317073171,-13,0.0565217391304348,-54,-0.234782608695652,152,-0.741463414634146,
7086518,6191.40625,128,-0.0784794604537094,1344,0.824034334763949,-15792,9.6824034334764,37,4.39024390243902,-72,-2.25609756097561,-12,0.731707317073171,-12,0.0521739130434783,-55,-0.239130434782609,152,-0.741463414634146,
7087158,6210.9375,96,-0.058859595340282,1424,0.873083997547517,-15792,9.6824034334764,81,4.26829268292683,-70,-4.9390243902439,-9,0.548780487804878,-12,0.0521739130434783,-55,-0.239130434782609,151,-0.736585365853659,
7087798,6230.46875,16,-0.00980993255671367,1392,0.853464132434089,-15904,9.75107296137339,128,3.35365853658537,-55,-7.80487804878049,0,0,-13,0.0565217391304348,-51,-0.221739130434783,152,-0.741463414634146,
7088438,6250,-224,0.137339055793991,1392,0.853464132434089,-15920,9.7608828939301,129,3.53658536585366,-58,-7.86585365853659,6,-0.365853658536585,-13,0.0565217391304348,-52,-0.226086956521739,151,-0.736585365853659,
7089078,6269.53125,-400,0.245248313917842,1520,0.931943592887799,-15936,9.77069282648682,75,3.47560975609756,-57,-4.57317073170732,9,-0.548780487804878,-14,0.0608695652173913,-47,-0.204347826086957,149,-0.726829268292683,
7089718,6289.0625,-416,0.255058246474555,1456,0.892703862660944,-15984,9.80012262415696,10,3.71951219512195,-61,-0.609756097560976,6,-0.365853658536585,-11,0.0478260869565217,-55,-0.239130434782609,150,-0.731707317073171,
7090358,6308.59375,-288,0.176578786020846,1392,0.853464132434089,-15920,9.7608828939301,-7,3.71951219512195,-61,0.426829268292683,16,-0.975609756097561,-14,0.0608695652173913,-53,-0.230434782608696,150,-0.731707317073171,
7090998,6328.125,-240,0.147148988350705,1440,0.88289393010423,-15968,9.79031269160024,12,3.17073170731707,-52,-0.731707317073171,19,-1.15853658536585,-14,0.0608695652173913,-50,-0.217391304347826,150,-0.731707317073171,
7091638,6347.65625,-240,0.147148988350705,1504,0.922133660331085,-16016,9.81974248927039,12,3.04878048780488,-50,-0.731707317073171,18,-1.09756097560976,-13,0.0565217391304348,-48,-0.208695652173913,149,-0.726829268292683,
7092278,6367.1875,-288,0.176578786020846,1536,0.941753525444513,-15824,9.70202329858982,14,2.07317073170732,-34,-0.853658536585366,17,-1.03658536585366,-12,0.0521739130434783,-53,-0.230434782608696,151,-0.736585365853659,
7092918,6386.71875,-96,0.058859595340282,1376,0.843654199877376,-15808,9.69221336603311,31,1.82926829268293,-30,-1.89024390243902,23,-1.40243902439024,-11,0.0478260869565217,-53,-0.230434782608696,151,-0.736585365853659,
7093558,6406.25,16,-0.00980993255671367,1280,0.784794604537094,-15952,9.78050275904353,67,1.82926829268293,-30,-4.08536585365854,21,-1.28048780487805,-13,0.0565217391304348,-53,-0.230434782608696,151,-0.736585365853659,
7094198,6425.78125,-96,0.058859595340282,1296,0.794604537093807,-16048,9.83936235438381,78,1.95121951219512,-32,-4.75609756097561,7,-0.426829268292683,-13,0.0565217391304348,-55,-0.239130434782609,151,-0.736585365853659,
7094838,6445.3125,-96,0.058859595340282,1312,0.804414469650521,-16112,9.87860208461067,69,1.82926829268293,-30,-4.20731707317073,-2,0.121951219512195,-11,0.0478260869565217,-54,-0.234782608695652,149,-0.726829268292683,
7095478,6464.84375,-240,0.147148988350705,1408,0.863274064990803,-16096,9.86879215205395,76,1.76829268292683,-29,-4.63414634146342,-2,0.121951219512195,-11,0.0478260869565217,-54,-0.234782608695652,151,-0.736585365853659,
7096118,6484.375,-368,0.225628448804414,1456,0.892703862660944,-16112,9.87860208461067,67,2.01219512195122,-33,-4.08536585365854,4,-0.24390243902439,-13,0.0565217391304348,-54,-0.234782608695652,151,-0.736585365853659,
7096758,6503.90625,-336,0.206008583690987,1488,0.912323727774372,-16144,9.89822194972409,61,2.07317073170732,-34,-3.71951219512195,12,-0.731707317073171,-14,0.0608695652173913,-54,-0.234782608695652,151,-0.736585365853659,
7097398,6523.4375,-272,0.166768853464132,1424,0.873083997547517,-16160,9.90803188228081,66,2.31707317073171,-38,-4.02439024390244,16,-0.975609756097561,-10,0.0434782608695652,-56,-0.243478260869565,149,-0.726829268292683,
7098038,6542.96875,-448,0.274678111587983,1440,0.88289393010423,-16256,9.96689147762109,59,2.74390243902439,-45,-3.59756097560976,14,-0.853658536585366,-13,0.0565217391304348,-55,-0.239130434782609,150,-0.731707317073171,
7098678,6562.5,-432,0.264868179031269,1440,0.88289393010423,-16160,9.90803188228081,44,3.10975609756098,-51,-2.68292682926829,14,-0.853658536585366,-13,0.0565217391304348,-50,-0.217391304347826,148,-0.721951219512195,
7099318,6582.03125,-416,0.255058246474555,1456,0.892703862660944,-16000,9.80993255671367,50,3.04878048780488,-50,-3.04878048780488,17,-1.03658536585366,-12,0.0521739130434783,-49,-0.21304347826087,148,-0.721951219512195,
7099958,6601.5625,-416,0.255058246474555,1472,0.902513795217658,-15920,9.7608828939301,69,2.80487804878049,-46,-4.20731707317073,26,-1.58536585365854,-11,0.0478260869565217,-52,-0.226086956521739,148,-0.721951219512195,
7100598,6621.09375,-544,0.333537706928265,1536,0.941753525444513,-15968,9.79031269160024,52,2.68292682926829,-44,-3.17073170731707,28,-1.70731707317073,-10,0.0434782608695652,-56,-0.243478260869565,150,-0.731707317073171,
7101238,6640.625,-416,0.255058246474555,1488,0.912323727774372,-16032,9.8295524218271,16,2.74390243902439,-45,-0.975609756097561,25,-1.52439024390244,-12,0.0521739130434783,-52,-0.226086956521739,149,-0.726829268292683,
7101878,6660.15625,-368,0.225628448804414,1552,0.951563458001226,-16096,9.86879215205395,5,3.23170731707317,-53,-0.304878048780488,29,-1.76829268292683,-12,0.0521739130434783,-50,-0.217391304347826,148,-0.721951219512195,
7102518,6679.6875,-192,0.117719190680564,1424,0.873083997547517,-16144,9.89822194972409,-41,2.5609756097561,-42,2.5,19,-1.15853658536585,-11,0.0478260869565217,-48,-0.208695652173913,148,-0.721951219512195,
7103158,6699.21875,-128,0.0784794604537094,1408,0.863274064990803,-16112,9.87860208461067,-1,2.68292682926829,-44,0.0609756097560976,19,-1.15853658536585,-11,0.0478260869565217,-49,-0.21304347826087,149,-0.726829268292683,
7103798,6718.75,-320,0.196198651134273,1504,0.922133660331085,-16080,9.85898221949724,33,2.80487804878049,-46,-2.01219512195122,14,-0.853658536585366,-13,0.0565217391304348,-51,-0.221739130434783,148,-0.721951219512195,
7104438,6738.28125,-208,0.127529123237278,1424,0.873083997547517,-16064,9.84917228694053,25,3.04878048780488,-50,-1.52439024390244,1,-0.0609756097560976,-10,0.0434782608695652,-52,-0.226086956521739,150,-0.731707317073171,
7105078,6757.8125,-256,0.156958920907419,1376,0.843654199877376,-16016,9.81974248927039,50,2.80487804878049,-46,-3.04878048780488,0,0,-13,0.0565217391304348,-54,-0.234782608695652,149,-0.726829268292683,
7105718,6777.34375,-352,0.215818516247701,1344,0.824034334763949,-15984,9.80012262415696,59,2.5,-41,-3.59756097560976,-9,0.548780487804878,-12,0.0521739130434783,-56,-0.243478260869565,150,-0.731707317073171,
7106358,6796.875,-432,0.264868179031269,1392,0.853464132434089,-16096,9.86879215205395,58,2.31707317073171,-38,-3.53658536585366,-12,0.731707317073171,-10,0.0434782608695652,-54,-0.234782608695652,149,-0.726829268292683,
7106998,6816.40625,-496,0.304107909258124,1376,0.843654199877376,-16048,9.83936235438381,62,2.80487804878049,-46,-3.78048780487805,-18,1.09756097560976,-11,0.0478260869565217,-53,-0.230434782608696,149,-0.726829268292683,
7107638,6835.9375,-544,0.333537706928265,1376,0.843654199877376,-16032,9.8295524218271,60,2.6219512195122,-43,-3.65853658536585,-13,0.792682926829268,-11,0.0478260869565217,-50,-0.217391304347826,147,-0.717073170731707,
7108278,6855.46875,-464,0.284488044144696,1200,0.735744941753525,-16096,9.86879215205395,67,2.98780487804878,-49,-4.08536585365854,-8,0.487804878048781,-11,0.0478260869565217,-50,-0.217391304347826,149,-0.726829268292683,
7108918,6875,-400,0.245248313917842,1168,0.716125076640098,-15968,9.79031269160024,79,2.68292682926829,-44,-4.81707317073171,-4,0.24390243902439,-12,0.0521739130434783,-46,-0.2,146,-0.712195121951219,
7109558,6894.53125,-736,0.451256897608829,1184,0.725935009196812,-15984,9.80012262415696,75,2.92682926829268,-48,-4.57317073170732,-5,0.304878048780488,-12,0.0521739130434783,-46,-0.2,148,-0.721951219512195,
7110198,6914.0625,-928,0.568976088289393,1264,0.77498467198038,-16080,9.85898221949724,14,2.5609756097561,-42,-0.853658536585366,-16,0.975609756097561,-10,0.0434782608695652,-47,-0.204347826086957,147,-0.717073170731707,
7110838,6933.59375,-672,0.412017167381974,1216,0.745554874310239,-16032,9.8295524218271,26,3.23170731707317,-53,-1.58536585365854,-17,1.03658536585366,-10,0.0434782608695652,-52,-0.226086956521739,149,-0.726829268292683,
7111478,6953.125,-736,0.451256897608829,1296,0.794604537093807,-16032,9.8295524218271,62,2.92682926829268,-48,-3.78048780487805,-13,0.792682926829268,-9,0.0391304347826087,-54,-0.234782608695652,149,-0.726829268292683,
7112118,6972.65625,-880,0.539546290619252,1264,0.77498467198038,-15952,9.78050275904353,62,2.86585365853659,-47,-3.78048780487805,0,0,-10,0.0434782608695652,-56,-0.243478260869565,149,-0.726829268292683,
7112758,6992.1875,-880,0.539546290619252,1200,0.735744941753525,-15920,9.7608828939301,68,2.37804878048781,-39,-4.14634146341463,16,-0.975609756097561,-10,0.0434782608695652,-53,-0.230434782608696,148,-0.721951219512195,
7113398,7011.71875,-1072,0.657265481299816,1360,0.833844267320662,-16000,9.80993255671367,38,2.13414634146341,-35,-2.31707317073171,19,-1.15853658536585,-9,0.0391304347826087,-53,-0.230434782608696,148,-0.721951219512195,
7114038,7031.25,-976,0.598405885959534,1344,0.824034334763949,-16096,9.86879215205395,6,2.37804878048781,-39,-0.365853658536585,27,-1.64634146341463,-11,0.0478260869565217,-53,-0.230434782608696,149,-0.726829268292683,
7114678,7050.78125,-848,0.519926425505825,1248,0.765174739423666,-16128,9.88841201716738,20,2.68292682926829,-44,-1.21951219512195,38,-2.31707317073171,-10,0.0434782608695652,-54,-0.234782608695652,148,-0.721951219512195,
7115318,7070.3125,-896,0.549356223175966,1312,0.804414469650521,-16160,9.90803188228081,13,2.98780487804878,-49,-0.792682926829268,43,-2.6219512195122,-9,0.0391304347826087,-52,-0.226086956521739,148,-0.721951219512195,
7115958,7089.84375,-880,0.539546290619252,1280,0.784794604537094,-16080,9.85898221949724,-7,3.04878048780488,-50,0.426829268292683,47,-2.86585365853659,-8,0.0347826086956522,-55,-0.239130434782609,148,-0.721951219512195,
7116598,7109.375,-816,0.500306560392397,1280,0.784794604537094,-16128,9.88841201716738,-10,2.68292682926829,-44,0.609756097560976,45,-2.74390243902439,-10,0.0434782608695652,-54,-0.234782608695652,148,-0.721951219512195,
7117238,7128.90625,-752,0.461066830165543,1232,0.755364806866953,-16160,9.90803188228081,-9,2.92682926829268,-48,0.548780487804878,45,-2.74390243902439,-10,0.0434782608695652,-53,-0.230434782608696,149,-0.726829268292683,
7117878,7148.4375,-688,0.421827099938688,1184,0.725935009196812,-16176,9.91784181483752,-7,3.10975609756098,-51,0.426829268292683,47,-2.86585365853659,-10,0.0434782608695652,-56,-0.243478260869565,148,-0.721951219512195,
7118518,7167.96875,-592,0.362967504598406,1168,0.716125076640098,-16224,9.94727161250766,-8,3.59756097560976,-59,0.487804878048781,40,-2.4390243902439,-12,0.0521739130434783,-55,-0.239130434782609,148,-0.721951219512195,
7119158,7187.5,-608,0.37277743715512,1120,0.686695278969957,-16096,9.86879215205395,7,3.96341463414634,-65,-0.426829268292683,31,-1.89024390243902,-10,0.0434782608695652,-51,-0.221739130434783,150,-0.731707317073171,
7119798,7207.03125,-640,0.392397302268547,1200,0.735744941753525,-16048,9.83936235438381,5,3.84146341463415,-63,-0.304878048780488,25,-1.52439024390244,-10,0.0434782608695652,-53,-0.230434782608696,148,-0.721951219512195,
7120438,7226.5625,-608,0.37277743715512,1184,0.725935009196812,-16016,9.81974248927039,1,3.17073170731707,-52,-0.0609756097560976,25,-1.52439024390244,-9,0.0391304347826087,-53,-0.230434782608696,147,-0.717073170731707,
7121078,7246.09375,-496,0.304107909258124,1248,0.765174739423666,-15984,9.80012262415696,-12,3.10975609756098,-51,0.731707317073171,25,-1.52439024390244,-10,0.0434782608695652,-55,-0.239130434782609,149,-0.726829268292683,
7121718,7265.625,-416,0.255058246474555,1280,0.784794604537094,-15888,9.74126302881668,0,2.92682926829268,-48,0,12,-0.731707317073171,-10,0.0434782608695652,-54,-0.234782608695652,148,-0.721951219512195,
7122358,7285.15625,-416,0.255058246474555,1328,0.814224402207235,-15888,9.74126302881668,5,2.4390243902439,-40,-0.304878048780488,12,-0.731707317073171,-10,0.0434782608695652,-52,-0.226086956521739,147,-0.717073170731707,
7122998,7304.6875,-352,0.215818516247701,1296,0.794604537093807,-15696,9.62354383813611,6,2.13414634146341,-35,-0.365853658536585,8,-0.487804878048781,-9,0.0391304347826087,-55,-0.239130434782609,150,-0.731707317073171,
7123638,7324.21875,-464,0.284488044144696,1344,0.824034334763949,-15664,9.60392397302268,2,2.01219512195122,-33,-0.121951219512195,-2,0.121951219512195,-9,0.0391304347826087,-54,-0.234782608695652,150,-0.731707317073171,
7124278,7343.75,-608,0.37277743715512,1344,0.824034334763949,-15760,9.66278356836297,3,1.52439024390244,-25,-0.182926829268293,-7,0.426829268292683,-9,0.0391304347826087,-53,-0.230434782608696,149,-0.726829268292683,
7124918,7363.28125,-576,0.353157572041692,1248,0.765174739423666,-15808,9.69221336603311,-5,1.09756097560976,-18,0.304878048780488,-9,0.548780487804878,-9,0.0391304347826087,-53,-0.230434782608696,148,-0.721951219512195,
7125558,7382.8125,-608,0.37277743715512,1376,0.843654199877376,-15888,9.74126302881668,-23,0.426829268292683,-7,1.40243902439024,-21,1.28048780487805,-11,0.0478260869565217,-55,-0.239130434782609,149,-0.726829268292683,
7126198,7402.34375,-560,0.343347639484979,1360,0.833844267320662,-15984,9.80012262415696,-41,0.121951219512195,-2,2.5,-25,1.52439024390244,-11,0.0478260869565217,-54,-0.234782608695652,146,-0.712195121951219,
7126838,7421.875,-544,0.333537706928265,1360,0.833844267320662,-16016,9.81974248927039,-28,0.121951219512195,-2,1.70731707317073,-28,1.70731707317073,-12,0.0521739130434783,-49,-0.21304347826087,148,-0.721951219512195,
7127478,7441.40625,-512,0.313917841814838,1344,0.824034334763949,-16160,9.90803188228081,-8,-0.121951219512195,2,0.487804878048781,-24,1.46341463414634,-12,0.0521739130434783,-57,-0.247826086956522,148,-0.721951219512195,
7128118,7460.9375,-544,0.333537706928265,1264,0.77498467198038,-16064,9.84917228694053,8,0.426829268292683,-7,-0.487804878048781,-24,1.46341463414634,-9,0.0391304347826087,-50,-0.217391304347826,149,-0.726829268292683,
7128758,7480.46875,-560,0.343347639484979,1168,0.716125076640098,-16304,9.99632127529123,2,0.365853658536585,-6,-0.121951219512195,-27,1.64634146341463,-12,0.0521739130434783,-54,-0.234782608695652,148,-0.721951219512195,
7129398,7500,-512,0.313917841814838,1136,0.696505211526671,-16336,10.0159411404047,4,1.40243902439024,-23,-0.24390243902439,-34,2.07317073170732,-11,0.0478260869565217,-51,-0.221739130434783,149,-0.726829268292683,
7130038,7519.53125,-768,0.470876762722256,1152,0.706315144083384,-16304,9.99632127529123,4,1.76829268292683,-29,-0.24390243902439,-38,2.31707317073171,-11,0.0478260869565217,-52,-0.226086956521739,149,-0.726829268292683,
7130678,7539.0625,-720,0.441446965052115,1120,0.686695278969957,-16320,10.0061312078479,-26,2.07317073170732,-34,1.58536585365854,-40,2.4390243902439,-12,0.0521739130434783,-50,-0.217391304347826,149,-0.726829268292683,
7131318,7558.59375,-544,0.333537706928265,1024,0.627835683629675,-16320,10.0061312078479,-33,2.25609756097561,-37,2.01219512195122,-41,2.5,-10,0.0434782608695652,-55,-0.239130434782609,149,-0.726829268292683,
7131958,7578.125,-688,0.421827099938688,1088,0.66707541385653,-16320,10.0061312078479,-21,2.5,-41,1.28048780487805,-45,2.74390243902439,-11,0.0478260869565217,-55,-0.239130434782609,149,-0.726829268292683,
7132598,7597.65625,-656,0.402207234825261,1040,0.637645616186389,-16384,10.0453709380748,-35,2.68292682926829,-44,2.13414634146341,-54,3.29268292682927,-10,0.0434782608695652,-53,-0.230434782608696,147,-0.717073170731707,
7133238,7617.1875,-560,0.343347639484979,976,0.598405885959534,-16240,9.95708154506438,-19,3.53658536585366,-58,1.15853658536585,-58,3.53658536585366,-12,0.0521739130434783,-50,-0.217391304347826,147,-0.717073170731707,
7133878,7636.71875,-688,0.421827099938688,1008,0.618025751072961,-16224,9.94727161250766,3,4.02439024390244,-66,-0.182926829268293,-56,3.41463414634146,-9,0.0391304347826087,-54,-0.234782608695652,149,-0.726829268292683,
7134518,7656.25,-800,0.490496627835684,1024,0.627835683629675,-16240,9.95708154506438,12,4.08536585365854,-67,-0.731707317073171,-45,2.74390243902439,-11,0.0478260869565217,-53,-0.230434782608696,150,-0.731707317073171,
7135158,7675.78125,-784,0.48068669527897,1040,0.637645616186389,-16208,9.93746167995095,14,4.45121951219512,-73,-0.853658536585366,-39,2.37804878048781,-11,0.0478260869565217,-48,-0.208695652173913,148,-0.721951219512195,
7135798,7695.3125,-688,0.421827099938688,1056,0.647455548743102,-16160,9.90803188228081,15,4.20731707317073,-69,-0.914634146341463,-42,2.5609756097561,-9,0.0391304347826087,-54,-0.234782608695652,148,-0.721951219512195,
7136438,7714.84375,-800,0.490496627835684,1104,0.676885346413243,-16112,9.87860208461067,27,4.32926829268293,-71,-1.64634146341463,-36,2.19512195121951,-11,0.0478260869565217,-52,-0.226086956521739,147,-0.717073170731707,
7137078,7734.375,-944,0.578786020846107,1088,0.66707541385653,-16080,9.85898221949724,28,4.39024390243902,-72,-1.70731707317073,-22,1.34146341463415,-10,0.0434782608695652,-55,-0.239130434782609,149,-0.726829268292683,
7137718,7753.90625,-1056,0.647455548743102,1152,0.706315144083384,-16112,9.87860208461067,15,4.57317073170732,-75,-0.914634146341463,-16,0.975609756097561,-8,0.0347826086956522,-55,-0.239130434782609,149,-0.726829268292683,
7138358,7773.4375,-992,0.608215818516248,1152,0.706315144083384,-16032,9.8295524218271,-5,4.32926829268293,-71,0.304878048780488,-12,0.731707317073171,-8,0.0347826086956522,-56,-0.243478260869565,149,-0.726829268292683,
7138998,7792.96875,-768,0.470876762722256,1152,0.706315144083384,-15984,9.80012262415696,-17,4.51219512195122,-74,1.03658536585366,-4,0.24390243902439,-11,0.0478260869565217,-50,-0.217391304347826,149,-0.726829268292683,
7139638,7812.5,-624,0.382587369711833,1136,0.696505211526671,-15936,9.77069282648682,-19,4.14634146341463,-68,1.15853658536585,1,-0.0609756097560976,-11,0.0478260869565217,-52,-0.226086956521739,149,-0.726829268292683,
7140278,7832.03125,-528,0.323727774371551,1216,0.745554874310239,-15856,9.72164316370325,-33,3.90243902439024,-64,2.01219512195122,-13,0.792682926829268,-10,0.0434782608695652,-54,-0.234782608695652,149,-0.726829268292683,
7140918,7851.5625,-496,0.304107909258124,1200,0.735744941753525,-15856,9.72164316370325,-20,3.71951219512195,-61,1.21951219512195,-10,0.609756097560976,-12,0.0521739130434783,-47,-0.204347826086957,146,-0.712195121951219,
7141558,7871.09375,-512,0.313917841814838,1248,0.765174739423666,-15888,9.74126302881668,3,3.59756097560976,-59,-0.182926829268293,-8,0.487804878048781,-10,0.0434782608695652,-50,-0.217391304347826,148,-0.721951219512195,
7142198,7890.625,-592,0.362967504598406,1296,0.794604537093807,-15936,9.77069282648682,11,3.59756097560976,-59,-0.670731707317073,-10,0.609756097560976,-12,0.0521739130434783,-50,-0.217391304347826,147,-0.717073170731707,
7142838,7910.15625,-624,0.382587369711833,1296,0.794604537093807,-15968,9.79031269160024,-10,3.47560975609756,-57,0.609756097560976,-13,0.792682926829268,-11,0.0478260869565217,-49,-0.21304347826087,147,-0.717073170731707,
7143478,7929.6875,-608,0.37277743715512,1296,0.794604537093807,-16000,9.80993255671367,-23,3.29268292682927,-54,1.40243902439024,-19,1.15853658536585,-11,0.0478260869565217,-48,-0.208695652173913,146,-0.712195121951219,
7144118,7949.21875,-592,0.362967504598406,1360,0.833844267320662,-15968,9.79031269160024,-9,3.04878048780488,-50,0.548780487804878,-22,1.34146341463415,-12,0.0521739130434783,-50,-0.217391304347826,147,-0.717073170731707,
7144758,7968.75,-560,0.343347639484979,1216,0.745554874310239,-15984,9.80012262415696,-7,2.6219512195122,-43,0.426829268292683,-21,1.28048780487805,-9,0.0391304347826087,-51,-0.221739130434783,147,-0.717073170731707,
7145398,7988.28125,-672,0.412017167381974,1200,0.735744941753525,-16080,9.85898221949724,15,2.25609756097561,-37,-0.914634146341463,-8,0.487804878048781,-11,0.0478260869565217,-52,-0.226086956521739,150,-0.731707317073171,
7146038,8007.8125,-800,0.490496627835684,1232,0.755364806866953,-16128,9.88841201716738,42,2.80487804878049,-46,-2.5609756097561,-3,0.182926829268293,-11,0.0478260869565217,-54,-0.234782608695652,148,-0.721951219512195,
7146678,8027.34375,-1008,0.618025751072961,1264,0.77498467198038,-16224,9.94727161250766,39,2.5609756097561,-42,-2.37804878048781,-2,0.121951219512195,-12,0.0521739130434783,-49,-0.21304347826087,148,-0.721951219512195,
7147318,8046.875,-832,0.510116492949111,1248,0.765174739423666,-16288,9.98651134273452,-9,2.37804878048781,-39,0.548780487804878,-8,0.487804878048781,-11,0.0478260869565217,-53,-0.230434782608696,149,-0.726829268292683,
7147958,8066.40625,-752,0.461066830165543,1328,0.814224402207235,-16336,10.0159411404047,-20,2.80487804878049,-46,1.21951219512195,-11,0.670731707317073,-10,0.0434782608695652,-50,-0.217391304347826,149,-0.726829268292683,
7148598,8085.9375,-816,0.500306560392397,1312,0.804414469650521,-16288,9.98651134273452,13,3.47560975609756,-57,-0.792682926829268,5,-0.304878048780488,-11,0.0478260869565217,-49,-0.21304347826087,148,-0.721951219512195,
7149238,8105.46875,-768,0.470876762722256,1280,0.784794604537094,-16304,9.99632127529123,-2,4.02439024390244,-66,0.121951219512195,13,-0.792682926829268,-12,0.0521739130434783,-54,-0.234782608695652,148,-0.721951219512195,
7149878,8125,-640,0.392397302268547,1312,0.804414469650521,-16320,10.0061312078479,2,3.78048780487805,-62,-0.121951219512195,26,-1.58536585365854,-12,0.0521739130434783,-50,-0.217391304347826,148,-0.721951219512195,
7150518,8144.53125,-512,0.313917841814838,1296,0.794604537093807,-16224,9.94727161250766,16,3.96341463414634,-65,-0.975609756097561,29,-1.76829268292683,-11,0.0478260869565217,-52,-0.226086956521739,148,-0.721951219512195,
7151158,8164.0625,-432,0.264868179031269,1280,0.784794604537094,-16096,9.86879215205395,12,3.96341463414634,-65,-0.731707317073171,27,-1.64634146341463,-10,0.0434782608695652,-53,-0.230434782608696,149,-0.726829268292683,
7151798,8183.59375,-560,0.343347639484979,1360,0.833844267320662,-16112,9.87860208461067,37,4.08536585365854,-67,-2.25609756097561,29,-1.76829268292683,-10,0.0434782608695652,-55,-0.239130434782609,149,-0.726829268292683,
7152438,8203.125,-544,0.333537706928265,1344,0.824034334763949,-16208,9.93746167995095,54,4.20731707317073,-69,-3.29268292682927,29,-1.76829268292683,-10,0.0434782608695652,-52,-0.226086956521739,149,-0.726829268292683,
7153078,8222.65625,-448,0.274678111587983,1360,0.833844267320662,-16128,9.88841201716738,37,4.69512195121951,-77,-2.25609756097561,16,-0.975609756097561,-11,0.0478260869565217,-50,-0.217391304347826,147,-0.717073170731707,
7153718,8242.1875,-528,0.323727774371551,1328,0.814224402207235,-16096,9.86879215205395,49,4.57317073170732,-75,-2.98780487804878,10,-0.609756097560976,-8,0.0347826086956522,-53,-0.230434782608696,148,-0.721951219512195,
7154358,8261.71875,-544,0.333537706928265,1408,0.863274064990803,-16144,9.89822194972409,57,5.0609756097561,-83,-3.47560975609756,-3,0.182926829268293,-9,0.0391304347826087,-51,-0.221739130434783,147,-0.717073170731707,
7154998,8281.25,-528,0.323727774371551,1472,0.902513795217658,-15984,9.80012262415696,44,5.24390243902439,-86,-2.68292682926829,-11,0.670731707317073,-10,0.0434782608695652,-53,-0.230434782608696,146,-0.712195121951219,
7155638,8300.78125,-528,0.323727774371551,1440,0.88289393010423,-15936,9.77069282648682,41,5.42682926829268,-89,-2.5,-16,0.975609756097561,-10,0.0434782608695652,-48,-0.208695652173913,147,-0.717073170731707,
7156278,8320.3125,-768,0.470876762722256,1424,0.873083997547517,-15936,9.77069282648682,62,5.30487804878049,-87,-3.78048780487805,-17,1.03658536585366,-10,0.0434782608695652,-50,-0.217391304347826,147,-0.717073170731707,
7156918,8339.84375,-848,0.519926425505825,1408,0.863274064990803,-15872,9.73145309625996,52,5.48780487804878,-90,-3.17073170731707,-29,1.76829268292683,-10,0.0434782608695652,-56,-0.243478260869565,148,-0.721951219512195,
7157558,8359.375,-768,0.470876762722256,1392,0.853464132434089,-15856,9.72164316370325,26,5.1219512195122,-84,-1.58536585365854,-39,2.37804878048781,-10,0.0434782608695652,-54,-0.234782608695652,146,-0.712195121951219,
7158198,8378.90625,-768,0.470876762722256,1344,0.824034334763949,-15856,9.72164316370325,21,4.63414634146342,-76,-1.28048780487805,-42,2.5609756097561,-9,0.0391304347826087,-56,-0.243478260869565,147,-0.717073170731707,
7158838,8398.4375,-848,0.519926425505825,1392,0.853464132434089,-15904,9.75107296137339,3,4.69512195121951,-77,-0.182926829268293,-49,2.98780487804878,-7,0.0304347826086957,-56,-0.243478260869565,148,-0.721951219512195,
7159478,8417.96875,-800,0.490496627835684,1376,0.843654199877376,-16000,9.80993255671367,2,4.26829268292683,-70,-0.121951219512195,-59,3.59756097560976,-9,0.0391304347826087,-51,-0.221739130434783,148,-0.721951219512195,
7160118,8437.5,-784,0.48068669527897,1344,0.824034334763949,-15840,9.71183323114654,-12,4.14634146341463,-68,0.731707317073171,-59,3.59756097560976,-9,0.0391304347826087,-52,-0.226086956521739,149,-0.726829268292683,
7160758,8457.03125,-944,0.578786020846107,1456,0.892703862660944,-15792,9.6824034334764,0,4.45121951219512,-73,0,-58,3.53658536585366,-7,0.0304347826086957,-55,-0.239130434782609,147,-0.717073170731707,
7161398,8476.5625,-976,0.598405885959534,1504,0.922133660331085,-15904,9.75107296137339,-1,3.84146341463415,-63,0.0609756097560976,-49,2.98780487804878,-9,0.0391304347826087,-53,-0.230434782608696,146,-0.712195121951219,
7162038,8496.09375,-1040,0.637645616186389,1440,0.88289393010423,-15856,9.72164316370325,14,3.35365853658537,-55,-0.853658536585366,-37,2.25609756097561,-10,0.0434782608695652,-49,-0.21304347826087,147,-0.717073170731707,
7162678,8515.625,-1184,0.725935009196812,1440,0.88289393010423,-15920,9.7608828939301,-4,3.29268292682927,-54,0.24390243902439,-23,1.40243902439024,-11,0.0478260869565217,-51,-0.221739130434783,146,-0.712195121951219,
7163318,8535.15625,-1280,0.784794604537094,1488,0.912323727774372,-15984,9.80012262415696,-54,2.86585365853659,-47,3.29268292682927,-24,1.46341463414634,-9,0.0391304347826087,-54,-0.234782608695652,146,-0.712195121951219,
7163958,8554.6875,-1104,0.676885346413243,1440,0.88289393010423,-15856,9.72164316370325,-30,2.74390243902439,-45,1.82926829268293,-23,1.40243902439024,-9,0.0391304347826087,-49,-0.21304347826087,145,-0.707317073170732,
7164598,8574.21875,-1024,0.627835683629675,1408,0.863274064990803,-15872,9.73145309625996,20,2.86585365853659,-47,-1.21951219512195,-7,0.426829268292683,-7,0.0304347826086957,-51,-0.221739130434783,146,-0.712195121951219,
7165238,8593.75,-1136,0.696505211526671,1376,0.843654199877376,-15824,9.70202329858982,13,2.5609756097561,-42,-0.792682926829268,1,-0.0609756097560976,-10,0.0434782608695652,-51,-0.221739130434783,148,-0.721951219512195,
7165878,8613.28125,-1104,0.676885346413243,1344,0.824034334763949,-15920,9.7608828939301,-6,2.19512195121951,-36,0.365853658536585,7,-0.426829268292683,-9,0.0391304347826087,-54,-0.234782608695652,147,-0.717073170731707,
7166518,8632.8125,-1120,0.686695278969957,1376,0.843654199877376,-15952,9.78050275904353,-10,2.4390243902439,-40,0.609756097560976,-3,0.182926829268293,-9,0.0391304347826087,-47,-0.204347826086957,147,-0.717073170731707,
7167158,8652.34375,-1088,0.66707541385653,1392,0.853464132434089,-15840,9.71183323114654,-19,2.01219512195122,-33,1.15853658536585,0,0,-12,0.0521739130434783,-50,-0.217391304347826,147,-0.717073170731707,
7167798,8671.875,-912,0.559166155732679,1392,0.853464132434089,-15840,9.71183323114654,-1,1.95121951219512,-32,0.0609756097560976,8,-0.487804878048781,-9,0.0391304347826087,-55,-0.239130434782609,148,-0.721951219512195,
7168438,8691.40625,-1008,0.618025751072961,1344,0.824034334763949,-15904,9.75107296137339,9,1.58536585365854,-26,-0.548780487804878,16,-0.975609756097561,-9,0.0391304347826087,-54,-0.234782608695652,147,-0.717073170731707,
7169078,8710.9375,-880,0.539546290619252,1296,0.794604537093807,-16048,9.83936235438381,-12,1.34146341463415,-22,0.731707317073171,14,-0.853658536585366,-8,0.0347826086956522,-50,-0.217391304347826,147,-0.717073170731707,
7169718,8730.46875,-768,0.470876762722256,1264,0.77498467198038,-16240,9.95708154506438,-8,1.64634146341463,-27,0.487804878048781,20,-1.21951219512195,-8,0.0347826086956522,-56,-0.243478260869565,147,-0.717073170731707,
7170358,8750,-688,0.421827099938688,1248,0.765174739423666,-16240,9.95708154506438,-22,2.13414634146341,-35,1.34146341463415,15,-0.914634146341463,-11,0.0478260869565217,-50,-0.217391304347826,146,-0.712195121951219,
7170998,8769.53125,-640,0.392397302268547,1312,0.804414469650521,-16368,10.0355610055181,-22,2.37804878048781,-39,1.34146341463415,7,-0.426829268292683,-9,0.0391304347826087,-53,-0.230434782608696,148,-0.721951219512195,
7171638,8789.0625,-720,0.441446965052115,1264,0.77498467198038,-16128,9.88841201716738,-19,2.74390243902439,-45,1.15853658536585,0,0,-8,0.0347826086956522,-56,-0.243478260869565,148,-0.721951219512195,
7172278,8808.59375,-736,0.451256897608829,1296,0.794604537093807,-16064,9.84917228694053,-18,3.35365853658537,-55,1.09756097560976,-13,0.792682926829268,-10,0.0434782608695652,-48,-0.208695652173913,146,-0.712195121951219,
7172918,8828.125,-720,0.441446965052115,1344,0.824034334763949,-16016,9.81974248927039,-1,3.23170731707317,-53,0.0609756097560976,-18,1.09756097560976,-11,0.0478260869565217,-51,-0.221739130434783,147,-0.717073170731707,
7173558,8847.65625,-688,0.421827099938688,1360,0.833844267320662,-15984,9.80012262415696,20,3.53658536585366,-58,-1.21951219512195,-19,1.15853658536585,-10,0.0434782608695652,-54,-0.234782608695652,147,-0.717073170731707,
7174198,8867.1875,-880,0.539546290619252,1424,0.873083997547517,-15968,9.79031269160024,14,3.10975609756098,-51,-0.853658536585366,-14,0.853658536585366,-8,0.0347826086956522,-55,-0.239130434782609,148,-0.721951219512195,
7174838,8886.71875,-1008,0.618025751072961,1440,0.88289393010423,-16032,9.8295524218271,-17,3.23170731707317,-53,1.03658536585366,-15,0.914634146341463,-9,0.0391304347826087,-54,-0.234782608695652,148,-0.721951219512195,
7175478,8906.25,-912,0.559166155732679,1424,0.873083997547517,-16032,9.8295524218271,-42,3.53658536585366,-58,2.5609756097561,-6,0.365853658536585,-7,0.0304347826086957,-52,-0.226086956521739,148,-0.721951219512195,
7176118,8925.78125,-832,0.510116492949111,1472,0.902513795217658,-15968,9.79031269160024,-31,3.41463414634146,-56,1.89024390243902,2,-0.121951219512195,-11,0.0478260869565217,-51,-0.221739130434783,148,-0.721951219512195,
7176758,8945.3125,-832,0.510116492949111,1504,0.922133660331085,-15952,9.78050275904353,-28,3.41463414634146,-56,1.70731707317073,9,-0.548780487804878,-10,0.0434782608695652,-49,-0.21304347826087,146,-0.712195121951219,
7177398,8964.84375,-848,0.519926425505825,1488,0.912323727774372,-15952,9.78050275904353,-40,3.29268292682927,-54,2.4390243902439,0,0,-11,0.0478260869565217,-54,-0.234782608695652,148,-0.721951219512195,
7178038,8984.375,-704,0.431637032495402,1504,0.922133660331085,-16064,9.84917228694053,-42,2.92682926829268,-48,2.5609756097561,-5,0.304878048780488,-8,0.0347826086956522,-55,-0.239130434782609,148,-0.721951219512195,
7178678,9003.90625,-624,0.382587369711833,1456,0.892703862660944,-16000,9.80993255671367,-37,2.86585365853659,-47,2.25609756097561,-7,0.426829268292683,-10,0.0434782608695652,-54,-0.234782608695652,149,-0.726829268292683,
7179318,9023.4375,-704,0.431637032495402,1456,0.892703862660944,-15920,9.7608828939301,-38,2.5609756097561,-42,2.31707317073171,-4,0.24390243902439,-10,0.0434782608695652,-54,-0.234782608695652,148,-0.721951219512195,
7179958,9042.96875,-608,0.37277743715512,1456,0.892703862660944,-15856,9.72164316370325,-29,2.13414634146341,-35,1.76829268292683,-6,0.365853658536585,-11,0.0478260869565217,-51,-0.221739130434783,147,-0.717073170731707,
7180598,9062.5,-592,0.362967504598406,1424,0.873083997547517,-15984,9.80012262415696,-4,2.01219512195122,-33,0.24390243902439,-5,0.304878048780488,-11,0.0478260869565217,-55,-0.239130434782609,148,-0.721951219512195,
7181238,9082.03125,-592,0.362967504598406,1424,0.873083997547517,-16016,9.81974248927039,-18,1.70731707317073,-28,1.09756097560976,-10,0.609756097560976,-11,0.0478260869565217,-47,-0.204347826086957,147,-0.717073170731707,
7181878,9101.5625,-672,0.412017167381974,1328,0.814224402207235,-16016,9.81974248927039,-34,1.52439024390244,-25,2.07317073170732,-14,0.853658536585366,-10,0.0434782608695652,-50,-0.217391304347826,150,-0.731707317073171,
7182518,9121.09375,-528,0.323727774371551,1328,0.814224402207235,-16016,9.81974248927039,-26,1.76829268292683,-29,1.58536585365854,-18,1.09756097560976,-12,0.0521739130434783,-53,-0.230434782608696,148,-0.721951219512195,
7183158,9140.625,-560,0.343347639484979,1376,0.843654199877376,-16016,9.81974248927039,-11,1.95121951219512,-32,0.670731707317073,-21,1.28048780487805,-10,0.0434782608695652,-53,-0.230434782608696,147,-0.717073170731707,
7183798,9160.15625,-608,0.37277743715512,1376,0.843654199877376,-16064,9.84917228694053,-17,1.95121951219512,-32,1.03658536585366,-21,1.28048780487805,-10,0.0434782608695652,-49,-0.21304347826087,148,-0.721951219512195,
7184438,9179.6875,-640,0.392397302268547,1376,0.843654199877376,-16048,9.83936235438381,-26,1.70731707317073,-28,1.58536585365854,-24,1.46341463414634,-10,0.0434782608695652,-53,-0.230434782608696,147,-0.717073170731707,
7185078,9199.21875,-592,0.362967504598406,1392,0.853464132434089,-16064,9.84917228694053,-20,1.89024390243902,-31,1.21951219512195,-26,1.58536585365854,-12,0.0521739130434783,-51,-0.221739130434783,148,-0.721951219512195,
7185718,9218.75,-640,0.392397302268547,1440,0.88289393010423,-16000,9.80993255671367,-10,1.76829268292683,-29,0.609756097560976,-23,1.40243902439024,-9,0.0391304347826087,-53,-0.230434782608696,149,-0.726829268292683,
7186358,9238.28125,-672,0.412017167381974,1312,0.804414469650521,-16016,9.81974248927039,-21,1.89024390243902,-31,1.28048780487805,-29,1.76829268292683,-11,0.0478260869565217,-53,-0.230434782608696,150,-0.731707317073171,
7186998,9257.8125,-640,0.392397302268547,1376,0.843654199877376,-15984,9.80012262415696,-24,1.76829268292683,-29,1.46341463414634,-29,1.76829268292683,-11,0.0478260869565217,-49,-0.21304347826087,147,-0.717073170731707,
7187638,9277.34375,-496,0.304107909258124,1248,0.765174739423666,-16048,9.83936235438381,-6,1.82926829268293,-30,0.365853658536585,-25,1.52439024390244,-9,0.0391304347826087,-54,-0.234782608695652,149,-0.726829268292683,
7188278,9296.875,-736,0.451256897608829,1376,0.843654199877376,-16032,9.8295524218271,-2,1.95121951219512,-32,0.121951219512195,-27,1.64634146341463,-11,0.0478260869565217,-54,-0.234782608695652,147,-0.717073170731707,
7188918,9316.40625,-720,0.441446965052115,1376,0.843654199877376,-15952,9.78050275904353,-38,1.95121951219512,-32,2.31707317073171,-22,1.34146341463415,-12,0.0521739130434783,-53,-0.230434782608696,147,-0.717073170731707,
7189558,9335.9375,-560,0.343347639484979,1248,0.765174739423666,-15936,9.77069282648682,-31,1.95121951219512,-32,1.89024390243902,-22,1.34146341463415,-10,0.0434782608695652,-54,-0.234782608695652,148,-0.721951219512195,
7190198,9355.46875,-480,0.29429797670141,1264,0.77498467198038,-16000,9.80993255671367,0,1.34146341463415,-22,0,-23,1.40243902439024,-12,0.0521739130434783,-48,-0.208695652173913,147,-0.717073170731707,
7190838,9375,-656,0.402207234825261,1248,0.765174739423666,-16048,9.83936235438381,-2,1.28048780487805,-21,0.121951219512195,-25,1.52439024390244,-11,0.0478260869565217,-48,-0.208695652173913,148,-0.721951219512195,
7191478,9394.53125,-720,0.441446965052115,1168,0.716125076640098,-16032,9.8295524218271,-9,1.52439024390244,-25,0.548780487804878,-25,1.52439024390244,-12,0.0521739130434783,-50,-0.217391304347826,149,-0.726829268292683,
7192118,9414.0625,-752,0.461066830165543,1200,0.735744941753525,-16096,9.86879215205395,-19,1.82926829268293,-30,1.15853658536585,-28,1.70731707317073,-10,0.0434782608695652,-50,-0.217391304347826,148,-0.721951219512195,
7192758,9433.59375,-656,0.402207234825261,1152,0.706315144083384,-16112,9.87860208461067,-10,1.95121951219512,-32,0.609756097560976,-26,1.58536585365854,-11,0.0478260869565217,-47,-0.204347826086957,148,-0.721951219512195,
7193398,9453.125,-672,0.412017167381974,1088,0.66707541385653,-16048,9.83936235438381,-11,2.25609756097561,-37,0.670731707317073,-24,1.46341463414634,-11,0.0478260869565217,-53,-0.230434782608696,148,-0.721951219512195,
7194038,9472.65625,-720,0.441446965052115,1120,0.686695278969957,-16064,9.84917228694053,-32,2.5,-41,1.95121951219512,-26,1.58536585365854,-10,0.0434782608695652,-52,-0.226086956521739,149,-0.726829268292683,
7194678,9492.1875,-800,0.490496627835684,1168,0.716125076640098,-16096,9.86879215205395,-43,2.5,-41,2.6219512195122,-26,1.58536585365854,-10,0.0434782608695652,-47,-0.204347826086957,146,-0.712195121951219,
7195318,9511.71875,-640,0.392397302268547,1136,0.696505211526671,-16128,9.88841201716738,-43,2.5,-41,2.6219512195122,-20,1.21951219512195,-9,0.0391304347826087,-53,-0.230434782608696,150,-0.731707317073171,
7195958,9531.25,-640,0.392397302268547,1152,0.706315144083384,-16144,9.89822194972409,-27,2.86585365853659,-47,1.64634146341463,-18,1.09756097560976,-9,0.0391304347826087,-51,-0.221739130434783,149,-0.726829268292683,
7196598,9550.78125,-672,0.412017167381974,1216,0.745554874310239,-16128,9.88841201716738,-16,2.92682926829268,-48,0.975609756097561,-13,0.792682926829268,-10,0.0434782608695652,-51,-0.221739130434783,148,-0.721951219512195,
7197238,9570.3125,-736,0.451256897608829,1200,0.735744941753525,-16144,9.89822194972409,-17,3.29268292682927,-54,1.03658536585366,-3,0.182926829268293,-12,0.0521739130434783,-53,-0.230434782608696,150,-0.731707317073171,
7197878,9589.84375,-672,0.412017167381974,1168,0.716125076640098,-16064,9.84917228694053,-22,3.23170731707317,-53,1.34146341463415,-6,0.365853658536585,-11,0.0478260869565217,-53,-0.230434782608696,150,-0.731707317073171,
7198518,9609.375,-608,0.37277743715512,1232,0.755364806866953,-16080,9.85898221949724,-22,2.92682926829268,-48,1.34146341463415,-7,0.426829268292683,-11,0.0478260869565217,-48,-0.208695652173913,148,-0.721951219512195,
7199158,9628.90625,-576,0.353157572041692,1120,0.686695278969957,-16000,9.80993255671367,-4,2.86585365853659,-47,0.24390243902439,1,-0.0609756097560976,-12,0.0521739130434783,-49,-0.21304347826087,148,-0.721951219512195,
7199798,9648.4375,-608,0.37277743715512,1072,0.657265481299816,-16112,9.87860208461067,-16,3.29268292682927,-54,0.975609756097561,-1,0.0609756097560976,-11,0.0478260869565217,-51,-0.221739130434783,147,-0.717073170731707,
7200438,9667.96875,-560,0.343347639484979,1104,0.676885346413243,-16096,9.86879215205395,-28,3.23170731707317,-53,1.70731707317073,-3,0.182926829268293,-10,0.0434782608695652,-49,-0.21304347826087,149,-0.726829268292683,
7201078,9687.5,-496,0.304107909258124,1184,0.725935009196812,-16160,9.90803188228081,-29,3.10975609756098,-51,1.76829268292683,-1,0.0609756097560976,-10,0.0434782608695652,-49,-0.21304347826087,147,-0.717073170731707,
7201718,9707.03125,-448,0.274678111587983,1248,0.765174739423666,-16064,9.84917228694053,-39,3.17073170731707,-52,2.37804878048781,-3,0.182926829268293,-11,0.0478260869565217,-48,-0.208695652173913,150,-0.731707317073171,
7202358,9726.5625,-512,0.313917841814838,1248,0.765174739423666,-16112,9.87860208461067,-52,2.86585365853659,-47,3.17073170731707,-5,0.304878048780488,-11,0.0478260869565217,-50,-0.217391304347826,150,-0.731707317073171,
7202998,9746.09375,-480,0.29429797670141,1264,0.77498467198038,-16096,9.86879215205395,-48,2.74390243902439,-45,2.92682926829268,-4,0.24390243902439,-10,0.0434782608695652,-50,-0.217391304347826,149,-0.726829268292683,
7203638,9765.625,-512,0.313917841814838,1248,0.765174739423666,-16144,9.89822194972409,-46,2.98780487804878,-49,2.80487804878049,-6,0.365853658536585,-11,0.0478260869565217,-49,-0.21304347826087,150,-0.731707317073171,
7204278,9785.15625,-416,0.255058246474555,1152,0.706315144083384,-16112,9.87860208461067,-59,3.41463414634146,-56,3.59756097560976,-11,0.670731707317073,-12,0.0521739130434783,-51,-0.221739130434783,150,-0.731707317073171,
7204918,9804.6875,-400,0.245248313917842,1216,0.745554874310239,-16128,9.88841201716738,-24,3.23170731707317,-53,1.46341463414634,-2,0.121951219512195,-10,0.0434782608695652,-52,-0.226086956521739,149,-0.726829268292683,
7205558,9824.21875,-384,0.235438381361128,1168,0.716125076640098,-16192,9.92765174739424,3,3.10975609756098,-51,-0.182926829268293,-1,0.0609756097560976,-10,0.0434782608695652,-49,-0.21304347826087,150,-0.731707317073171,
7206198,9843.75,-448,0.274678111587983,1232,0.755364806866953,-16208,9.93746167995095,-13,3.59756097560976,-59,0.792682926829268,-1,0.0609756097560976,-11,0.0478260869565217,-48,-0.208695652173913,147,-0.717073170731707,
7206838,9863.28125,-400,0.245248313917842,1184,0.725935009196812,-16128,9.88841201716738,-30,3.53658536585366,-58,1.82926829268293,-6,0.365853658536585,-10,0.0434782608695652,-51,-0.221739130434783,150,-0.731707317073171,
7207478,9882.8125,-352,0.215818516247701,1232,0.755364806866953,-16032,9.8295524218271,-19,3.47560975609756,-57,1.15853658536585,-7,0.426829268292683,-11,0.0478260869565217,-51,-0.221739130434783,149,-0.726829268292683,
7208118,9902.34375,-224,0.137339055793991,1232,0.755364806866953,-16000,9.80993255671367,-4,3.41463414634146,-56,0.24390243902439,-13,0.792682926829268,-11,0.0478260869565217,-52,-0.226086956521739,149,-0.726829268292683,
7208758,9921.875,-208,0.127529123237278,1248,0.765174739423666,-16032,9.8295524218271,17,3.29268292682927,-54,-1.03658536585366,-10,0.609756097560976,-12,0.0521739130434783,-52,-0.226086956521739,148,-0.721951219512195,
7209398,9941.40625,-320,0.196198651134273,1216,0.745554874310239,-16016,9.81974248927039,18,3.29268292682927,-54,-1.09756097560976,-9,0.548780487804878,-14,0.0608695652173913,-47,-0.204347826086957,148,-0.721951219512195,
7210038,9960.9375,-368,0.225628448804414,1200,0.735744941753525,-16064,9.84917228694053,-8,3.41463414634146,-56,0.487804878048781,-15,0.914634146341463,-10,0.0434782608695652,-54,-0.234782608695652,149,-0.726829268292683,
7210678,9980.46875,-304,0.18638871857756,1248,0.765174739423666,-16032,9.8295524218271,14,3.41463414634146,-56,-0.853658536585366,-14,0.853658536585366,-12,0.0521739130434783,-53,-0.230434782608696,149,-0.726829268292683,
7211318,10000,-400,0.245248313917842,1264,0.77498467198038,-16064,9.84917228694053,21,3.41463414634146,-56,-1.28048780487805,-16,0.975609756097561,-13,0.0565217391304348,-49,-0.21304347826087,148,-0.721951219512195,
7211958,10019.53125,-496,0.304107909258124,1360,0.833844267320662,-16016,9.81974248927039,7,3.35365853658537,-55,-0.426829268292683,-22,1.34146341463415,-13,0.0565217391304348,-46,-0.2,147,-0.717073170731707,
7212598,10039.0625,-512,0.313917841814838,1440,0.88289393010423,-15952,9.78050275904353,2,3.23170731707317,-53,-0.121951219512195,-21,1.28048780487805,-12,0.0521739130434783,-50,-0.217391304347826,147,-0.717073170731707,
7213238,10058.59375,-544,0.333537706928265,1520,0.931943592887799,-15984,9.80012262415696,20,3.29268292682927,-54,-1.21951219512195,-23,1.40243902439024,-11,0.0478260869565217,-51,-0.221739130434783,150,-0.731707317073171,
7213878,10078.125,-672,0.412017167381974,1520,0.931943592887799,-15840,9.71183323114654,12,2.98780487804878,-49,-0.731707317073171,-25,1.52439024390244,-13,0.0565217391304348,-51,-0.221739130434783,149,-0.726829268292683,
7214518,10097.65625,-560,0.343347639484979,1376,0.843654199877376,-15792,9.6824034334764,2,2.5609756097561,-42,-0.121951219512195,-8,0.487804878048781,-12,0.0521739130434783,-47,-0.204347826086957,147,-0.717073170731707,
7215158,10117.1875,-432,0.264868179031269,1328,0.814224402207235,-15904,9.75107296137339,21,2.07317073170732,-34,-1.28048780487805,-1,0.0609756097560976,-11,0.0478260869565217,-49,-0.21304347826087,150,-0.731707317073171,
7215798,10136.71875,-400,0.245248313917842,1264,0.77498467198038,-15888,9.74126302881668,25,1.34146341463415,-22,-1.52439024390244,10,-0.609756097560976,-12,0.0521739130434783,-49,-0.21304347826087,148,-0.721951219512195,
7216438,10156.25,-464,0.284488044144696,1152,0.706315144083384,-15904,9.75107296137339,13,1.82926829268293,-30,-0.792682926829268,7,-0.426829268292683,-10,0.0434782608695652,-51,-0.221739130434783,149,-0.726829268292683,
7217078,10175.78125,-448,0.274678111587983,1136,0.696505211526671,-15936,9.77069282648682,0,1.46341463414634,-24,0,4,-0.24390243902439,-11,0.0478260869565217,-50,-0.217391304347826,150,-0.731707317073171,
7217718,10195.3125,-368,0.225628448804414,1040,0.637645616186389,-16000,9.80993255671367,0,1.95121951219512,-32,0,-9,0.548780487804878,-11,0.0478260869565217,-49,-0.21304347826087,147,-0.717073170731707,
7218358,10214.84375,-416,0.255058246474555,1104,0.676885346413243,-16000,9.80993255671367,6,2.01219512195122,-33,-0.365853658536585,-14,0.853658536585366,-14,0.0608695652173913,-50,-0.217391304347826,149,-0.726829268292683,
7218998,10234.375,-400,0.245248313917842,1072,0.657265481299816,-15984,9.80012262415696,-15,2.13414634146341,-35,0.914634146341463,-24,1.46341463414634,-13,0.0565217391304348,-48,-0.208695652173913,148,-0.721951219512195,
7219638,10253.90625,-352,0.215818516247701,1136,0.696505211526671,-15984,9.80012262415696,-4,1.76829268292683,-29,0.24390243902439,-27,1.64634146341463,-14,0.0608695652173913,-54,-0.234782608695652,150,-0.731707317073171,
7220278,10273.4375,-448,0.274678111587983,1120,0.686695278969957,-16032,9.8295524218271,15,1.40243902439024,-23,-0.914634146341463,-20,1.21951219512195,-11,0.0478260869565217,-52,-0.226086956521739,148,-0.721951219512195,
7220918,10292.96875,-448,0.274678111587983,1040,0.637645616186389,-16096,9.86879215205395,6,1.82926829268293,-30,-0.365853658536585,-25,1.52439024390244,-11,0.0478260869565217,-50,-0.217391304347826,149,-0.726829268292683,
7221558,10312.5,-592,0.362967504598406,1184,0.725935009196812,-16048,9.83936235438381,14,2.19512195121951,-36,-0.853658536585366,-26,1.58536585365854,-12,0.0521739130434783,-48,-0.208695652173913,148,-0.721951219512195,
7222198,10332.03125,-672,0.412017167381974,1328,0.814224402207235,-16032,9.8295524218271,-9,2.07317073170732,-34,0.548780487804878,-31,1.89024390243902,-11,0.0478260869565217,-49,-0.21304347826087,149,-0.726829268292683,
7222838,10351.5625,-656,0.402207234825261,1504,0.922133660331085,-15936,9.77069282648682,-32,2.01219512195122,-33,1.95121951219512,-30,1.82926829268293,-11,0.0478260869565217,-48,-0.208695652173913,149,-0.726829268292683,
7223478,10371.09375,-528,0.323727774371551,1520,0.931943592887799,-15968,9.79031269160024,-24,1.52439024390244,-25,1.46341463414634,-25,1.52439024390244,-11,0.0478260869565217,-53,-0.230434782608696,150,-0.731707317073171,
7224118,10390.625,-416,0.255058246474555,1376,0.843654199877376,-16000,9.80993255671367,24,1.21951219512195,-20,-1.46341463414634,-9,0.548780487804878,-10,0.0434782608695652,-53,-0.230434782608696,151,-0.736585365853659,
7224758,10410.15625,-560,0.343347639484979,1168,0.716125076640098,-16048,9.83936235438381,48,1.03658536585366,-17,-2.92682926829268,7,-0.426829268292683,-11,0.0478260869565217,-52,-0.226086956521739,148,-0.721951219512195,
7225398,10429.6875,-608,0.37277743715512,1056,0.647455548743102,-16064,9.84917228694053,28,1.09756097560976,-18,-1.70731707317073,6,-0.365853658536585,-13,0.0565217391304348,-49,-0.21304347826087,148,-0.721951219512195,
7226038,10449.21875,-496,0.304107909258124,1008,0.618025751072961,-16144,9.89822194972409,1,1.21951219512195,-20,-0.0609756097560976,7,-0.426829268292683,-10,0.0434782608695652,-53,-0.230434782608696,150,-0.731707317073171,
7226678,10468.75,-432,0.264868179031269,992,0.608215818516248,-16112,9.87860208461067,-7,1.52439024390244,-25,0.426829268292683,-3,0.182926829268293,-10,0.0434782608695652,-52,-0.226086956521739,149,-0.726829268292683,
7227318,10488.28125,-368,0.225628448804414,928,0.568976088289393,-16144,9.89822194972409,-15,1.70731707317073,-28,0.914634146341463,-10,0.609756097560976,-9,0.0391304347826087,-50,-0.217391304347826,150,-0.731707317073171,
7227958,10507.8125,-304,0.18638871857756,992,0.608215818516248,-16144,9.89822194972409,-4,2.01219512195122,-33,0.24390243902439,-19,1.15853658536585,-10,0.0434782608695652,-51,-0.221739130434783,150,-0.731707317073171,
7228598,10527.34375,-464,0.284488044144696,1056,0.647455548743102,-16240,9.95708154506438,14,2.31707317073171,-38,-0.853658536585366,-25,1.52439024390244,-12,0.0521739130434783,-51,-0.221739130434783,149,-0.726829268292683,
7229238,10546.875,-560,0.343347639484979,1088,0.66707541385653,-16240,9.95708154506438,3,2.5,-41,-0.182926829268293,-29,1.76829268292683,-12,0.0521739130434783,-48,-0.208695652173913,146,-0.712195121951219,
7229878,10566.40625,-512,0.313917841814838,1120,0.686695278969957,-16304,9.99632127529123,-15,2.74390243902439,-45,0.914634146341463,-30,1.82926829268293,-14,0.0608695652173913,-48,-0.208695652173913,148,-0.721951219512195,
7230518,10585.9375,-512,0.313917841814838,1088,0.66707541385653,-16272,9.9767014101778,-13,2.86585365853659,-47,0.792682926829268,-31,1.89024390243902,-9,0.0391304347826087,-53,-0.230434782608696,148,-0.721951219512195,
7231158,10605.46875,-560,0.343347639484979,1104,0.676885346413243,-16320,10.0061312078479,5,3.29268292682927,-54,-0.304878048780488,-27,1.64634146341463,-12,0.0521739130434783,-49,-0.21304347826087,148,-0.721951219512195,
7231798,10625,-592,0.362967504598406,1008,0.618025751072961,-16368,10.0355610055181,11,3.41463414634146,-56,-0.670731707317073,-17,1.03658536585366,-12,0.0521739130434783,-49,-0.21304347826087,149,-0.726829268292683,
7232438,10644.53125,-512,0.313917841814838,1056,0.647455548743102,-16336,10.0159411404047,-4,3.59756097560976,-59,0.24390243902439,-17,1.03658536585366,-12,0.0521739130434783,-43,-0.18695652173913,147,-0.717073170731707,
