Shimmer,Shimmer,Shimmer,Shimmer,Shimmer,Shimmer,Shimmer,Shimmer,Shimmer,Shimmer,Shimmer,Shimmer,Shimmer,Shimmer,Shimmer,Shimmer,Shimmer,Shimmer,Shimmer,Shimmer,
Timestamp,Timestamp,Wide Range Accelerometer X,Wide Range Accelerometer X,Wide Range Accelerometer Y,Wide Range Accelerometer Y,Wide Range Accelerometer Z,Wide Range Accelerometer Z,Gyroscope X,Gyroscope X,Gyroscope Y,Gyroscope Y,Gyroscope Z,Gyroscope Z,Magnetometer X,Magnetometer X,Magnetometer Y,Magnetometer Y,Magnetometer Z,Magnetometer Z,
RAW,CAL,RAW,CAL,RAW,CAL,RAW,CAL,RAW,CAL,RAW,CAL,RAW,CAL,RAW,CAL,RAW,CAL,RAW,CAL,
no units,mSecs,no units,m/(sec^2),no units,m/(sec^2),no units,m/(sec^2),no units,deg/sec,no units,deg/sec,no units,deg/sec,no units,local,no units,local,no units,local,
16663734,0,5664,-3.47271612507664,-15024,-9.21152667075414,-1328,0.814224402207235,-21,3.47560975609756,-57,1.28048780487805,-14,0.853658536585366,-92,0.4,38,0.165217391304348,132,-0.64390243902439,
16664374,19.53125,5840,-3.58062538320049,-15200,-9.31943592887799,-1472,0.902513795217658,-22,3.65853658536585,-60,1.34146341463415,-8,0.487804878048781,-93,0.404347826086957,36,0.156521739130435,134,-0.653658536585366,
16665014,39.0625,5872,-3.60024524831392,-15184,-9.30962599632127,-1440,0.88289393010423,-2,3.84146341463415,-63,0.121951219512195,-7,0.426829268292683,-91,0.395652173913043,37,0.160869565217391,133,-0.648780487804878,
16665654,58.59375,5808,-3.56100551808706,-15072,-9.24095646842428,-1456,0.892703862660944,6,3.59756097560976,-59,-0.365853658536585,-13,0.792682926829268,-90,0.391304347826087,36,0.156521739130435,133,-0.648780487804878,
16666294,78.125,5824,-3.57081545064378,-14992,-9.19190680564071,-1488,0.912323727774372,0,3.47560975609756,-57,0,-15,0.914634146341463,-92,0.4,39,0.169565217391304,132,-0.64390243902439,
16666934,97.65625,5792,-3.55119558553035,-15072,-9.24095646842428,-1472,0.902513795217658,-2,3.35365853658537,-55,0.121951219512195,-17,1.03658536585366,-93,0.404347826086957,38,0.165217391304348,132,-0.64390243902439,
16667574,117.1875,5744,-3.52176578786021,-15120,-9.27038626609442,-1424,0.873083997547517,3,3.29268292682927,-54,-0.182926829268293,-14,0.853658536585366,-91,0.395652173913043,41,0.178260869565217,133,-0.648780487804878,
16668214,136.71875,5728,-3.51195585530349,-15040,-9.22133660331085,-1440,0.88289393010423,3,3.17073170731707,-52,-0.182926829268293,-16,0.975609756097561,-90,0.391304347826087,35,0.152173913043478,133,-0.648780487804878,
16668854,156.25,5760,-3.53157572041692,-15008,-9.20171673819742,-1440,0.88289393010423,1,2.92682926829268,-48,-0.0609756097560976,-9,0.548780487804878,-92,0.4,34,0.147826086956522,133,-0.648780487804878,
16669494,175.78125,5760,-3.53157572041692,-15056,-9.23114653586757,-1408,0.863274064990803,4,2.86585365853659,-47,-0.24390243902439,-11,0.670731707317073,-92,0.4,41,0.178260869565217,133,-0.648780487804878,
16670134,195.3125,5776,-3.54138565297364,-15024,-9.21152667075414,-1536,0.941753525444513,7,2.98780487804878,-49,-0.426829268292683,-12,0.731707317073171,-91,0.395652173913043,38,0.165217391304348,133,-0.648780487804878,
16670774,214.84375,5776,-3.54138565297364,-15008,-9.20171673819742,-1424,0.873083997547517,3,2.80487804878049,-46,-0.182926829268293,-14,0.853658536585366,-91,0.395652173913043,35,0.152173913043478,135,-0.658536585365854,
16671414,234.375,5824,-3.57081545064378,-15008,-9.20171673819742,-1440,0.88289393010423,0,3.04878048780488,-50,0,-21,1.28048780487805,-91,0.395652173913043,37,0.160869565217391,133,-0.648780487804878,
16672054,253.90625,5824,-3.57081545064378,-15040,-9.22133660331085,-1424,0.873083997547517,-2,2.68292682926829,-44,0.121951219512195,-19,1.15853658536585,-92,0.4,38,0.165217391304348,132,-0.64390243902439,
16672694,273.4375,5856,-3.5904353157572,-15120,-9.27038626609442,-1488,0.912323727774372,-5,2.74390243902439,-45,0.304878048780488,-17,1.03658536585366,-90,0.391304347826087,35,0.152173913043478,133,-0.648780487804878,
16673334,292.96875,5792,-3.55119558553035,-15136,-9.28019619865113,-1520,0.931943592887799,0,2.92682926829268,-48,0,-13,0.792682926829268,-90,0.391304347826087,36,0.156521739130435,133,-0.648780487804878,
16673974,312.5,5792,-3.55119558553035,-15056,-9.23114653586757,-1520,0.931943592887799,-2,3.10975609756098,-51,0.121951219512195,-13,0.792682926829268,-90,0.391304347826087,38,0.165217391304348,132,-0.64390243902439,
16674614,332.03125,5776,-3.54138565297364,-15072,-9.24095646842428,-1488,0.912323727774372,-3,2.68292682926829,-44,0.182926829268293,-13,0.792682926829268,-90,0.391304347826087,38,0.165217391304348,133,-0.648780487804878,
16675254,351.5625,5808,-3.56100551808706,-15120,-9.27038626609442,-1504,0.922133660331085,-8,2.80487804878049,-46,0.487804878048781,-15,0.914634146341463,-92,0.4,34,0.147826086956522,133,-0.648780487804878,
16675894,371.09375,5760,-3.53157572041692,-15104,-9.26057633353771,-1504,0.922133660331085,-14,2.86585365853659,-47,0.853658536585366,-18,1.09756097560976,-92,0.4,36,0.156521739130435,133,-0.648780487804878,
16676534,390.625,5744,-3.52176578786021,-15088,-9.25076640098099,-1488,0.912323727774372,-13,3.04878048780488,-50,0.792682926829268,-16,0.975609756097561,-91,0.395652173913043,35,0.152173913043478,132,-0.64390243902439,
16677174,410.15625,5760,-3.53157572041692,-15120,-9.27038626609442,-1520,0.931943592887799,-21,3.35365853658537,-55,1.28048780487805,-10,0.609756097560976,-92,0.4,40,0.173913043478261,132,-0.64390243902439,
16677814,429.6875,5744,-3.52176578786021,-15088,-9.25076640098099,-1472,0.902513795217658,-23,3.29268292682927,-54,1.40243902439024,-12,0.731707317073171,-92,0.4,38,0.165217391304348,132,-0.64390243902439,
16678454,449.21875,5856,-3.5904353157572,-15104,-9.26057633353771,-1408,0.863274064990803,-22,3.23170731707317,-53,1.34146341463415,-13,0.792682926829268,-92,0.4,39,0.169565217391304,132,-0.64390243902439,
16679094,468.75,5856,-3.5904353157572,-15104,-9.26057633353771,-1440,0.88289393010423,-14,3.23170731707317,-53,0.853658536585366,-12,0.731707317073171,-91,0.395652173913043,40,0.173913043478261,132,-0.64390243902439,
16679734,488.28125,5840,-3.58062538320049,-15024,-9.21152667075414,-1408,0.863274064990803,-12,3.29268292682927,-54,0.731707317073171,-10,0.609756097560976,-91,0.395652173913043,34,0.147826086956522,133,-0.648780487804878,
16680374,507.8125,5792,-3.55119558553035,-15024,-9.21152667075414,-1328,0.814224402207235,-14,3.41463414634146,-56,0.853658536585366,-11,0.670731707317073,-92,0.4,37,0.160869565217391,133,-0.648780487804878,
16681014,527.34375,5856,-3.5904353157572,-15056,-9.23114653586757,-1376,0.843654199877376,-19,3.23170731707317,-53,1.15853658536585,-7,0.426829268292683,-94,0.408695652173913,38,0.165217391304348,132,-0.64390243902439,
16681654,546.875,5840,-3.58062538320049,-14992,-9.19190680564071,-1360,0.833844267320662,-16,3.17073170731707,-52,0.975609756097561,-6,0.365853658536585,-91,0.395652173913043,35,0.152173913043478,134,-0.653658536585366,
16682294,566.40625,5776,-3.54138565297364,-15040,-9.22133660331085,-1488,0.912323727774372,-17,3.04878048780488,-50,1.03658536585366,-3,0.182926829268293,-91,0.395652173913043,35,0.152173913043478,134,-0.653658536585366,
16682934,585.9375,5808,-3.56100551808706,-15056,-9.23114653586757,-1408,0.863274064990803,-19,3.10975609756098,-51,1.15853658536585,-1,0.0609756097560976,-90,0.391304347826087,38,0.165217391304348,133,-0.648780487804878,
16683574,605.46875,5856,-3.5904353157572,-15072,-9.24095646842428,-1488,0.912323727774372,-16,2.98780487804878,-49,0.975609756097561,-2,0.121951219512195,-90,0.391304347826087,38,0.165217391304348,132,-0.64390243902439,
16684214,625,5824,-3.57081545064378,-15056,-9.23114653586757,-1440,0.88289393010423,-14,3.47560975609756,-57,0.853658536585366,-2,0.121951219512195,-94,0.408695652173913,36,0.156521739130435,133,-0.648780487804878,
16684854,644.53125,5856,-3.5904353157572,-15088,-9.25076640098099,-1472,0.902513795217658,-15,3.35365853658537,-55,0.914634146341463,-3,0.182926829268293,-93,0.404347826086957,38,0.165217391304348,132,-0.64390243902439,
16685494,664.0625,5856,-3.5904353157572,-15184,-9.30962599632127,-1456,0.892703862660944,-13,3.53658536585366,-58,0.792682926829268,-1,0.0609756097560976,-89,0.38695652173913,37,0.160869565217391,133,-0.648780487804878,
16686134,683.59375,5840,-3.58062538320049,-15072,-9.24095646842428,-1536,0.941753525444513,-5,3.59756097560976,-59,0.304878048780488,-1,0.0609756097560976,-90,0.391304347826087,35,0.152173913043478,133,-0.648780487804878,
16686774,703.125,5792,-3.55119558553035,-15008,-9.20171673819742,-1504,0.922133660331085,-21,3.47560975609756,-57,1.28048780487805,-5,0.304878048780488,-92,0.4,40,0.173913043478261,131,-0.639024390243902,
16687414,722.65625,5776,-3.54138565297364,-15056,-9.23114653586757,-1344,0.824034334763949,-42,3.29268292682927,-54,2.5609756097561,-2,0.121951219512195,-92,0.4,38,0.165217391304348,131,-0.639024390243902,
16688054,742.1875,5840,-3.58062538320049,-15120,-9.27038626609442,-1376,0.843654199877376,-25,3.41463414634146,-56,1.52439024390244,3,-0.182926829268293,-92,0.4,37,0.160869565217391,132,-0.64390243902439,
16688694,761.71875,5840,-3.58062538320049,-15072,-9.24095646842428,-1408,0.863274064990803,-27,3.35365853658537,-55,1.64634146341463,7,-0.426829268292683,-92,0.4,35,0.152173913043478,132,-0.64390243902439,
16689334,781.25,5840,-3.58062538320049,-15040,-9.22133660331085,-1408,0.863274064990803,-26,3.35365853658537,-55,1.58536585365854,10,-0.609756097560976,-93,0.404347826086957,39,0.169565217391304,133,-0.648780487804878,
16689974,800.78125,5904,-3.61986511342735,-15024,-9.21152667075414,-1312,0.804414469650521,-34,2.98780487804878,-49,2.07317073170732,8,-0.487804878048781,-92,0.4,38,0.165217391304348,132,-0.64390243902439,
16690614,820.3125,5888,-3.61005518087063,-15088,-9.25076640098099,-1392,0.853464132434089,-26,3.35365853658537,-55,1.58536585365854,9,-0.548780487804878,-91,0.395652173913043,36,0.156521739130435,135,-0.658536585365854,
16691254,839.84375,5936,-3.63948497854077,-15072,-9.24095646842428,-1440,0.88289393010423,-15,2.80487804878049,-46,0.914634146341463,9,-0.548780487804878,-91,0.395652173913043,40,0.173913043478261,133,-0.648780487804878,
16691894,859.375,5872,-3.60024524831392,-15104,-9.26057633353771,-1408,0.863274064990803,-7,2.68292682926829,-44,0.426829268292683,8,-0.487804878048781,-91,0.395652173913043,40,0.173913043478261,133,-0.648780487804878,
16692534,878.90625,5888,-3.61005518087063,-15072,-9.24095646842428,-1408,0.863274064990803,-5,2.5609756097561,-42,0.304878048780488,8,-0.487804878048781,-91,0.395652173913043,38,0.165217391304348,132,-0.64390243902439,
16693174,898.4375,5888,-3.61005518087063,-15040,-9.22133660331085,-1328,0.814224402207235,5,2.4390243902439,-40,-0.304878048780488,5,-0.304878048780488,-91,0.395652173913043,37,0.160869565217391,132,-0.64390243902439,
16693814,917.96875,5888,-3.61005518087063,-15040,-9.22133660331085,-1376,0.843654199877376,17,2.31707317073171,-38,-1.03658536585366,9,-0.548780487804878,-90,0.391304347826087,37,0.160869565217391,134,-0.653658536585366,
16694454,937.5,5920,-3.62967504598406,-15024,-9.21152667075414,-1376,0.843654199877376,17,2.25609756097561,-37,-1.03658536585366,7,-0.426829268292683,-90,0.391304347826087,38,0.165217391304348,132,-0.64390243902439,
16695094,957.03125,5824,-3.57081545064378,-15072,-9.24095646842428,-1392,0.853464132434089,12,2.13414634146341,-35,-0.731707317073171,2,-0.121951219512195,-92,0.4,39,0.169565217391304,132,-0.64390243902439,
16695734,976.5625,5904,-3.61986511342735,-15136,-9.28019619865113,-1328,0.814224402207235,7,2.19512195121951,-36,-0.426829268292683,2,-0.121951219512195,-93,0.404347826086957,36,0.156521739130435,133,-0.648780487804878,
16696374,996.09375,5888,-3.61005518087063,-15136,-9.28019619865113,-1328,0.814224402207235,1,2.4390243902439,-40,-0.0609756097560976,-1,0.0609756097560976,-91,0.395652173913043,37,0.160869565217391,134,-0.653658536585366,
16697014,1015.625,5856,-3.5904353157572,-15072,-9.24095646842428,-1376,0.843654199877376,8,2.5,-41,-0.487804878048781,-2,0.121951219512195,-90,0.391304347826087,36,0.156521739130435,132,-0.64390243902439,
16697654,1035.15625,5792,-3.55119558553035,-14976,-9.182096873084,-1408,0.863274064990803,11,2.4390243902439,-40,-0.670731707317073,-2,0.121951219512195,-91,0.395652173913043,35,0.152173913043478,132,-0.64390243902439,
16698294,1054.6875,5824,-3.57081545064378,-14992,-9.19190680564071,-1440,0.88289393010423,3,2.37804878048781,-39,-0.182926829268293,-4,0.24390243902439,-92,0.4,42,0.182608695652174,134,-0.653658536585366,
16698934,1074.21875,5776,-3.54138565297364,-14944,-9.16247700797057,-1520,0.931943592887799,-6,2.5609756097561,-42,0.365853658536585,-2,0.121951219512195,-93,0.404347826086957,39,0.169565217391304,133,-0.648780487804878,
16699574,1093.75,5856,-3.5904353157572,-15136,-9.28019619865113,-1472,0.902513795217658,-12,2.4390243902439,-40,0.731707317073171,-4,0.24390243902439,-93,0.404347826086957,39,0.169565217391304,131,-0.639024390243902,
16700214,1113.28125,5968,-3.6591048436542,-15168,-9.29981606376456,-1408,0.863274064990803,-9,2.5,-41,0.548780487804878,-6,0.365853658536585,-91,0.395652173913043,36,0.156521739130435,134,-0.653658536585366,
16700854,1132.8125,6016,-3.68853464132434,-15104,-9.26057633353771,-1440,0.88289393010423,14,2.37804878048781,-39,-0.853658536585366,-8,0.487804878048781,-92,0.4,39,0.169565217391304,133,-0.648780487804878,
16701494,1152.34375,6000,-3.67872470876763,-15056,-9.23114653586757,-1376,0.843654199877376,46,2.31707317073171,-38,-2.80487804878049,-10,0.609756097560976,-92,0.4,39,0.169565217391304,132,-0.64390243902439,
16702134,1171.875,5920,-3.62967504598406,-15008,-9.20171673819742,-1392,0.853464132434089,82,2.07317073170732,-34,-5,-7,0.426829268292683,-90,0.391304347826087,35,0.152173913043478,134,-0.653658536585366,
16702774,1191.40625,5792,-3.55119558553035,-15024,-9.21152667075414,-1408,0.863274064990803,85,1.70731707317073,-28,-5.18292682926829,-6,0.365853658536585,-92,0.4,41,0.178260869565217,134,-0.653658536585366,
16703414,1210.9375,5712,-3.50214592274678,-15056,-9.23114653586757,-1312,0.804414469650521,84,1.76829268292683,-29,-5.1219512195122,-5,0.304878048780488,-91,0.395652173913043,38,0.165217391304348,131,-0.639024390243902,
16704054,1230.46875,5632,-3.45309625996321,-15072,-9.24095646842428,-1376,0.843654199877376,77,1.28048780487805,-21,-4.69512195121951,-4,0.24390243902439,-90,0.391304347826087,39,0.169565217391304,132,-0.64390243902439,
16704694,1250,5568,-3.41385652973636,-15104,-9.26057633353771,-1456,0.892703862660944,64,1.46341463414634,-24,-3.90243902439024,2,-0.121951219512195,-91,0.395652173913043,39,0.169565217391304,132,-0.64390243902439,
16705334,1269.53125,5616,-3.4432863274065,-15136,-9.28019619865113,-1440,0.88289393010423,54,1.52439024390244,-25,-3.29268292682927,3,-0.182926829268293,-91,0.395652173913043,37,0.160869565217391,132,-0.64390243902439,
16705974,1289.0625,5600,-3.43347639484979,-15184,-9.30962599632127,-1504,0.922133660331085,45,1.82926829268293,-30,-2.74390243902439,3,-0.182926829268293,-92,0.4,42,0.182608695652174,131,-0.639024390243902,
16706614,1308.59375,5552,-3.40404659717964,-15216,-9.3292458614347,-1504,0.922133660331085,34,1.95121951219512,-32,-2.07317073170732,9,-0.548780487804878,-92,0.4,39,0.169565217391304,132,-0.64390243902439,
16707254,1328.125,5568,-3.41385652973636,-15216,-9.3292458614347,-1440,0.88289393010423,20,2.31707317073171,-38,-1.21951219512195,7,-0.426829268292683,-92,0.4,37,0.160869565217391,130,-0.634146341463415,
16707894,1347.65625,5664,-3.47271612507664,-15184,-9.30962599632127,-1424,0.873083997547517,10,2.68292682926829,-44,-0.609756097560976,7,-0.426829268292683,-90,0.391304347826087,36,0.156521739130435,132,-0.64390243902439,
16708534,1367.1875,5600,-3.43347639484979,-15120,-9.27038626609442,-1520,0.931943592887799,17,2.80487804878049,-46,-1.03658536585366,9,-0.548780487804878,-89,0.38695652173913,34,0.147826086956522,132,-0.64390243902439,
16709174,1386.71875,5536,-3.39423666462293,-15024,-9.21152667075414,-1472,0.902513795217658,2,2.92682926829268,-48,-0.121951219512195,8,-0.487804878048781,-90,0.391304347826087,42,0.182608695652174,133,-0.648780487804878,
16709814,1406.25,5584,-3.42366646229307,-15152,-9.29000613120785,-1408,0.863274064990803,-25,2.98780487804878,-49,1.52439024390244,15,-0.914634146341463,-91,0.395652173913043,40,0.173913043478261,132,-0.64390243902439,
16710454,1425.78125,5744,-3.52176578786021,-15264,-9.35867565910484,-1408,0.863274064990803,-40,3.04878048780488,-50,2.4390243902439,21,-1.28048780487805,-90,0.391304347826087,36,0.156521739130435,133,-0.648780487804878,
16711094,1445.3125,5904,-3.61986511342735,-15184,-9.30962599632127,-1376,0.843654199877376,-17,3.04878048780488,-50,1.03658536585366,24,-1.46341463414634,-90,0.391304347826087,37,0.160869565217391,132,-0.64390243902439,
16711734,1464.84375,6016,-3.68853464132434,-15168,-9.29981606376456,-1296,0.794604537093807,14,2.31707317073171,-38,-0.853658536585366,34,-2.07317073170732,-91,0.395652173913043,38,0.165217391304348,133,-0.648780487804878,
16712374,1484.375,5776,-3.54138565297364,-15056,-9.23114653586757,-1424,0.873083997547517,75,3.04878048780488,-50,-4.57317073170732,38,-2.31707317073171,-89,0.38695652173913,37,0.160869565217391,131,-0.639024390243902,
16713014,1503.90625,5984,-3.66891477621091,-15056,-9.23114653586757,-1600,0.980993255671367,89,3.35365853658537,-55,-5.42682926829268,32,-1.95121951219512,-90,0.391304347826087,36,0.156521739130435,133,-0.648780487804878,
16713654,1523.4375,6544,-4.01226241569589,-15136,-9.28019619865113,-1200,0.735744941753525,160,3.23170731707317,-53,-9.75609756097561,56,-3.41463414634146,-89,0.38695652173913,39,0.169565217391304,132,-0.64390243902439,
16714294,1542.96875,6112,-3.74739423666462,-15040,-9.22133660331085,-1296,0.794604537093807,473,4.81707317073171,-79,-28.8414634146341,133,-8.10975609756098,-89,0.38695652173913,39,0.169565217391304,132,-0.64390243902439,
16714934,1562.5,5680,-3.48252605763335,-15104,-9.26057633353771,-1776,1.08890251379522,655,5.42682926829268,-89,-39.9390243902439,112,-6.82926829268293,-88,0.382608695652174,38,0.165217391304348,132,-0.64390243902439,
16715574,1582.03125,6048,-3.70815450643777,-15104,-9.26057633353771,-1824,1.11833231146536,513,7.01219512195122,-115,-31.2804878048781,68,-4.14634146341463,-89,0.38695652173913,35,0.152173913043478,133,-0.648780487804878,
16716214,1601.5625,6928,-4.24770079705702,-14816,-9.08399754751686,-960,0.58859595340282,561,5.67073170731707,-93,-34.2073170731707,48,-2.92682926829268,-88,0.382608695652174,37,0.160869565217391,131,-0.639024390243902,
16716854,1621.09375,6384,-3.91416309012876,-14784,-9.06437768240343,-1280,0.784794604537094,909,4.08536585365854,-67,-55.4268292682927,51,-3.10975609756098,-84,0.365217391304348,37,0.160869565217391,133,-0.648780487804878,
16717494,1640.625,5200,-3.18822808093194,-15392,-9.43715511955855,-2464,1.51072961373391,1195,4.02439024390244,-66,-72.8658536585366,123,-7.5,-82,0.356521739130435,36,0.156521739130435,133,-0.648780487804878,
16718134,1660.15625,4224,-2.58982219497241,-15200,-9.31943592887799,-2912,1.78540772532189,1153,8.23170731707317,-135,-70.3048780487805,128,-7.80487804878049,-82,0.356521739130435,35,0.152173913043478,133,-0.648780487804878,
16718774,1679.6875,4576,-2.80564071122011,-15360,-9.41753525444513,-2832,1.73635806253832,823,6.70731707317073,-110,-50.1829268292683,69,-4.20731707317073,-79,0.343478260869565,41,0.178260869565217,134,-0.653658536585366,
16719414,1699.21875,4944,-3.03126916002452,-15120,-9.27038626609442,-2352,1.44206008583691,680,6.89024390243902,-113,-41.4634146341463,30,-1.82926829268293,-78,0.339130434782609,35,0.152173913043478,133,-0.648780487804878,
16720054,1718.75,5136,-3.14898835070509,-15104,-9.26057633353771,-2144,1.31453096259963,660,4.9390243902439,-81,-40.2439024390244,15,-0.914634146341463,-77,0.334782608695652,35,0.152173913043478,133,-0.648780487804878,
16720694,1738.28125,4320,-2.64868179031269,-15072,-9.24095646842428,-2128,1.30472103004292,732,4.39024390243902,-72,-44.6341463414634,27,-1.64634146341463,-79,0.343478260869565,39,0.169565217391304,134,-0.653658536585366,
16721334,1757.8125,4368,-2.67811158798283,-15136,-9.28019619865113,-2240,1.37339055793991,501,2.86585365853659,-47,-30.5487804878049,5,-0.304878048780488,-77,0.334782608695652,39,0.169565217391304,134,-0.653658536585366,
16721974,1777.34375,4336,-2.6584917228694,-15072,-9.24095646842428,-2336,1.4322501532802,305,3.10975609756098,-51,-18.5975609756098,-3,0.182926829268293,-76,0.330434782608696,41,0.178260869565217,134,-0.653658536585366,
16722614,1796.875,4352,-2.66830165542612,-15136,-9.28019619865113,-2464,1.51072961373391,174,2.5609756097561,-42,-10.609756097561,9,-0.548780487804878,-75,0.326086956521739,36,0.156521739130435,133,-0.648780487804878,
16723254,1816.40625,4784,-2.93316983445739,-15136,-9.28019619865113,-2496,1.53034947884733,23,1.82926829268293,-30,-1.40243902439024,8,-0.487804878048781,-76,0.330434782608696,38,0.165217391304348,132,-0.64390243902439,
16723894,1835.9375,4848,-2.97240956468424,-15216,-9.3292458614347,-2592,1.58920907418761,14,1.28048780487805,-21,-0.853658536585366,8,-0.487804878048781,-74,0.321739130434783,38,0.165217391304348,132,-0.64390243902439,
16724534,1855.46875,4784,-2.93316983445739,-15264,-9.35867565910484,-2752,1.68730839975475,26,1.21951219512195,-20,-1.58536585365854,1,-0.0609756097560976,-75,0.326086956521739,36,0.156521739130435,134,-0.653658536585366,
16725174,1875,4720,-2.89393010423053,-15296,-9.37829552421827,-2896,1.77559779276517,29,1.21951219512195,-20,-1.76829268292683,-13,0.792682926829268,-75,0.326086956521739,38,0.165217391304348,133,-0.648780487804878,
16725814,1894.53125,4912,-3.0116492949111,-15264,-9.35867565910484,-2976,1.82464745554874,-28,1.21951219512195,-20,1.70731707317073,-30,1.82926829268293,-75,0.326086956521739,38,0.165217391304348,133,-0.648780487804878,
16726454,1914.0625,4816,-2.95278969957082,-15232,-9.33905579399141,-3072,1.88350705088903,-36,1.58536585365854,-26,2.19512195121951,-42,2.5609756097561,-75,0.326086956521739,36,0.156521739130435,133,-0.648780487804878,
16727094,1933.59375,4784,-2.93316983445739,-15264,-9.35867565910484,-3024,1.85407725321888,-19,1.03658536585366,-17,1.15853658536585,-28,1.70731707317073,-76,0.330434782608696,37,0.160869565217391,133,-0.648780487804878,
16727734,1953.125,4736,-2.90374003678725,-15216,-9.3292458614347,-2960,1.81483752299203,-43,0.365853658536585,-6,2.6219512195122,-30,1.82926829268293,-77,0.334782608695652,39,0.169565217391304,133,-0.648780487804878,
16728374,1972.65625,4160,-2.55058246474555,-15136,-9.28019619865113,-2592,1.58920907418761,-115,-1.15853658536585,19,7.01219512195122,-51,3.10975609756098,-76,0.330434782608696,35,0.152173913043478,133,-0.648780487804878,
16729014,1992.1875,3872,-2.37400367872471,-15168,-9.29981606376456,-2064,1.26548129981606,-594,-3.10975609756098,51,36.219512195122,-114,6.95121951219512,-76,0.330434782608696,36,0.156521739130435,132,-0.64390243902439,
16729654,2011.71875,3856,-2.364193746168,-15168,-9.29981606376456,-1600,0.980993255671367,-719,-2.19512195121951,36,43.8414634146341,-68,4.14634146341463,-78,0.339130434782609,41,0.178260869565217,133,-0.648780487804878,
16730294,2031.25,4192,-2.57020232985898,-15216,-9.3292458614347,-1776,1.08890251379522,-728,0.182926829268293,-3,44.390243902439,-21,1.28048780487805,-80,0.347826086956522,39,0.169565217391304,132,-0.64390243902439,
16730934,2050.78125,3744,-2.295524218271,-15152,-9.29000613120785,-2016,1.23605150214592,-922,0.487804878048781,-8,56.219512195122,18,-1.09756097560976,-78,0.339130434782609,35,0.152173913043478,133,-0.648780487804878,
16731574,2070.3125,4464,-2.73697118332311,-15280,-9.36848559166156,-1536,0.941753525444513,-1250,0.792682926829268,-13,76.219512195122,-84,5.1219512195122,-81,0.352173913043478,37,0.160869565217391,133,-0.648780487804878,
16732214,2089.84375,5952,-3.64929491109749,-15392,-9.43715511955855,-1408,0.863274064990803,-1038,1.58536585365854,-26,63.2926829268293,-42,2.5609756097561,-84,0.365217391304348,38,0.165217391304348,132,-0.64390243902439,
16732854,2109.375,6288,-3.85530349478847,-15440,-9.46658491722869,-1712,1.04966278356836,-789,2.4390243902439,-40,48.109756097561,-9,0.548780487804878,-85,0.369565217391304,38,0.165217391304348,132,-0.64390243902439,
16733494,2128.90625,6336,-3.88473329245861,-15344,-9.40772532188841,-2208,1.35377069282649,-667,4.32926829268293,-71,40.6707317073171,-28,1.70731707317073,-86,0.373913043478261,42,0.182608695652174,129,-0.629268292682927,
16734134,2148.4375,6464,-3.96321275291232,-15232,-9.33905579399141,-2480,1.52053954629062,-529,6.21951219512195,-102,32.2560975609756,-25,1.52439024390244,-85,0.369565217391304,37,0.160869565217391,132,-0.64390243902439,
16734774,2167.96875,6368,-3.90435315757204,-15280,-9.36848559166156,-2352,1.44206008583691,-401,7.5609756097561,-124,24.4512195121951,-35,2.13414634146341,-86,0.373913043478261,39,0.169565217391304,130,-0.634146341463415,
16735414,2187.5,6448,-3.95340282035561,-15184,-9.30962599632127,-2016,1.23605150214592,-269,8.29268292682927,-136,16.4024390243902,-44,2.68292682926829,-88,0.382608695652174,38,0.165217391304348,131,-0.639024390243902,
16736054,2207.03125,6448,-3.95340282035561,-15152,-9.29000613120785,-1696,1.03985285101165,-137,7.74390243902439,-127,8.35365853658537,-41,2.5,-89,0.38695652173913,39,0.169565217391304,133,-0.648780487804878,
16736694,2226.5625,6256,-3.83568362967505,-15056,-9.23114653586757,-1536,0.941753525444513,-35,7.25609756097561,-119,2.13414634146341,-45,2.74390243902439,-89,0.38695652173913,37,0.160869565217391,133,-0.648780487804878,
16737334,2246.09375,6016,-3.68853464132434,-15024,-9.21152667075414,-1360,0.833844267320662,24,6.28048780487805,-103,-1.46341463414634,-44,2.68292682926829,-88,0.382608695652174,37,0.160869565217391,132,-0.64390243902439,
16737974,2265.625,5792,-3.55119558553035,-15072,-9.24095646842428,-1216,0.745554874310239,38,5.54878048780488,-91,-2.31707317073171,-44,2.68292682926829,-88,0.382608695652174,34,0.147826086956522,132,-0.64390243902439,
16738614,2285.15625,5648,-3.46290619251993,-15040,-9.22133660331085,-1152,0.706315144083384,23,4.32926829268293,-71,-1.40243902439024,-46,2.80487804878049,-88,0.382608695652174,36,0.156521739130435,133,-0.648780487804878,
16739254,2304.6875,5616,-3.4432863274065,-14896,-9.13304721030043,-1104,0.676885346413243,10,2.92682926829268,-48,-0.609756097560976,-42,2.5609756097561,-88,0.382608695652174,41,0.178260869565217,134,-0.653658536585366,
16739894,2324.21875,5616,-3.4432863274065,-14912,-9.14285714285714,-1152,0.706315144083384,19,1.64634146341463,-27,-1.15853658536585,-32,1.95121951219512,-88,0.382608695652174,39,0.169565217391304,132,-0.64390243902439,
16740534,2343.75,5392,-3.30594727161251,-14944,-9.16247700797057,-1216,0.745554874310239,17,0.426829268292683,-7,-1.03658536585366,-17,1.03658536585366,-89,0.38695652173913,40,0.173913043478261,133,-0.648780487804878,
16741174,2363.28125,5264,-3.2274678111588,-15056,-9.23114653586757,-1504,0.922133660331085,-53,-0.548780487804878,9,3.23170731707317,-12,0.731707317073171,-89,0.38695652173913,38,0.165217391304348,133,-0.648780487804878,
16741814,2382.8125,5296,-3.24708767627223,-15024,-9.21152667075414,-1648,1.01042305334151,-160,-0.365853658536585,6,9.75609756097561,-19,1.15853658536585,-88,0.382608695652174,37,0.160869565217391,133,-0.648780487804878,
16742454,2402.34375,5456,-3.34518700183936,-14960,-9.17228694052728,-1856,1.13795217657879,-267,-0.0609756097560976,1,16.280487804878,-30,1.82926829268293,-89,0.38695652173913,42,0.182608695652174,133,-0.648780487804878,
16743094,2421.875,5664,-3.47271612507664,-14880,-9.12323727774372,-2144,1.31453096259963,-319,1.09756097560976,-18,19.4512195121951,-51,3.10975609756098,-89,0.38695652173913,39,0.169565217391304,131,-0.639024390243902,
16743734,2441.40625,6128,-3.75720416922134,-14800,-9.07418761496015,-2016,1.23605150214592,-149,1.09756097560976,-18,9.08536585365854,-45,2.74390243902439,-89,0.38695652173913,38,0.165217391304348,132,-0.64390243902439,
16744374,2460.9375,6576,-4.03188228080932,-14960,-9.17228694052728,-1536,0.941753525444513,173,0.487804878048781,-8,-10.5487804878049,-10,0.609756097560976,-89,0.38695652173913,36,0.156521739130435,133,-0.648780487804878,
16745014,2480.46875,6336,-3.88473329245861,-15120,-9.27038626609442,-1328,0.814224402207235,317,-0.24390243902439,4,-19.3292682926829,14,-0.853658536585366,-90,0.391304347826087,36,0.156521739130435,133,-0.648780487804878,
16745654,2500,5808,-3.56100551808706,-15456,-9.47639484978541,-1184,0.725935009196812,313,-0.426829268292683,7,-19.0853658536585,41,-2.5,-90,0.391304347826087,37,0.160869565217391,132,-0.64390243902439,
16746294,2519.53125,5440,-3.33537706928265,-15600,-9.56468424279583,-1280,0.784794604537094,216,0.0609756097560976,-1,-13.1707317073171,53,-3.23170731707317,-88,0.382608695652174,37,0.160869565217391,132,-0.64390243902439,
16746934,2539.0625,5440,-3.33537706928265,-15552,-9.53525444512569,-1296,0.794604537093807,161,0.304878048780488,-5,-9.81707317073171,42,-2.5609756097561,-88,0.382608695652174,36,0.156521739130435,133,-0.648780487804878,
16747574,2558.59375,5504,-3.3746167995095,-15440,-9.46658491722869,-1344,0.824034334763949,174,-0.609756097560976,10,-10.609756097561,21,-1.28048780487805,-90,0.391304347826087,41,0.178260869565217,131,-0.639024390243902,
16748214,2578.125,5440,-3.33537706928265,-15248,-9.34886572654813,-1504,0.922133660331085,190,-0.853658536585366,14,-11.5853658536585,-9,0.548780487804878,-87,0.378260869565217,36,0.156521739130435,131,-0.639024390243902,
16748854,2597.65625,5168,-3.16860821581852,-15136,-9.28019619865113,-1696,1.03985285101165,144,0.121951219512195,-2,-8.78048780487805,-38,2.31707317073171,-86,0.373913043478261,36,0.156521739130435,131,-0.639024390243902,
16749494,2617.1875,5056,-3.09993868792152,-15040,-9.22133660331085,-1696,1.03985285101165,38,0.975609756097561,-16,-2.31707317073171,-60,3.65853658536585,-88,0.382608695652174,42,0.182608695652174,132,-0.64390243902439,
16750134,2636.71875,5056,-3.09993868792152,-15184,-9.30962599632127,-1440,0.88289393010423,-30,2.74390243902439,-45,1.82926829268293,-61,3.71951219512195,-89,0.38695652173913,41,0.178260869565217,132,-0.64390243902439,
16750774,2656.25,5040,-3.09012875536481,-15376,-9.42734518700184,-1248,0.765174739423666,-93,3.84146341463415,-63,5.67073170731707,-51,3.10975609756098,-86,0.373913043478261,37,0.160869565217391,132,-0.64390243902439,
16751414,2675.78125,5072,-3.10974862047823,-15360,-9.41753525444513,-1152,0.706315144083384,-136,4.51219512195122,-74,8.29268292682927,-42,2.5609756097561,-88,0.382608695652174,39,0.169565217391304,131,-0.639024390243902,
16752054,2695.3125,5152,-3.1587982832618,-15296,-9.37829552421827,-1216,0.745554874310239,-157,4.9390243902439,-81,9.57317073170732,-34,2.07317073170732,-88,0.382608695652174,37,0.160869565217391,132,-0.64390243902439,
16752694,2714.84375,5104,-3.12936848559166,-15280,-9.36848559166156,-1424,0.873083997547517,-184,4.45121951219512,-73,11.219512195122,-18,1.09756097560976,-87,0.378260869565217,39,0.169565217391304,131,-0.639024390243902,
16753334,2734.375,5264,-3.2274678111588,-15408,-9.44696505211527,-1440,0.88289393010423,-177,3.90243902439024,-64,10.7926829268293,-2,0.121951219512195,-87,0.378260869565217,42,0.182608695652174,133,-0.648780487804878,
16753974,2753.90625,5376,-3.29613733905579,-15376,-9.42734518700184,-1584,0.971183323114654,-134,3.35365853658537,-55,8.17073170731707,25,-1.52439024390244,-88,0.382608695652174,37,0.160869565217391,132,-0.64390243902439,
16754614,2773.4375,5504,-3.3746167995095,-15264,-9.35867565910484,-1568,0.96137339055794,-78,2.68292682926829,-44,4.75609756097561,45,-2.74390243902439,-87,0.378260869565217,39,0.169565217391304,132,-0.64390243902439,
16755254,2792.96875,5552,-3.40404659717964,-15152,-9.29000613120785,-1616,0.990803188228081,-28,2.07317073170732,-34,1.70731707317073,66,-4.02439024390244,-88,0.382608695652174,38,0.165217391304348,131,-0.639024390243902,
16755894,2812.5,5584,-3.42366646229307,-15152,-9.29000613120785,-1584,0.971183323114654,5,2.01219512195122,-33,-0.304878048780488,75,-4.57317073170732,-89,0.38695652173913,38,0.165217391304348,132,-0.64390243902439,
16756534,2832.03125,5680,-3.48252605763335,-15168,-9.29981606376456,-1520,0.931943592887799,20,2.68292682926829,-44,-1.21951219512195,72,-4.39024390243902,-89,0.38695652173913,38,0.165217391304348,132,-0.64390243902439,
16757174,2851.5625,5712,-3.50214592274678,-15216,-9.3292458614347,-1424,0.873083997547517,41,2.98780487804878,-49,-2.5,61,-3.71951219512195,-87,0.378260869565217,37,0.160869565217391,131,-0.639024390243902,
16757814,2871.09375,5600,-3.43347639484979,-15184,-9.30962599632127,-1456,0.892703862660944,27,3.84146341463415,-63,-1.64634146341463,41,-2.5,-88,0.382608695652174,37,0.160869565217391,131,-0.639024390243902,
16758454,2890.625,5552,-3.40404659717964,-15296,-9.37829552421827,-1424,0.873083997547517,-3,4.51219512195122,-74,0.182926829268293,21,-1.28048780487805,-87,0.378260869565217,38,0.165217391304348,132,-0.64390243902439,
16759094,2910.15625,5584,-3.42366646229307,-15280,-9.36848559166156,-1344,0.824034334763949,-13,4.69512195121951,-77,0.792682926829268,7,-0.426829268292683,-88,0.382608695652174,40,0.173913043478261,132,-0.64390243902439,
16759734,2929.6875,5536,-3.39423666462293,-15280,-9.36848559166156,-1264,0.77498467198038,-29,4.69512195121951,-77,1.76829268292683,-8,0.487804878048781,-87,0.378260869565217,40,0.173913043478261,132,-0.64390243902439,
16760374,2949.21875,5360,-3.28632740649908,-15216,-9.3292458614347,-1344,0.824034334763949,-46,4.45121951219512,-73,2.80487804878049,-6,0.365853658536585,-89,0.38695652173913,37,0.160869565217391,132,-0.64390243902439,
16761014,2968.75,5424,-3.32556713672594,-15120,-9.27038626609442,-1344,0.824034334763949,-59,3.90243902439024,-64,3.59756097560976,-4,0.24390243902439,-91,0.395652173913043,42,0.182608695652174,132,-0.64390243902439,
16761654,2988.28125,5472,-3.35499693439608,-15152,-9.29000613120785,-1456,0.892703862660944,-58,3.84146341463415,-63,3.53658536585366,7,-0.426829268292683,-89,0.38695652173913,40,0.173913043478261,132,-0.64390243902439,
16762294,3007.8125,5472,-3.35499693439608,-15216,-9.3292458614347,-1552,0.951563458001226,-52,3.90243902439024,-64,3.17073170731707,14,-0.853658536585366,-87,0.378260869565217,38,0.165217391304348,133,-0.648780487804878,
16762934,3027.34375,5424,-3.32556713672594,-15120,-9.27038626609442,-1648,1.01042305334151,-35,4.14634146341463,-68,2.13414634146341,22,-1.34146341463415,-88,0.382608695652174,38,0.165217391304348,131,-0.639024390243902,
16763574,3046.875,5472,-3.35499693439608,-15232,-9.33905579399141,-1760,1.0790925812385,-23,4.39024390243902,-72,1.40243902439024,22,-1.34146341463415,-88,0.382608695652174,39,0.169565217391304,131,-0.639024390243902,
16764214,3066.40625,5472,-3.35499693439608,-15312,-9.38810545677498,-1712,1.04966278356836,-32,4.75609756097561,-78,1.95121951219512,16,-0.975609756097561,-87,0.378260869565217,39,0.169565217391304,132,-0.64390243902439,
16764854,3085.9375,5488,-3.36480686695279,-15248,-9.34886572654813,-1664,1.02023298589822,-45,5.1219512195122,-84,2.74390243902439,5,-0.304878048780488,-87,0.378260869565217,36,0.156521739130435,133,-0.648780487804878,
16765494,3105.46875,5472,-3.35499693439608,-15216,-9.3292458614347,-1600,0.980993255671367,-56,5.48780487804878,-90,3.41463414634146,-4,0.24390243902439,-87,0.378260869565217,37,0.160869565217391,132,-0.64390243902439,
16766134,3125,5552,-3.40404659717964,-15152,-9.29000613120785,-1536,0.941753525444513,-55,5.54878048780488,-91,3.35365853658537,-12,0.731707317073171,-87,0.378260869565217,39,0.169565217391304,132,-0.64390243902439,
16766774,3144.53125,5600,-3.43347639484979,-15136,-9.28019619865113,-1408,0.863274064990803,-52,5.0609756097561,-83,3.17073170731707,-11,0.670731707317073,-88,0.382608695652174,37,0.160869565217391,132,-0.64390243902439,
16767414,3164.0625,5616,-3.4432863274065,-15152,-9.29000613120785,-1456,0.892703862660944,-43,4.81707317073171,-79,2.6219512195122,-7,0.426829268292683,-91,0.395652173913043,39,0.169565217391304,132,-0.64390243902439,
16768054,3183.59375,5632,-3.45309625996321,-15120,-9.27038626609442,-1424,0.873083997547517,-36,4.63414634146342,-76,2.19512195121951,-7,0.426829268292683,-89,0.38695652173913,37,0.160869565217391,132,-0.64390243902439,
16768694,3203.125,5664,-3.47271612507664,-15104,-9.26057633353771,-1536,0.941753525444513,-16,4.39024390243902,-72,0.975609756097561,-1,0.0609756097560976,-88,0.382608695652174,36,0.156521739130435,133,-0.648780487804878,
16769334,3222.65625,5856,-3.5904353157572,-15040,-9.22133660331085,-1840,1.12814224402207,18,4.45121951219512,-73,-1.09756097560976,-1,0.0609756097560976,-90,0.391304347826087,37,0.160869565217391,133,-0.648780487804878,
16769974,3242.1875,6528,-4.00245248313918,-14864,-9.113427345187,-2080,1.27529123237278,114,3.29268292682927,-54,-6.95121951219512,32,-1.95121951219512,-88,0.382608695652174,41,0.178260869565217,133,-0.648780487804878,
16770614,3261.71875,8016,-4.91477621091355,-15072,-9.24095646842428,-2944,1.80502759043532,431,1.03658536585366,-17,-26.280487804878,208,-12.6829268292683,-89,0.38695652173913,40,0.173913043478261,132,-0.64390243902439,
16771254,3281.25,9632,-5.90557939914163,-14224,-8.72103004291846,-5104,3.12936848559166,1019,5.73170731707317,-94,-62.1341463414634,433,-26.4024390243902,-86,0.373913043478261,37,0.160869565217391,133,-0.648780487804878,
16771894,3300.78125,12352,-7.57326793378295,-13104,-8.0343347639485,-8064,4.94420600858369,1849,17.0121951219512,-279,-112.743902439024,713,-43.4756097560976,-82,0.356521739130435,34,0.147826086956522,134,-0.653658536585366,
16772534,3320.3125,15328,-9.3979153893317,-14080,-8.63274064990803,-11040,6.76885346413243,2891,35.6707317073171,-585,-176.280487804878,975,-59.4512195121951,-81,0.352173913043478,37,0.160869565217391,133,-0.648780487804878,
16773174,3339.84375,15872,-9.73145309625996,-15840,-9.71183323114654,-12560,7.70079705702023,3740,56.5243902439024,-927,-228.048780487805,1075,-65.5487804878049,-71,0.308695652173913,38,0.165217391304348,133,-0.648780487804878,
16773814,3359.375,14912,-9.14285714285714,-17360,-10.6437768240343,-13392,8.21091354996934,3699,71.280487804878,-1169,-225.548780487805,894,-54.5121951219512,-64,0.278260869565217,33,0.143478260869565,135,-0.658536585365854,
16774454,3378.90625,13552,-8.30901287553648,-19280,-11.82096873084,-13440,8.24034334763948,3166,89.2682926829268,-1464,-193.048780487805,462,-28.1707317073171,-59,0.256521739130435,31,0.134782608695652,136,-0.663414634146342,
16775094,3398.4375,12192,-7.47516860821582,-22352,-13.704475781729,-13984,8.57388105456775,2738,105,-1722,-166.951219512195,-224,13.6585365853659,-55,0.239130434782609,32,0.139130434782609,135,-0.658536585365854,
16775734,3417.96875,8320,-5.10116492949111,-23472,-14.391171060699,-15328,9.3979153893317,2443,130.30487804878,-2137,-148.963414634146,-733,44.6951219512195,-53,0.230434782608696,34,0.147826086956522,137,-0.668292682926829,
16776374,3437.5,4016,-2.46229307173513,-23424,-14.3617412630288,-16640,10.2023298589822,1677,151.341463414634,-2482,-102.256097560976,-1022,62.3170731707317,-54,0.234782608695652,24,0.104347826086957,140,-0.682926829268293,
16777014,3457.03125,2800,-1.71673819742489,-23168,-14.2047823421214,-16880,10.3494788473329,583,169.390243902439,-2778,-35.5487804878049,-1215,74.0853658536585,-53,0.230434782608696,21,0.091304347826087,145,-0.707317073170732,
438,3476.5625,5136,-3.14898835070509,-23248,-14.253832004905,-15600,9.56468424279583,-289,182.378048780488,-2991,17.6219512195122,-1467,89.4512195121951,-54,0.234782608695652,24,0.104347826086957,145,-0.707317073170732,
1078,3496.09375,8336,-5.11097486204782,-23744,-14.5579399141631,-13776,8.44635193133047,-588,192.012195121951,-3149,35.8536585365854,-1709,104.207317073171,-55,0.239130434782609,16,0.0695652173913043,149,-0.726829268292683,
1718,3515.625,11136,-6.82771305947272,-23584,-14.459840588596,-12720,7.79889638258737,-435,197.378048780488,-3237,26.5243902439024,-1966,119.878048780488,-58,0.252173913043478,11,0.0478260869565217,156,-0.760975609756098,
2358,3535.15625,12272,-7.52421827099939,-23120,-14.1753525444513,-12016,7.36725935009197,65,201.524390243902,-3305,-3.96341463414634,-2108,128.536585365854,-60,0.260869565217391,11,0.0478260869565217,156,-0.760975609756098,
2998,3554.6875,11664,-7.15144083384427,-22544,-13.8221949724096,-11616,7.12201103617413,518,202.682926829268,-3324,-31.5853658536585,-2166,132.073170731707,-62,0.269565217391304,4,0.0173913043478261,159,-0.775609756097561,
3638,3574.21875,10080,-6.18025751072961,-21696,-13.3022685469037,-10960,6.71980380134887,737,202.378048780488,-3319,-44.9390243902439,-2172,132.439024390244,-61,0.265217391304348,0,0,164,-0.8,
4278,3593.75,8624,-5.28755364806867,-20208,-12.3899448191294,-9920,6.08215818516248,811,200.487804878049,-3288,-49.4512195121951,-2214,135,-62,0.269565217391304,-9,-0.0391304347826087,167,-0.814634146341463,
4918,3613.28125,7424,-4.55180870631514,-18752,-11.4972409564684,-8704,5.33660331085224,869,194.634146341463,-3192,-52.9878048780488,-2151,131.158536585366,-59,0.256521739130435,-15,-0.0652173913043478,169,-0.824390243902439,
5558,3632.8125,6720,-4.12017167381974,-17008,-10.4279583077866,-7968,4.88534641324341,976,187.743902439024,-3079,-59.5121951219512,-2107,128.475609756098,-58,0.252173913043478,-20,-0.0869565217391304,169,-0.824390243902439,
6198,3652.34375,5520,-3.38442673206622,-15152,-9.29000613120785,-6880,4.21827099938688,1026,182.012195121951,-2985,-62.5609756097561,-2052,125.121951219512,-56,0.243478260869565,-25,-0.108695652173913,168,-0.819512195121951,
6838,3671.875,4272,-2.61925199264255,-13232,-8.11281422440221,-6208,3.8062538320049,938,172.560975609756,-2830,-57.1951219512195,-2017,122.987804878049,-55,0.239130434782609,-30,-0.130434782608696,169,-0.824390243902439,
7478,3691.40625,3392,-2.0797057020233,-10816,-6.63151440833844,-6320,3.8749233599019,896,161.585365853659,-2650,-54.6341463414634,-1932,117.80487804878,-53,0.230434782608696,-33,-0.143478260869565,171,-0.834146341463415,
8118,3710.9375,2416,-1.48129981606376,-9136,-5.60147148988351,-6368,3.90435315757204,895,152.073170731707,-2494,-54.5731707317073,-1772,108.048780487805,-47,0.204347826086957,-42,-0.182608695652174,171,-0.834146341463415,
8758,3730.46875,1600,-0.980993255671367,-7248,-4.44389944819129,-6096,3.73758430410791,783,141.524390243902,-2321,-47.7439024390244,-1645,100.30487804878,-46,0.2,-43,-0.18695652173913,169,-0.824390243902439,
9398,3750,1280,-0.784794604537094,-5392,-3.30594727161251,-5584,3.42366646229307,626,128.780487804878,-2112,-38.1707317073171,-1517,92.5,-42,0.182608695652174,-48,-0.208695652173913,168,-0.819512195121951,
10038,3769.53125,1520,-0.931943592887799,-3712,-2.27590435315757,-5376,3.29613733905579,640,115.30487804878,-1891,-39.0243902439024,-1382,84.2682926829268,-43,0.18695652173913,-52,-0.226086956521739,169,-0.824390243902439,
10678,3789.0625,1104,-0.676885346413243,-2288,-1.40282035561006,-5360,3.28632740649908,840,102.134146341463,-1675,-51.219512195122,-1177,71.7682926829268,-39,0.169565217391304,-55,-0.239130434782609,165,-0.804878048780488,
11318,3808.59375,208,-0.127529123237278,-944,-0.578786020846107,-5536,3.39423666462293,934,88.4756097560976,-1451,-56.9512195121951,-975,59.4512195121951,-37,0.160869565217391,-57,-0.247826086956522,165,-0.804878048780488,
11958,3828.125,-592,0.362967504598406,80,0.0490496627835684,-5504,3.3746167995095,857,75.5487804878049,-1239,-52.2560975609756,-789,48.109756097561,-35,0.152173913043478,-56,-0.243478260869565,163,-0.795121951219512,
12598,3847.65625,-1280,0.784794604537094,912,0.559166155732679,-5552,3.40404659717964,638,63.2317073170732,-1037,-38.9024390243902,-627,38.2317073170732,-33,0.143478260869565,-57,-0.247826086956522,162,-0.790243902439024,
13238,3867.1875,-1264,0.77498467198038,1536,0.941753525444513,-5792,3.55119558553035,323,51.0365853658537,-837,-19.6951219512195,-511,31.1585365853659,-31,0.134782608695652,-58,-0.252173913043478,160,-0.780487804878049,
13878,3886.71875,-304,0.18638871857756,2144,1.31453096259963,-5696,3.49233599019007,121,39.1463414634146,-642,-7.37804878048781,-440,26.8292682926829,-31,0.134782608695652,-56,-0.243478260869565,159,-0.775609756097561,
14518,3906.25,304,-0.18638871857756,2992,1.83445738810546,-5648,3.46290619251993,129,25.1829268292683,-413,-7.86585365853659,-369,22.5,-30,0.130434782608696,-66,-0.28695652173913,161,-0.785365853658537,
15158,3925.78125,256,-0.156958920907419,3888,2.38381361128142,-6048,3.70815450643777,205,10.9756097560976,-180,-12.5,-310,18.9024390243902,-28,0.121739130434783,-62,-0.269565217391304,162,-0.790243902439024,
15798,3945.3125,416,-0.255058246474555,4432,2.71735131820969,-7024,4.3065603923973,162,-1.15853658536585,19,-9.87804878048781,-256,15.609756097561,-30,0.130434782608696,-62,-0.269565217391304,159,-0.775609756097561,
16438,3964.84375,1056,-0.647455548743102,4272,2.61925199264255,-8272,5.07173513182097,180,-10.2439024390244,168,-10.9756097560976,-202,12.3170731707317,-29,0.126086956521739,-58,-0.252173913043478,158,-0.770731707317073,
17078,3984.375,1568,-0.96137339055794,3632,2.226854690374,-10016,6.14101778050276,327,-18.2317073170732,299,-19.9390243902439,-133,8.10975609756098,-26,0.11304347826087,-56,-0.243478260869565,158,-0.770731707317073,
17718,4003.90625,1152,-0.706315144083384,3248,1.99141630901288,-11792,7.22992029429798,551,-22.7439024390244,373,-33.5975609756098,-83,5.0609756097561,-25,0.108695652173913,-59,-0.256521739130435,158,-0.770731707317073,
18358,4023.4375,288,-0.176578786020846,3136,1.92274678111588,-13552,8.30901287553648,611,-25.7317073170732,422,-37.2560975609756,-58,3.53658536585366,-24,0.104347826086957,-58,-0.252173913043478,159,-0.775609756097561,
18998,4042.96875,-384,0.235438381361128,3120,1.91293684855917,-15248,9.34886572654813,499,-26.219512195122,430,-30.4268292682927,-41,2.5,-24,0.104347826086957,-59,-0.256521739130435,160,-0.780487804878049,
19638,4062.5,-880,0.539546290619252,3056,1.87369711833231,-16560,10.1532801961987,264,-23.9634146341463,393,-16.0975609756098,-6,0.365853658536585,-24,0.104347826086957,-54,-0.234782608695652,156,-0.760975609756098,
20278,4082.03125,-400,0.245248313917842,2976,1.82464745554874,-17232,10.5652973635806,-63,-21.4024390243902,351,3.84146341463415,-2,0.121951219512195,-24,0.104347826086957,-52,-0.226086956521739,157,-0.765853658536585,
20918,4101.5625,928,-0.568976088289393,2832,1.73635806253832,-17600,10.790925812385,-199,-19.0853658536585,313,12.1341463414634,-4,0.24390243902439,-23,0.1,-56,-0.243478260869565,158,-0.770731707317073,
21558,4121.09375,1584,-0.971183323114654,2448,1.50091968117719,-17984,11.0263641937462,-59,-15.9146341463415,261,3.59756097560976,44,-2.68292682926829,-26,0.11304347826087,-52,-0.226086956521739,158,-0.770731707317073,
22198,4140.625,1984,-1.2164316370325,2320,1.42244022072348,-18352,11.2519926425506,96,-13.0487804878049,214,-5.85365853658537,79,-4.81707317073171,-24,0.104347826086957,-52,-0.226086956521739,158,-0.770731707317073,
22838,4160.15625,2272,-1.39301042305334,2064,1.26548129981606,-18512,11.3500919681177,159,-9.81707317073171,161,-9.69512195121951,90,-5.48780487804878,-25,0.108695652173913,-50,-0.217391304347826,158,-0.770731707317073,
23478,4179.6875,2320,-1.42244022072348,2112,1.2949110974862,-18736,11.4874310239117,199,-6.64634146341464,109,-12.1341463414634,82,-5,-25,0.108695652173913,-51,-0.221739130434783,156,-0.760975609756098,
24118,4199.21875,2224,-1.3635806253832,2176,1.33415082771306,-18704,11.4678111587983,195,-3.71951219512195,61,-11.890243902439,58,-3.53658536585366,-24,0.104347826086957,-52,-0.226086956521739,159,-0.775609756097561,
24758,4218.75,2080,-1.27529123237278,2384,1.46167995095034,-18496,11.340282035561,166,-1.46341463414634,24,-10.1219512195122,23,-1.40243902439024,-23,0.1,-51,-0.221739130434783,158,-0.770731707317073,
25398,4238.28125,2096,-1.28510116492949,2464,1.51072961373391,-18032,11.0557939914163,140,1.15853658536585,-19,-8.53658536585366,4,-0.24390243902439,-22,0.0956521739130435,-55,-0.239130434782609,159,-0.775609756097561,
26038,4257.8125,1904,-1.16738197424893,2576,1.5793991416309,-17632,10.8105456774985,168,3.41463414634146,-56,-10.2439024390244,5,-0.304878048780488,-22,0.0956521739130435,-51,-0.221739130434783,158,-0.770731707317073,
26678,4277.34375,1712,-1.04966278356836,2544,1.55977927651747,-17216,10.5554874310239,138,6.03658536585366,-99,-8.41463414634146,6,-0.365853658536585,-24,0.104347826086957,-50,-0.217391304347826,156,-0.760975609756098,
27318,4296.875,1792,-1.09871244635193,2544,1.55977927651747,-16928,10.3789086450031,72,7.6219512195122,-125,-4.39024390243902,-9,0.548780487804878,-21,0.091304347826087,-53,-0.230434782608696,157,-0.765853658536585,
27958,4316.40625,1792,-1.09871244635193,2448,1.50091968117719,-16432,10.0748007357449,10,8.78048780487805,-144,-0.609756097560976,-23,1.40243902439024,-21,0.091304347826087,-55,-0.239130434782609,158,-0.770731707317073,
28598,4335.9375,1968,-1.20662170447578,2448,1.50091968117719,-16048,9.83936235438381,-67,9.75609756097561,-160,4.08536585365854,-52,3.17073170731707,-22,0.0956521739130435,-55,-0.239130434782609,159,-0.775609756097561,
29238,4355.46875,2064,-1.26548129981606,2448,1.50091968117719,-15696,9.62354383813611,-112,9.75609756097561,-160,6.82926829268293,-77,4.69512195121951,-23,0.1,-52,-0.226086956521739,157,-0.765853658536585,
29878,4375,1968,-1.20662170447578,2528,1.54996934396076,-15296,9.37829552421827,-99,9.81707317073171,-161,6.03658536585366,-93,5.67073170731707,-25,0.108695652173913,-55,-0.239130434782609,156,-0.760975609756098,
30518,4394.53125,2112,-1.2949110974862,2704,1.65787860208461,-15088,9.25076640098099,-139,9.51219512195122,-156,8.47560975609756,-102,6.21951219512195,-23,0.1,-52,-0.226086956521739,156,-0.760975609756098,
31158,4414.0625,2304,-1.41263028816677,3008,1.84426732066217,-15248,9.34886572654813,-134,7.92682926829268,-130,8.17073170731707,-111,6.76829268292683,-23,0.1,-52,-0.226086956521739,157,-0.765853658536585,
31798,4433.59375,2448,-1.50091968117719,3056,1.87369711833231,-15216,9.3292458614347,-62,6.82926829268293,-112,3.78048780487805,-120,7.31707317073171,-23,0.1,-53,-0.230434782608696,157,-0.765853658536585,
32438,4453.125,2320,-1.42244022072348,3088,1.89331698344574,-15264,9.35867565910484,52,5.73170731707317,-94,-3.17073170731707,-112,6.82926829268293,-21,0.091304347826087,-57,-0.247826086956522,158,-0.770731707317073,
33078,4472.65625,1760,-1.0790925812385,3104,1.90312691600245,-15248,9.34886572654813,115,5.0609756097561,-83,-7.01219512195122,-109,6.64634146341464,-22,0.0956521739130435,-52,-0.226086956521739,158,-0.770731707317073,
33718,4492.1875,1328,-0.814224402207235,3120,1.91293684855917,-15248,9.34886572654813,73,3.90243902439024,-64,-4.45121951219512,-104,6.34146341463415,-23,0.1,-54,-0.234782608695652,157,-0.765853658536585,
34358,4511.71875,1280,-0.784794604537094,2928,1.7952176578786,-15264,9.35867565910484,26,2.98780487804878,-49,-1.58536585365854,-82,5,-21,0.091304347826087,-56,-0.243478260869565,159,-0.775609756097561,
34998,4531.25,1552,-0.951563458001226,2880,1.76578786020846,-15264,9.35867565910484,9,2.07317073170732,-34,-0.548780487804878,-67,4.08536585365854,-21,0.091304347826087,-56,-0.243478260869565,159,-0.775609756097561,
35638,4550.78125,1568,-0.96137339055794,2768,1.69711833231147,-15344,9.40772532188841,56,1.76829268292683,-29,-3.41463414634146,-50,3.04878048780488,-22,0.0956521739130435,-54,-0.234782608695652,156,-0.760975609756098,
36278,4570.3125,1312,-0.804414469650521,2912,1.78540772532189,-15376,9.42734518700184,57,0.975609756097561,-16,-3.47560975609756,-49,2.98780487804878,-21,0.091304347826087,-52,-0.226086956521739,157,-0.765853658536585,
36918,4589.84375,1392,-0.853464132434089,2816,1.72654812998161,-15456,9.47639484978541,58,-0.609756097560976,10,-3.53658536585366,-31,1.89024390243902,-20,0.0869565217391304,-54,-0.234782608695652,158,-0.770731707317073,
37558,4609.375,1360,-0.833844267320662,2784,1.70692826486818,-15504,9.50582464745555,113,-0.304878048780488,5,-6.89024390243902,-29,1.76829268292683,-23,0.1,-51,-0.221739130434783,156,-0.760975609756098,
38198,4628.90625,1152,-0.706315144083384,2848,1.74616799509503,-15616,9.57449417535254,111,-0.487804878048781,8,-6.76829268292683,-16,0.975609756097561,-21,0.091304347826087,-52,-0.226086956521739,157,-0.765853658536585,
38838,4648.4375,1360,-0.833844267320662,2800,1.71673819742489,-15456,9.47639484978541,107,-2.19512195121951,36,-6.52439024390244,12,-0.731707317073171,-21,0.091304347826087,-54,-0.234782608695652,157,-0.765853658536585,
39478,4667.96875,1488,-0.912323727774372,2704,1.65787860208461,-15616,9.57449417535254,204,-2.86585365853659,47,-12.4390243902439,46,-2.80487804878049,-20,0.0869565217391304,-51,-0.221739130434783,155,-0.75609756097561,
40118,4687.5,1552,-0.951563458001226,2624,1.60882893930104,-15968,9.79031269160024,256,-3.84146341463415,63,-15.609756097561,53,-3.23170731707317,-20,0.0869565217391304,-49,-0.21304347826087,156,-0.760975609756098,
40758,4707.03125,1648,-1.01042305334151,2608,1.59901900674433,-16128,9.88841201716738,256,-2.25609756097561,37,-15.609756097561,25,-1.52439024390244,-19,0.0826086956521739,-54,-0.234782608695652,155,-0.75609756097561,
41398,4726.5625,1488,-0.912323727774372,2752,1.68730839975475,-15968,9.79031269160024,276,-3.17073170731707,52,-16.8292682926829,44,-2.68292682926829,-20,0.0869565217391304,-55,-0.239130434782609,156,-0.760975609756098,
42038,4746.09375,992,-0.608215818516248,2640,1.61863887185776,-16192,9.92765174739424,264,-3.04878048780488,50,-16.0975609756098,54,-3.29268292682927,-20,0.0869565217391304,-50,-0.217391304347826,154,-0.751219512195122,
42678,4765.625,848,-0.519926425505825,2608,1.59901900674433,-16400,10.0551808706315,128,-1.76829268292683,29,-7.80487804878049,41,-2.5,-18,0.0782608695652174,-55,-0.239130434782609,155,-0.75609756097561,
43318,4785.15625,1392,-0.853464132434089,2576,1.5793991416309,-16368,10.0355610055181,52,-0.0609756097560976,1,-3.17073170731707,20,-1.21951219512195,-21,0.091304347826087,-49,-0.21304347826087,153,-0.746341463414634,
43958,4804.6875,1456,-0.892703862660944,2608,1.59901900674433,-16240,9.95708154506438,99,0.548780487804878,-9,-6.03658536585366,14,-0.853658536585366,-18,0.0782608695652174,-49,-0.21304347826087,155,-0.75609756097561,
44598,4824.21875,1264,-0.77498467198038,2688,1.6480686695279,-15968,9.79031269160024,104,0.487804878048781,-8,-6.34146341463415,5,-0.304878048780488,-20,0.0869565217391304,-50,-0.217391304347826,155,-0.75609756097561,
45238,4843.75,1024,-0.627835683629675,2592,1.58920907418761,-15952,9.78050275904353,128,0.975609756097561,-16,-7.80487804878049,11,-0.670731707317073,-19,0.0826086956521739,-55,-0.239130434782609,156,-0.760975609756098,
45878,4863.28125,816,-0.500306560392397,2608,1.59901900674433,-15968,9.79031269160024,101,2.13414634146341,-35,-6.15853658536585,17,-1.03658536585366,-17,0.0739130434782609,-54,-0.234782608695652,155,-0.75609756097561,
46518,4882.8125,1024,-0.627835683629675,2560,1.56958920907419,-15968,9.79031269160024,15,1.89024390243902,-31,-0.914634146341463,17,-1.03658536585366,-19,0.0826086956521739,-50,-0.217391304347826,154,-0.751219512195122,
47158,4902.34375,1200,-0.735744941753525,2592,1.58920907418761,-15872,9.73145309625996,15,1.89024390243902,-31,-0.914634146341463,7,-0.426829268292683,-17,0.0739130434782609,-51,-0.221739130434783,153,-0.746341463414634,
47798,4921.875,1296,-0.794604537093807,2528,1.54996934396076,-15856,9.72164316370325,15,1.28048780487805,-21,-0.914634146341463,0,0,-16,0.0695652173913043,-54,-0.234782608695652,155,-0.75609756097561,
48438,4941.40625,1184,-0.725935009196812,2592,1.58920907418761,-15840,9.71183323114654,6,1.46341463414634,-24,-0.365853658536585,-5,0.304878048780488,-19,0.0826086956521739,-49,-0.21304347826087,152,-0.741463414634146,
49078,4960.9375,1200,-0.735744941753525,2528,1.54996934396076,-15984,9.80012262415696,1,1.34146341463415,-22,-0.0609756097560976,0,0,-16,0.0695652173913043,-52,-0.226086956521739,155,-0.75609756097561,
49718,4980.46875,1232,-0.755364806866953,2560,1.56958920907419,-15968,9.79031269160024,1,1.40243902439024,-23,-0.0609756097560976,-8,0.487804878048781,-16,0.0695652173913043,-53,-0.230434782608696,154,-0.751219512195122,
50358,5000,1328,-0.814224402207235,2656,1.62844880441447,-15952,9.78050275904353,13,0.792682926829268,-13,-0.792682926829268,-8,0.487804878048781,-19,0.0826086956521739,-50,-0.217391304347826,153,-0.746341463414634,
50998,5019.53125,1344,-0.824034334763949,2768,1.69711833231147,-15968,9.79031269160024,41,0,0,-2.5,-12,0.731707317073171,-18,0.0782608695652174,-54,-0.234782608695652,155,-0.75609756097561,
51638,5039.0625,1424,-0.873083997547517,2560,1.56958920907419,-15952,9.78050275904353,59,-1.15853658536585,19,-3.59756097560976,-27,1.64634146341463,-17,0.0739130434782609,-55,-0.239130434782609,153,-0.746341463414634,
52278,5058.59375,1200,-0.735744941753525,2448,1.50091968117719,-16208,9.93746167995095,130,-1.21951219512195,20,-7.92682926829268,-15,0.914634146341463,-18,0.0782608695652174,-53,-0.230434782608696,154,-0.751219512195122,
52918,5078.125,1024,-0.627835683629675,2256,1.38320049049663,-16240,9.95708154506438,142,0,0,-8.65853658536586,-27,1.64634146341463,-17,0.0739130434782609,-49,-0.21304347826087,155,-0.75609756097561,
53558,5097.65625,704,-0.431637032495402,2256,1.38320049049663,-16208,9.93746167995095,123,0.426829268292683,-7,-7.5,-42,2.5609756097561,-17,0.0739130434782609,-49,-0.21304347826087,155,-0.75609756097561,
54198,5117.1875,432,-0.264868179031269,2320,1.42244022072348,-16192,9.92765174739424,48,0.609756097560976,-10,-2.92682926829268,-45,2.74390243902439,-15,0.0652173913043478,-54,-0.234782608695652,155,-0.75609756097561,
54838,5136.71875,576,-0.353157572041692,2432,1.49110974862048,-16064,9.84917228694053,-55,1.40243902439024,-23,3.35365853658537,-38,2.31707317073171,-19,0.0826086956521739,-46,-0.2,152,-0.741463414634146,
55478,5156.25,800,-0.490496627835684,2464,1.51072961373391,-16016,9.81974248927039,-76,1.58536585365854,-26,4.63414634146342,-36,2.19512195121951,-18,0.0782608695652174,-47,-0.204347826086957,153,-0.746341463414634,
56118,5175.78125,736,-0.451256897608829,2464,1.51072961373391,-16000,9.80993255671367,-44,1.40243902439024,-23,2.68292682926829,-22,1.34146341463415,-19,0.0826086956521739,-49,-0.21304347826087,153,-0.746341463414634,
56758,5195.3125,784,-0.48068669527897,2384,1.46167995095034,-16032,9.8295524218271,-26,1.28048780487805,-21,1.58536585365854,-12,0.731707317073171,-17,0.0739130434782609,-53,-0.230434782608696,155,-0.75609756097561,
57398,5214.84375,720,-0.441446965052115,2272,1.39301042305334,-15984,9.80012262415696,-17,0.609756097560976,-10,1.03658536585366,-5,0.304878048780488,-16,0.0695652173913043,-53,-0.230434782608696,155,-0.75609756097561,
58038,5234.375,816,-0.500306560392397,2304,1.41263028816677,-16096,9.86879215205395,-24,0.975609756097561,-16,1.46341463414634,-7,0.426829268292683,-19,0.0826086956521739,-48,-0.208695652173913,153,-0.746341463414634,
58678,5253.90625,800,-0.490496627835684,2256,1.38320049049663,-16080,9.85898221949724,-37,1.52439024390244,-25,2.25609756097561,-2,0.121951219512195,-16,0.0695652173913043,-50,-0.217391304347826,153,-0.746341463414634,
59318,5273.4375,800,-0.490496627835684,2208,1.35377069282649,-16096,9.86879215205395,-47,1.64634146341463,-27,2.86585365853659,10,-0.609756097560976,-16,0.0695652173913043,-52,-0.226086956521739,156,-0.760975609756098,
59958,5292.96875,960,-0.58859595340282,2240,1.37339055793991,-16208,9.93746167995095,-69,1.70731707317073,-28,4.20731707317073,9,-0.548780487804878,-17,0.0739130434782609,-52,-0.226086956521739,155,-0.75609756097561,
60598,5312.5,928,-0.568976088289393,2320,1.42244022072348,-16112,9.87860208461067,-96,1.95121951219512,-32,5.85365853658537,-1,0.0609756097560976,-17,0.0739130434782609,-51,-0.221739130434783,153,-0.746341463414634,
61238,5332.03125,1072,-0.657265481299816,2256,1.38320049049663,-15984,9.80012262415696,-124,1.64634146341463,-27,7.5609756097561,0,0,-20,0.0869565217391304,-47,-0.204347826086957,154,-0.751219512195122,
61878,5351.5625,1312,-0.804414469650521,2144,1.31453096259963,-16032,9.8295524218271,-110,2.19512195121951,-36,6.70731707317073,8,-0.487804878048781,-17,0.0739130434782609,-53,-0.230434782608696,156,-0.760975609756098,
62518,5371.09375,1264,-0.77498467198038,2128,1.30472103004292,-16144,9.89822194972409,-47,2.5,-41,2.86585365853659,7,-0.426829268292683,-18,0.0782608695652174,-49,-0.21304347826087,156,-0.760975609756098,
63158,5390.625,1152,-0.706315144083384,2176,1.33415082771306,-16064,9.84917228694053,-30,2.74390243902439,-45,1.82926829268293,-2,0.121951219512195,-17,0.0739130434782609,-53,-0.230434782608696,155,-0.75609756097561,
63798,5410.15625,1200,-0.735744941753525,2160,1.32434089515635,-15920,9.7608828939301,-39,2.25609756097561,-37,2.37804878048781,-5,0.304878048780488,-17,0.0739130434782609,-54,-0.234782608695652,155,-0.75609756097561,
64438,5429.6875,1232,-0.755364806866953,2096,1.28510116492949,-16016,9.81974248927039,-63,2.37804878048781,-39,3.84146341463415,-18,1.09756097560976,-18,0.0782608695652174,-49,-0.21304347826087,154,-0.751219512195122,
65078,5449.21875,1200,-0.735744941753525,2096,1.28510116492949,-16016,9.81974248927039,-69,3.29268292682927,-54,4.20731707317073,-24,1.46341463414634,-18,0.0782608695652174,-47,-0.204347826086957,154,-0.751219512195122,
65718,5468.75,1440,-0.88289393010423,2176,1.33415082771306,-15984,9.80012262415696,-93,4.32926829268293,-71,5.67073170731707,-42,2.5609756097561,-20,0.0869565217391304,-47,-0.204347826086957,154,-0.751219512195122,
66358,5488.28125,1296,-0.794604537093807,2240,1.37339055793991,-16048,9.83936235438381,-54,4.57317073170732,-75,3.29268292682927,-42,2.5609756097561,-18,0.0782608695652174,-53,-0.230434782608696,156,-0.760975609756098,
66998,5507.8125,976,-0.598405885959534,2400,1.47148988350705,-15856,9.72164316370325,-37,2.19512195121951,-36,2.25609756097561,-6,0.365853658536585,-19,0.0826086956521739,-52,-0.226086956521739,155,-0.75609756097561,
67638,5527.34375,880,-0.539546290619252,2240,1.37339055793991,-15792,9.6824034334764,-58,2.68292682926829,-44,3.53658536585366,10,-0.609756097560976,-18,0.0782608695652174,-50,-0.217391304347826,155,-0.75609756097561,
68278,5546.875,768,-0.470876762722256,2320,1.42244022072348,-16016,9.81974248927039,-194,2.6219512195122,-43,11.8292682926829,-10,0.609756097560976,-18,0.0782608695652174,-47,-0.204347826086957,153,-0.746341463414634,
68918,5566.40625,1248,-0.765174739423666,2320,1.42244022072348,-16016,9.81974248927039,-222,2.6219512195122,-43,13.5365853658537,-8,0.487804878048781,-20,0.0869565217391304,-53,-0.230434782608696,155,-0.75609756097561,
69558,5585.9375,1776,-1.08890251379522,2208,1.35377069282649,-16080,9.85898221949724,-111,3.10975609756098,-51,6.76829268292683,-3,0.182926829268293,-19,0.0826086956521739,-51,-0.221739130434783,157,-0.765853658536585,
70198,5605.46875,1904,-1.16738197424893,2208,1.35377069282649,-16000,9.80993255671367,-3,3.29268292682927,-54,0.182926829268293,3,-0.182926829268293,-18,0.0782608695652174,-51,-0.221739130434783,155,-0.75609756097561,
70838,5625,1632,-1.00061312078479,2272,1.39301042305334,-16192,9.92765174739424,16,3.17073170731707,-52,-0.975609756097561,-2,0.121951219512195,-21,0.091304347826087,-49,-0.21304347826087,155,-0.75609756097561,
71478,5644.53125,1264,-0.77498467198038,2320,1.42244022072348,-16288,9.98651134273452,-16,3.47560975609756,-57,0.975609756097561,9,-0.548780487804878,-21,0.091304347826087,-52,-0.226086956521739,155,-0.75609756097561,
72118,5664.0625,1312,-0.804414469650521,2320,1.42244022072348,-16224,9.94727161250766,-25,3.35365853658537,-55,1.52439024390244,4,-0.24390243902439,-19,0.0826086956521739,-52,-0.226086956521739,157,-0.765853658536585,
72758,5683.59375,1408,-0.863274064990803,2320,1.42244022072348,-16160,9.90803188228081,-2,4.02439024390244,-66,0.121951219512195,3,-0.182926829268293,-20,0.0869565217391304,-50,-0.217391304347826,154,-0.751219512195122,
73398,5703.125,1552,-0.951563458001226,2336,1.4322501532802,-16096,9.86879215205395,51,3.90243902439024,-64,-3.10975609756098,8,-0.487804878048781,-20,0.0869565217391304,-48,-0.208695652173913,156,-0.760975609756098,
74038,5722.65625,1376,-0.843654199877376,2304,1.41263028816677,-16096,9.86879215205395,63,3.90243902439024,-64,-3.84146341463415,10,-0.609756097560976,-18,0.0782608695652174,-53,-0.230434782608696,156,-0.760975609756098,
74678,5742.1875,1280,-0.784794604537094,2304,1.41263028816677,-16160,9.90803188228081,34,4.32926829268293,-71,-2.07317073170732,6,-0.365853658536585,-19,0.0826086956521739,-50,-0.217391304347826,155,-0.75609756097561,
75318,5761.71875,1200,-0.735744941753525,2272,1.39301042305334,-16016,9.81974248927039,5,4.63414634146342,-76,-0.304878048780488,5,-0.304878048780488,-20,0.0869565217391304,-50,-0.217391304347826,156,-0.760975609756098,
75958,5781.25,1392,-0.853464132434089,2320,1.42244022072348,-15952,9.78050275904353,5,4.63414634146342,-76,-0.304878048780488,4,-0.24390243902439,-23,0.1,-51,-0.221739130434783,155,-0.75609756097561,
76598,5800.78125,1504,-0.922133660331085,2320,1.42244022072348,-15984,9.80012262415696,12,4.69512195121951,-77,-0.731707317073171,3,-0.182926829268293,-18,0.0782608695652174,-55,-0.239130434782609,157,-0.765853658536585,
77238,5820.3125,1440,-0.88289393010423,2400,1.47148988350705,-15888,9.74126302881668,11,4.14634146341463,-68,-0.670731707317073,-4,0.24390243902439,-20,0.0869565217391304,-48,-0.208695652173913,155,-0.75609756097561,
77878,5839.84375,1456,-0.892703862660944,2384,1.46167995095034,-15728,9.64316370324954,-2,4.08536585365854,-67,0.121951219512195,-12,0.731707317073171,-19,0.0826086956521739,-50,-0.217391304347826,155,-0.75609756097561,
78518,5859.375,1424,-0.873083997547517,2400,1.47148988350705,-15712,9.63335377069283,27,3.96341463414634,-65,-1.64634146341463,-8,0.487804878048781,-19,0.0826086956521739,-51,-0.221739130434783,155,-0.75609756097561,
79158,5878.90625,1408,-0.863274064990803,2304,1.41263028816677,-15632,9.58430410790926,62,4.39024390243902,-72,-3.78048780487805,-5,0.304878048780488,-20,0.0869565217391304,-53,-0.230434782608696,156,-0.760975609756098,
79798,5898.4375,1184,-0.725935009196812,2384,1.46167995095034,-15696,9.62354383813611,49,4.08536585365854,-67,-2.98780487804878,-5,0.304878048780488,-20,0.0869565217391304,-53,-0.230434782608696,158,-0.770731707317073,
80438,5917.96875,1120,-0.686695278969957,2416,1.48129981606376,-15728,9.64316370324954,8,3.71951219512195,-61,-0.487804878048781,-16,0.975609756097561,-18,0.0782608695652174,-51,-0.221739130434783,155,-0.75609756097561,
81078,5937.5,1360,-0.833844267320662,2400,1.47148988350705,-15808,9.69221336603311,-2,3.47560975609756,-57,0.121951219512195,-25,1.52439024390244,-20,0.0869565217391304,-53,-0.230434782608696,155,-0.75609756097561,
81718,5957.03125,1344,-0.824034334763949,2400,1.47148988350705,-15920,9.7608828939301,12,3.23170731707317,-53,-0.731707317073171,-24,1.46341463414634,-19,0.0826086956521739,-53,-0.230434782608696,157,-0.765853658536585,
82358,5976.5625,1264,-0.77498467198038,2400,1.47148988350705,-15872,9.73145309625996,23,3.04878048780488,-50,-1.40243902439024,-19,1.15853658536585,-19,0.0826086956521739,-49,-0.21304347826087,157,-0.765853658536585,
82998,5996.09375,1248,-0.765174739423666,2368,1.45187001839362,-15968,9.79031269160024,16,3.35365853658537,-55,-0.975609756097561,-18,1.09756097560976,-20,0.0869565217391304,-54,-0.234782608695652,155,-0.75609756097561,
83638,6015.625,1296,-0.794604537093807,2448,1.50091968117719,-15968,9.79031269160024,12,3.29268292682927,-54,-0.731707317073171,-16,0.975609756097561,-19,0.0826086956521739,-53,-0.230434782608696,156,-0.760975609756098,
84278,6035.15625,1152,-0.706315144083384,2480,1.52053954629062,-15952,9.78050275904353,20,3.29268292682927,-54,-1.21951219512195,-16,0.975609756097561,-20,0.0869565217391304,-48,-0.208695652173913,156,-0.760975609756098,
84918,6054.6875,1152,-0.706315144083384,2448,1.50091968117719,-15952,9.78050275904353,19,3.10975609756098,-51,-1.15853658536585,-18,1.09756097560976,-19,0.0826086956521739,-50,-0.217391304347826,157,-0.765853658536585,
85558,6074.21875,1104,-0.676885346413243,2416,1.48129981606376,-15920,9.7608828939301,17,3.35365853658537,-55,-1.03658536585366,-18,1.09756097560976,-19,0.0826086956521739,-50,-0.217391304347826,154,-0.751219512195122,
86198,6093.75,1088,-0.66707541385653,2384,1.46167995095034,-15952,9.78050275904353,17,3.17073170731707,-52,-1.03658536585366,-14,0.853658536585366,-18,0.0782608695652174,-54,-0.234782608695652,156,-0.760975609756098,
86838,6113.28125,1088,-0.66707541385653,2400,1.47148988350705,-16080,9.85898221949724,20,3.10975609756098,-51,-1.21951219512195,-8,0.487804878048781,-18,0.0782608695652174,-52,-0.226086956521739,155,-0.75609756097561,
87478,6132.8125,1104,-0.676885346413243,2336,1.4322501532802,-16064,9.84917228694053,2,3.71951219512195,-61,-0.121951219512195,-16,0.975609756097561,-21,0.091304347826087,-49,-0.21304347826087,154,-0.751219512195122,
88118,6152.34375,1120,-0.686695278969957,2352,1.44206008583691,-15936,9.77069282648682,-5,3.59756097560976,-59,0.304878048780488,-13,0.792682926829268,-18,0.0782608695652174,-54,-0.234782608695652,156,-0.760975609756098,
88758,6171.875,1120,-0.686695278969957,2288,1.40282035561006,-15952,9.78050275904353,-8,3.65853658536585,-60,0.487804878048781,-9,0.548780487804878,-19,0.0826086956521739,-49,-0.21304347826087,154,-0.751219512195122,
89398,6191.40625,1200,-0.735744941753525,2384,1.46167995095034,-15888,9.74126302881668,-12,3.35365853658537,-55,0.731707317073171,-11,0.670731707317073,-18,0.0782608695652174,-50,-0.217391304347826,155,-0.75609756097561,
90038,6210.9375,1248,-0.765174739423666,2256,1.38320049049663,-15872,9.73145309625996,3,3.23170731707317,-53,-0.182926829268293,-6,0.365853658536585,-18,0.0782608695652174,-51,-0.221739130434783,155,-0.75609756097561,
90678,6230.46875,1056,-0.647455548743102,2288,1.40282035561006,-15888,9.74126302881668,11,3.10975609756098,-51,-0.670731707317073,-6,0.365853658536585,-19,0.0826086956521739,-51,-0.221739130434783,156,-0.760975609756098,
91318,6250,1072,-0.657265481299816,2336,1.4322501532802,-15920,9.7608828939301,-2,2.80487804878049,-46,0.121951219512195,-6,0.365853658536585,-22,0.0956521739130435,-52,-0.226086956521739,154,-0.751219512195122,
91958,6269.53125,1168,-0.716125076640098,2352,1.44206008583691,-15920,9.7608828939301,-5,2.68292682926829,-44,0.304878048780488,-6,0.365853658536585,-18,0.0782608695652174,-53,-0.230434782608696,155,-0.75609756097561,
92598,6289.0625,1200,-0.735744941753525,2368,1.45187001839362,-15920,9.7608828939301,12,2.86585365853659,-47,-0.731707317073171,-11,0.670731707317073,-19,0.0826086956521739,-49,-0.21304347826087,154,-0.751219512195122,
93238,6308.59375,1184,-0.725935009196812,2368,1.45187001839362,-15888,9.74126302881668,-1,2.31707317073171,-38,0.0609756097560976,-11,0.670731707317073,-19,0.0826086956521739,-53,-0.230434782608696,156,-0.760975609756098,
93878,6328.125,1136,-0.696505211526671,2368,1.45187001839362,-15888,9.74126302881668,9,1.89024390243902,-31,-0.548780487804878,-6,0.365853658536585,-20,0.0869565217391304,-48,-0.208695652173913,155,-0.75609756097561,
94518,6347.65625,1232,-0.755364806866953,2352,1.44206008583691,-15936,9.77069282648682,21,1.82926829268293,-30,-1.28048780487805,-2,0.121951219512195,-19,0.0826086956521739,-53,-0.230434782608696,155,-0.75609756097561,
95158,6367.1875,1152,-0.706315144083384,2304,1.41263028816677,-15952,9.78050275904353,28,1.64634146341463,-27,-1.70731707317073,2,-0.121951219512195,-20,0.0869565217391304,-48,-0.208695652173913,155,-0.75609756097561,
95798,6386.71875,1200,-0.735744941753525,2384,1.46167995095034,-15984,9.80012262415696,16,1.82926829268293,-30,-0.975609756097561,6,-0.365853658536585,-19,0.0826086956521739,-48,-0.208695652173913,156,-0.760975609756098,
96438,6406.25,1200,-0.735744941753525,2400,1.47148988350705,-16096,9.86879215205395,1,2.01219512195122,-33,-0.0609756097560976,3,-0.182926829268293,-20,0.0869565217391304,-49,-0.21304347826087,155,-0.75609756097561,
97078,6425.78125,1296,-0.794604537093807,2368,1.45187001839362,-16016,9.81974248927039,-6,1.89024390243902,-31,0.365853658536585,5,-0.304878048780488,-19,0.0826086956521739,-54,-0.234782608695652,157,-0.765853658536585,
97718,6445.3125,1248,-0.765174739423666,2384,1.46167995095034,-16128,9.88841201716738,2,2.25609756097561,-37,-0.121951219512195,-2,0.121951219512195,-18,0.0782608695652174,-52,-0.226086956521739,155,-0.75609756097561,
98358,6464.84375,1280,-0.784794604537094,2384,1.46167995095034,-16080,9.85898221949724,3,2.07317073170732,-34,-0.182926829268293,-6,0.365853658536585,-17,0.0739130434782609,-50,-0.217391304347826,154,-0.751219512195122,
98998,6484.375,1280,-0.784794604537094,2368,1.45187001839362,-16080,9.85898221949724,0,2.19512195121951,-36,0,-7,0.426829268292683,-19,0.0826086956521739,-51,-0.221739130434783,154,-0.751219512195122,
99638,6503.90625,1200,-0.735744941753525,2400,1.47148988350705,-16016,9.81974248927039,7,2.5,-41,-0.426829268292683,-8,0.487804878048781,-17,0.0739130434782609,-54,-0.234782608695652,157,-0.765853658536585,
100278,6523.4375,1248,-0.765174739423666,2320,1.42244022072348,-16048,9.83936235438381,22,2.5609756097561,-42,-1.34146341463415,-8,0.487804878048781,-19,0.0826086956521739,-52,-0.226086956521739,157,-0.765853658536585,
100918,6542.96875,1264,-0.77498467198038,2272,1.39301042305334,-16080,9.85898221949724,30,2.5,-41,-1.82926829268293,-10,0.609756097560976,-20,0.0869565217391304,-47,-0.204347826086957,157,-0.765853658536585,
101558,6562.5,1216,-0.745554874310239,2256,1.38320049049663,-15968,9.79031269160024,26,2.74390243902439,-45,-1.58536585365854,-8,0.487804878048781,-21,0.091304347826087,-47,-0.204347826086957,154,-0.751219512195122,
102198,6582.03125,1120,-0.686695278969957,2320,1.42244022072348,-16000,9.80993255671367,15,2.92682926829268,-48,-0.914634146341463,-10,0.609756097560976,-19,0.0826086956521739,-53,-0.230434782608696,156,-0.760975609756098,
102838,6601.5625,1168,-0.716125076640098,2336,1.4322501532802,-16000,9.80993255671367,16,2.5609756097561,-42,-0.975609756097561,-14,0.853658536585366,-18,0.0782608695652174,-54,-0.234782608695652,155,-0.75609756097561,
103478,6621.09375,1248,-0.765174739423666,2352,1.44206008583691,-16000,9.80993255671367,32,2.5609756097561,-42,-1.95121951219512,-13,0.792682926829268,-17,0.0739130434782609,-54,-0.234782608695652,155,-0.75609756097561,
104118,6640.625,1056,-0.647455548743102,2400,1.47148988350705,-15984,9.80012262415696,20,3.17073170731707,-52,-1.21951219512195,-21,1.28048780487805,-18,0.0782608695652174,-51,-0.221739130434783,155,-0.75609756097561,
104758,6660.15625,1120,-0.686695278969957,2448,1.50091968117719,-15888,9.74126302881668,-3,2.86585365853659,-47,0.182926829268293,-24,1.46341463414634,-19,0.0826086956521739,-49,-0.21304347826087,156,-0.760975609756098,
105398,6679.6875,1200,-0.735744941753525,2368,1.45187001839362,-15776,9.67259350091968,16,2.68292682926829,-44,-0.975609756097561,-20,1.21951219512195,-18,0.0782608695652174,-48,-0.208695652173913,156,-0.760975609756098,
106038,6699.21875,1168,-0.716125076640098,2384,1.46167995095034,-15840,9.71183323114654,16,2.37804878048781,-39,-0.975609756097561,-24,1.46341463414634,-18,0.0782608695652174,-53,-0.230434782608696,155,-0.75609756097561,
106678,6718.75,1072,-0.657265481299816,2400,1.47148988350705,-15904,9.75107296137339,5,2.13414634146341,-35,-0.304878048780488,-19,1.15853658536585,-19,0.0826086956521739,-51,-0.221739130434783,154,-0.751219512195122,
107318,6738.28125,1008,-0.618025751072961,2336,1.4322501532802,-15856,9.72164316370325,5,1.95121951219512,-32,-0.304878048780488,-12,0.731707317073171,-18,0.0782608695652174,-50,-0.217391304347826,156,-0.760975609756098,
107958,6757.8125,1088,-0.66707541385653,2336,1.4322501532802,-15824,9.70202329858982,11,2.07317073170732,-34,-0.670731707317073,-7,0.426829268292683,-18,0.0782608695652174,-47,-0.204347826086957,155,-0.75609756097561,
108598,6777.34375,1088,-0.66707541385653,2352,1.44206008583691,-15824,9.70202329858982,16,2.01219512195122,-33,-0.975609756097561,-5,0.304878048780488,-18,0.0782608695652174,-52,-0.226086956521739,153,-0.746341463414634,
109238,6796.875,976,-0.598405885959534,2304,1.41263028816677,-15856,9.72164316370325,-2,1.82926829268293,-30,0.121951219512195,-8,0.487804878048781,-17,0.0739130434782609,-49,-0.21304347826087,154,-0.751219512195122,
109878,6816.40625,1072,-0.657265481299816,2272,1.39301042305334,-15824,9.70202329858982,-11,1.64634146341463,-27,0.670731707317073,-10,0.609756097560976,-19,0.0826086956521739,-48,-0.208695652173913,154,-0.751219512195122,
110518,6835.9375,1120,-0.686695278969957,2272,1.39301042305334,-15984,9.80012262415696,6,1.76829268292683,-29,-0.365853658536585,-4,0.24390243902439,-17,0.0739130434782609,-52,-0.226086956521739,155,-0.75609756097561,
111158,6855.46875,1168,-0.716125076640098,2352,1.44206008583691,-15904,9.75107296137339,14,1.70731707317073,-28,-0.853658536585366,-5,0.304878048780488,-18,0.0782608695652174,-53,-0.230434782608696,154,-0.751219512195122,
111798,6875,1056,-0.647455548743102,2240,1.37339055793991,-16080,9.85898221949724,20,2.01219512195122,-33,-1.21951219512195,-5,0.304878048780488,-16,0.0695652173913043,-50,-0.217391304347826,154,-0.751219512195122,
112438,6894.53125,1040,-0.637645616186389,2256,1.38320049049663,-16112,9.87860208461067,7,2.25609756097561,-37,-0.426829268292683,-4,0.24390243902439,-17,0.0739130434782609,-52,-0.226086956521739,156,-0.760975609756098,
113078,6914.0625,1056,-0.647455548743102,2192,1.34396076026977,-16080,9.85898221949724,-22,2.01219512195122,-33,1.34146341463415,-3,0.182926829268293,-18,0.0782608695652174,-54,-0.234782608695652,156,-0.760975609756098,
113718,6933.59375,1168,-0.716125076640098,2240,1.37339055793991,-16112,9.87860208461067,-16,2.4390243902439,-40,0.975609756097561,1,-0.0609756097560976,-19,0.0826086956521739,-52,-0.226086956521739,155,-0.75609756097561,
114358,6953.125,1216,-0.745554874310239,2208,1.35377069282649,-15984,9.80012262415696,1,2.6219512195122,-43,-0.0609756097560976,-2,0.121951219512195,-17,0.0739130434782609,-53,-0.230434782608696,154,-0.751219512195122,
114998,6972.65625,1184,-0.725935009196812,2192,1.34396076026977,-16048,9.83936235438381,3,2.68292682926829,-44,-0.182926829268293,-4,0.24390243902439,-17,0.0739130434782609,-53,-0.230434782608696,154,-0.751219512195122,
115638,6992.1875,1232,-0.755364806866953,2240,1.37339055793991,-16112,9.87860208461067,-3,2.98780487804878,-49,0.182926829268293,-5,0.304878048780488,-19,0.0826086956521739,-49,-0.21304347826087,155,-0.75609756097561,
116278,7011.71875,1200,-0.735744941753525,2304,1.41263028816677,-16128,9.88841201716738,6,2.98780487804878,-49,-0.365853658536585,0,0,-20,0.0869565217391304,-48,-0.208695652173913,155,-0.75609756097561,
116918,7031.25,1120,-0.686695278969957,2368,1.45187001839362,-16192,9.92765174739424,4,3.35365853658537,-55,-0.24390243902439,-1,0.0609756097560976,-17,0.0739130434782609,-54,-0.234782608695652,155,-0.75609756097561,
117558,7050.78125,1104,-0.676885346413243,2256,1.38320049049663,-16144,9.89822194972409,-3,3.47560975609756,-57,0.182926829268293,-4,0.24390243902439,-16,0.0695652173913043,-50,-0.217391304347826,155,-0.75609756097561,
118198,7070.3125,1152,-0.706315144083384,2224,1.3635806253832,-16224,9.94727161250766,2,3.71951219512195,-61,-0.121951219512195,-6,0.365853658536585,-18,0.0782608695652174,-50,-0.217391304347826,156,-0.760975609756098,
118838,7089.84375,1152,-0.706315144083384,2272,1.39301042305334,-16064,9.84917228694053,0,3.71951219512195,-61,0,-7,0.426829268292683,-21,0.091304347826087,-51,-0.221739130434783,155,-0.75609756097561,
119478,7109.375,1152,-0.706315144083384,2256,1.38320049049663,-16064,9.84917228694053,1,4.02439024390244,-66,-0.0609756097560976,-4,0.24390243902439,-18,0.0782608695652174,-51,-0.221739130434783,156,-0.760975609756098,
120118,7128.90625,1120,-0.686695278969957,2272,1.39301042305334,-16096,9.86879215205395,6,3.96341463414634,-65,-0.365853658536585,-8,0.487804878048781,-19,0.0826086956521739,-50,-0.217391304347826,155,-0.75609756097561,
120758,7148.4375,1184,-0.725935009196812,2288,1.40282035561006,-16112,9.87860208461067,0,3.96341463414634,-65,0,-13,0.792682926829268,-20,0.0869565217391304,-47,-0.204347826086957,154,-0.751219512195122,
121398,7167.96875,1088,-0.66707541385653,2304,1.41263028816677,-16048,9.83936235438381,1,4.14634146341463,-68,-0.0609756097560976,-14,0.853658536585366,-17,0.0739130434782609,-51,-0.221739130434783,154,-0.751219512195122,
122038,7187.5,1072,-0.657265481299816,2336,1.4322501532802,-15984,9.80012262415696,5,4.14634146341463,-68,-0.304878048780488,-11,0.670731707317073,-20,0.0869565217391304,-52,-0.226086956521739,154,-0.751219512195122,
122678,7207.03125,1168,-0.716125076640098,2272,1.39301042305334,-16000,9.80993255671367,-2,4.32926829268293,-71,0.121951219512195,-13,0.792682926829268,-17,0.0739130434782609,-51,-0.221739130434783,156,-0.760975609756098,
123318,7226.5625,1152,-0.706315144083384,2336,1.4322501532802,-15936,9.77069282648682,10,3.96341463414634,-65,-0.609756097560976,-9,0.548780487804878,-17,0.0739130434782609,-52,-0.226086956521739,155,-0.75609756097561,
123958,7246.09375,1056,-0.647455548743102,2352,1.44206008583691,-16016,9.81974248927039,30,4.08536585365854,-67,-1.82926829268293,-6,0.365853658536585,-18,0.0782608695652174,-48,-0.208695652173913,153,-0.746341463414634,
124598,7265.625,1024,-0.627835683629675,2400,1.47148988350705,-16032,9.8295524218271,22,3.90243902439024,-64,-1.34146341463415,-8,0.487804878048781,-18,0.0782608695652174,-52,-0.226086956521739,156,-0.760975609756098,
125238,7285.15625,1136,-0.696505211526671,2400,1.47148988350705,-16032,9.8295524218271,16,4.02439024390244,-66,-0.975609756097561,-14,0.853658536585366,-18,0.0782608695652174,-53,-0.230434782608696,154,-0.751219512195122,
125878,7304.6875,1136,-0.696505211526671,2384,1.46167995095034,-16032,9.8295524218271,20,4.02439024390244,-66,-1.21951219512195,-9,0.548780487804878,-17,0.0739130434782609,-53,-0.230434782608696,155,-0.75609756097561,
126518,7324.21875,1056,-0.647455548743102,2352,1.44206008583691,-15952,9.78050275904353,16,4.14634146341463,-68,-0.975609756097561,-12,0.731707317073171,-17,0.0739130434782609,-54,-0.234782608695652,155,-0.75609756097561,
127158,7343.75,1072,-0.657265481299816,2368,1.45187001839362,-15904,9.75107296137339,4,4.14634146341463,-68,-0.24390243902439,-15,0.914634146341463,-17,0.0739130434782609,-48,-0.208695652173913,154,-0.751219512195122,
127798,7363.28125,1072,-0.657265481299816,2400,1.47148988350705,-15952,9.78050275904353,9,3.59756097560976,-59,-0.548780487804878,-15,0.914634146341463,-17,0.0739130434782609,-48,-0.208695652173913,155,-0.75609756097561,
128438,7382.8125,1008,-0.618025751072961,2384,1.46167995095034,-15904,9.75107296137339,21,4.02439024390244,-66,-1.28048780487805,-13,0.792682926829268,-18,0.0782608695652174,-48,-0.208695652173913,155,-0.75609756097561,
129078,7402.34375,912,-0.559166155732679,2416,1.48129981606376,-15872,9.73145309625996,25,4.02439024390244,-66,-1.52439024390244,-8,0.487804878048781,-16,0.0695652173913043,-53,-0.230434782608696,156,-0.760975609756098,
129718,7421.875,992,-0.608215818516248,2384,1.46167995095034,-15888,9.74126302881668,11,3.65853658536585,-60,-0.670731707317073,-7,0.426829268292683,-19,0.0826086956521739,-51,-0.221739130434783,154,-0.751219512195122,
130358,7441.40625,992,-0.608215818516248,2480,1.52053954629062,-15920,9.7608828939301,13,3.53658536585366,-58,-0.792682926829268,-5,0.304878048780488,-16,0.0695652173913043,-52,-0.226086956521739,154,-0.751219512195122,
130998,7460.9375,928,-0.568976088289393,2416,1.48129981606376,-15968,9.79031269160024,11,3.35365853658537,-55,-0.670731707317073,-6,0.365853658536585,-16,0.0695652173913043,-52,-0.226086956521739,155,-0.75609756097561,
131638,7480.46875,912,-0.559166155732679,2432,1.49110974862048,-16000,9.80993255671367,2,3.35365853658537,-55,-0.121951219512195,-7,0.426829268292683,-16,0.0695652173913043,-49,-0.21304347826087,155,-0.75609756097561,
132278,7500,1008,-0.618025751072961,2416,1.48129981606376,-15888,9.74126302881668,1,3.65853658536585,-60,-0.0609756097560976,-10,0.609756097560976,-16,0.0695652173913043,-50,-0.217391304347826,154,-0.751219512195122,
132918,7519.53125,1008,-0.618025751072961,2448,1.50091968117719,-15872,9.73145309625996,4,3.23170731707317,-53,-0.24390243902439,-8,0.487804878048781,-19,0.0826086956521739,-50,-0.217391304347826,154,-0.751219512195122,
133558,7539.0625,976,-0.598405885959534,2464,1.51072961373391,-15888,9.74126302881668,12,3.17073170731707,-52,-0.731707317073171,-5,0.304878048780488,-18,0.0782608695652174,-53,-0.230434782608696,155,-0.75609756097561,
134198,7558.59375,960,-0.58859595340282,2448,1.50091968117719,-15904,9.75107296137339,5,2.92682926829268,-48,-0.304878048780488,-8,0.487804878048781,-18,0.0782608695652174,-51,-0.221739130434783,153,-0.746341463414634,
134838,7578.125,1008,-0.618025751072961,2448,1.50091968117719,-15808,9.69221336603311,15,2.74390243902439,-45,-0.914634146341463,-6,0.365853658536585,-16,0.0695652173913043,-53,-0.230434782608696,154,-0.751219512195122,
135478,7597.65625,928,-0.568976088289393,2464,1.51072961373391,-15808,9.69221336603311,21,2.5609756097561,-42,-1.28048780487805,-5,0.304878048780488,-16,0.0695652173913043,-53,-0.230434782608696,154,-0.751219512195122,
136118,7617.1875,928,-0.568976088289393,2368,1.45187001839362,-15872,9.73145309625996,19,2.6219512195122,-43,-1.15853658536585,-8,0.487804878048781,-18,0.0782608695652174,-47,-0.204347826086957,155,-0.75609756097561,
136758,7636.71875,832,-0.510116492949111,2384,1.46167995095034,-15888,9.74126302881668,11,2.74390243902439,-45,-0.670731707317073,-8,0.487804878048781,-18,0.0782608695652174,-48,-0.208695652173913,155,-0.75609756097561,
137398,7656.25,960,-0.58859595340282,2368,1.45187001839362,-15952,9.78050275904353,-10,2.5,-41,0.609756097560976,-11,0.670731707317073,-17,0.0739130434782609,-54,-0.234782608695652,154,-0.751219512195122,
138038,7675.78125,976,-0.598405885959534,2368,1.45187001839362,-15872,9.73145309625996,-11,2.19512195121951,-36,0.670731707317073,-6,0.365853658536585,-18,0.0782608695652174,-52,-0.226086956521739,155,-0.75609756097561,
138678,7695.3125,1008,-0.618025751072961,2448,1.50091968117719,-15952,9.78050275904353,-5,1.89024390243902,-31,0.304878048780488,-8,0.487804878048781,-18,0.0782608695652174,-50,-0.217391304347826,155,-0.75609756097561,
139318,7714.84375,1104,-0.676885346413243,2416,1.48129981606376,-15984,9.80012262415696,9,1.70731707317073,-28,-0.548780487804878,-6,0.365853658536585,-17,0.0739130434782609,-51,-0.221739130434783,155,-0.75609756097561,
139958,7734.375,992,-0.608215818516248,2352,1.44206008583691,-15952,9.78050275904353,7,1.58536585365854,-26,-0.426829268292683,-10,0.609756097560976,-17,0.0739130434782609,-54,-0.234782608695652,156,-0.760975609756098,
140598,7753.90625,1024,-0.627835683629675,2352,1.44206008583691,-16032,9.8295524218271,0,1.89024390243902,-31,0,-10,0.609756097560976,-17,0.0739130434782609,-47,-0.204347826086957,152,-0.741463414634146,
141238,7773.4375,1024,-0.627835683629675,2288,1.40282035561006,-16032,9.8295524218271,-6,1.82926829268293,-30,0.365853658536585,-11,0.670731707317073,-17,0.0739130434782609,-51,-0.221739130434783,153,-0.746341463414634,
141878,7792.96875,1056,-0.647455548743102,2352,1.44206008583691,-16080,9.85898221949724,-8,1.95121951219512,-32,0.487804878048781,-11,0.670731707317073,-16,0.0695652173913043,-50,-0.217391304347826,153,-0.746341463414634,
142518,7812.5,1024,-0.627835683629675,2416,1.48129981606376,-16080,9.85898221949724,-1,2.19512195121951,-36,0.0609756097560976,-9,0.548780487804878,-17,0.0739130434782609,-52,-0.226086956521739,155,-0.75609756097561,
143158,7832.03125,1024,-0.627835683629675,2368,1.45187001839362,-16112,9.87860208461067,9,2.13414634146341,-35,-0.548780487804878,-5,0.304878048780488,-16,0.0695652173913043,-50,-0.217391304347826,154,-0.751219512195122,
143798,7851.5625,1008,-0.618025751072961,2352,1.44206008583691,-16160,9.90803188228081,12,2.5,-41,-0.731707317073171,-9,0.548780487804878,-19,0.0826086956521739,-46,-0.2,154,-0.751219512195122,
144438,7871.09375,992,-0.608215818516248,2432,1.49110974862048,-16128,9.88841201716738,8,2.13414634146341,-35,-0.487804878048781,-15,0.914634146341463,-19,0.0826086956521739,-49,-0.21304347826087,153,-0.746341463414634,
145078,7890.625,1056,-0.647455548743102,2336,1.4322501532802,-16080,9.85898221949724,9,2.5609756097561,-42,-0.548780487804878,-20,1.21951219512195,-17,0.0739130434782609,-53,-0.230434782608696,155,-0.75609756097561,
145718,7910.15625,1008,-0.618025751072961,2304,1.41263028816677,-16144,9.89822194972409,21,2.68292682926829,-44,-1.28048780487805,-19,1.15853658536585,-16,0.0695652173913043,-53,-0.230434782608696,155,-0.75609756097561,
146358,7929.6875,976,-0.598405885959534,2352,1.44206008583691,-16080,9.85898221949724,23,2.92682926829268,-48,-1.40243902439024,-15,0.914634146341463,-18,0.0782608695652174,-52,-0.226086956521739,154,-0.751219512195122,
146998,7949.21875,992,-0.608215818516248,2336,1.4322501532802,-16128,9.88841201716738,8,3.17073170731707,-52,-0.487804878048781,-20,1.21951219512195,-17,0.0739130434782609,-48,-0.208695652173913,155,-0.75609756097561,
147638,7968.75,992,-0.608215818516248,2416,1.48129981606376,-16048,9.83936235438381,2,3.29268292682927,-54,-0.121951219512195,-21,1.28048780487805,-16,0.0695652173913043,-46,-0.2,154,-0.751219512195122,
148278,7988.28125,976,-0.598405885959534,2336,1.4322501532802,-16096,9.86879215205395,14,3.29268292682927,-54,-0.853658536585366,-23,1.40243902439024,-17,0.0739130434782609,-51,-0.221739130434783,154,-0.751219512195122,
148918,8007.8125,992,-0.608215818516248,2352,1.44206008583691,-16112,9.87860208461067,8,3.47560975609756,-57,-0.487804878048781,-27,1.64634146341463,-16,0.0695652173913043,-54,-0.234782608695652,154,-0.751219512195122,
149558,8027.34375,960,-0.58859595340282,2368,1.45187001839362,-15984,9.80012262415696,-6,3.47560975609756,-57,0.365853658536585,-29,1.76829268292683,-18,0.0782608695652174,-48,-0.208695652173913,154,-0.751219512195122,
150198,8046.875,1024,-0.627835683629675,2368,1.45187001839362,-16048,9.83936235438381,-4,3.29268292682927,-54,0.24390243902439,-27,1.64634146341463,-17,0.0739130434782609,-50,-0.217391304347826,154,-0.751219512195122,
150838,8066.40625,1104,-0.676885346413243,2336,1.4322501532802,-15984,9.80012262415696,13,3.10975609756098,-51,-0.792682926829268,-35,2.13414634146341,-17,0.0739130434782609,-53,-0.230434782608696,156,-0.760975609756098,
151478,8085.9375,864,-0.529736358062538,2336,1.4322501532802,-15920,9.7608828939301,23,3.29268292682927,-54,-1.40243902439024,-34,2.07317073170732,-16,0.0695652173913043,-54,-0.234782608695652,156,-0.760975609756098,
152118,8105.46875,864,-0.529736358062538,2400,1.47148988350705,-15872,9.73145309625996,7,3.41463414634146,-56,-0.426829268292683,-38,2.31707317073171,-17,0.0739130434782609,-50,-0.217391304347826,153,-0.746341463414634,
152758,8125,960,-0.58859595340282,2256,1.38320049049663,-15904,9.75107296137339,-11,2.98780487804878,-49,0.670731707317073,-36,2.19512195121951,-19,0.0826086956521739,-48,-0.208695652173913,153,-0.746341463414634,
153398,8144.53125,800,-0.490496627835684,2352,1.44206008583691,-15920,9.7608828939301,14,3.47560975609756,-57,-0.853658536585366,-29,1.76829268292683,-17,0.0739130434782609,-47,-0.204347826086957,153,-0.746341463414634,
154038,8164.0625,704,-0.431637032495402,2432,1.49110974862048,-15968,9.79031269160024,12,3.41463414634146,-56,-0.731707317073171,-30,1.82926829268293,-17,0.0739130434782609,-52,-0.226086956521739,154,-0.751219512195122,
154678,8183.59375,784,-0.48068669527897,2352,1.44206008583691,-15888,9.74126302881668,-12,3.23170731707317,-53,0.731707317073171,-22,1.34146341463415,-16,0.0695652173913043,-49,-0.21304347826087,154,-0.751219512195122,
155318,8203.125,832,-0.510116492949111,2368,1.45187001839362,-15920,9.7608828939301,-12,2.98780487804878,-49,0.731707317073171,-23,1.40243902439024,-18,0.0782608695652174,-52,-0.226086956521739,154,-0.751219512195122,
155958,8222.65625,832,-0.510116492949111,2384,1.46167995095034,-15904,9.75107296137339,3,2.5609756097561,-42,-0.182926829268293,-25,1.52439024390244,-18,0.0782608695652174,-52,-0.226086956521739,155,-0.75609756097561,
156598,8242.1875,800,-0.490496627835684,2352,1.44206008583691,-15936,9.77069282648682,2,2.5,-41,-0.121951219512195,-17,1.03658536585366,-16,0.0695652173913043,-50,-0.217391304347826,154,-0.751219512195122,
157238,8261.71875,816,-0.500306560392397,2320,1.42244022072348,-16016,9.81974248927039,7,2.5609756097561,-42,-0.426829268292683,-13,0.792682926829268,-16,0.0695652173913043,-54,-0.234782608695652,153,-0.746341463414634,
157878,8281.25,800,-0.490496627835684,2272,1.39301042305334,-16032,9.8295524218271,-1,2.74390243902439,-45,0.0609756097560976,-14,0.853658536585366,-19,0.0826086956521739,-48,-0.208695652173913,152,-0.741463414634146,
158518,8300.78125,864,-0.529736358062538,2224,1.3635806253832,-16000,9.80993255671367,2,2.74390243902439,-45,-0.121951219512195,-19,1.15853658536585,-16,0.0695652173913043,-47,-0.204347826086957,154,-0.751219512195122,
159158,8320.3125,800,-0.490496627835684,2336,1.4322501532802,-16032,9.8295524218271,-3,2.86585365853659,-47,0.182926829268293,-23,1.40243902439024,-17,0.0739130434782609,-48,-0.208695652173913,155,-0.75609756097561,
159798,8339.84375,784,-0.48068669527897,2304,1.41263028816677,-16032,9.8295524218271,-5,2.98780487804878,-49,0.304878048780488,-25,1.52439024390244,-16,0.0695652173913043,-49,-0.21304347826087,154,-0.751219512195122,
160438,8359.375,848,-0.519926425505825,2320,1.42244022072348,-16048,9.83936235438381,-4,2.98780487804878,-49,0.24390243902439,-23,1.40243902439024,-18,0.0782608695652174,-48,-0.208695652173913,155,-0.75609756097561,
161078,8378.90625,784,-0.48068669527897,2304,1.41263028816677,-16016,9.81974248927039,-1,3.04878048780488,-50,0.0609756097560976,-16,0.975609756097561,-18,0.0782608695652174,-49,-0.21304347826087,155,-0.75609756097561,
161718,8398.4375,784,-0.48068669527897,2304,1.41263028816677,-15984,9.80012262415696,-2,3.35365853658537,-55,0.121951219512195,-9,0.548780487804878,-17,0.0739130434782609,-50,-0.217391304347826,153,-0.746341463414634,
162358,8417.96875,864,-0.529736358062538,2256,1.38320049049663,-16000,9.80993255671367,-11,3.17073170731707,-52,0.670731707317073,-12,0.731707317073171,-15,0.0652173913043478,-53,-0.230434782608696,155,-0.75609756097561,
162998,8437.5,832,-0.510116492949111,2320,1.42244022072348,-15920,9.7608828939301,-14,3.10975609756098,-51,0.853658536585366,-11,0.670731707317073,-17,0.0739130434782609,-47,-0.204347826086957,153,-0.746341463414634,
163638,8457.03125,880,-0.539546290619252,2352,1.44206008583691,-15968,9.79031269160024,-11,3.23170731707317,-53,0.670731707317073,-7,0.426829268292683,-15,0.0652173913043478,-50,-0.217391304347826,153,-0.746341463414634,
164278,8476.5625,928,-0.568976088289393,2336,1.4322501532802,-15968,9.79031269160024,-4,3.17073170731707,-52,0.24390243902439,-9,0.548780487804878,-18,0.0782608695652174,-47,-0.204347826086957,153,-0.746341463414634,
164918,8496.09375,896,-0.549356223175966,2384,1.46167995095034,-16016,9.81974248927039,9,3.10975609756098,-51,-0.548780487804878,-7,0.426829268292683,-16,0.0695652173913043,-51,-0.221739130434783,155,-0.75609756097561,
165558,8515.625,864,-0.529736358062538,2400,1.47148988350705,-16032,9.8295524218271,4,3.04878048780488,-50,-0.24390243902439,-8,0.487804878048781,-17,0.0739130434782609,-51,-0.221739130434783,154,-0.751219512195122,
166198,8535.15625,912,-0.559166155732679,2352,1.44206008583691,-16032,9.8295524218271,-11,2.98780487804878,-49,0.670731707317073,-4,0.24390243902439,-18,0.0782608695652174,-45,-0.195652173913043,153,-0.746341463414634,
166838,8554.6875,912,-0.559166155732679,2304,1.41263028816677,-15904,9.75107296137339,-15,2.80487804878049,-46,0.914634146341463,-4,0.24390243902439,-20,0.0869565217391304,-46,-0.2,152,-0.741463414634146,
167478,8574.21875,928,-0.568976088289393,2304,1.41263028816677,-15872,9.73145309625996,-1,2.86585365853659,-47,0.0609756097560976,-7,0.426829268292683,-17,0.0739130434782609,-53,-0.230434782608696,155,-0.75609756097561,
168118,8593.75,928,-0.568976088289393,2336,1.4322501532802,-15840,9.71183323114654,-8,2.74390243902439,-45,0.487804878048781,-7,0.426829268292683,-19,0.0826086956521739,-51,-0.221739130434783,152,-0.741463414634146,
168758,8613.28125,1040,-0.637645616186389,2320,1.42244022072348,-15792,9.6824034334764,-13,2.31707317073171,-38,0.792682926829268,-5,0.304878048780488,-16,0.0695652173913043,-53,-0.230434782608696,154,-0.751219512195122,
169398,8632.8125,976,-0.598405885959534,2368,1.45187001839362,-15808,9.69221336603311,-15,1.58536585365854,-26,0.914634146341463,-9,0.548780487804878,-19,0.0826086956521739,-46,-0.2,152,-0.741463414634146,
170038,8652.34375,992,-0.608215818516248,2368,1.45187001839362,-15856,9.72164316370325,-16,1.34146341463415,-22,0.975609756097561,-7,0.426829268292683,-18,0.0782608695652174,-47,-0.204347826086957,155,-0.75609756097561,
170678,8671.875,1008,-0.618025751072961,2400,1.47148988350705,-15904,9.75107296137339,-4,1.03658536585366,-17,0.24390243902439,-7,0.426829268292683,-18,0.0782608695652174,-47,-0.204347826086957,154,-0.751219512195122,
171318,8691.40625,1008,-0.618025751072961,2384,1.46167995095034,-15920,9.7608828939301,-5,1.15853658536585,-19,0.304878048780488,-8,0.487804878048781,-19,0.0826086956521739,-46,-0.2,152,-0.741463414634146,
171958,8710.9375,992,-0.608215818516248,2336,1.4322501532802,-16048,9.83936235438381,-4,1.15853658536585,-19,0.24390243902439,-16,0.975609756097561,-17,0.0739130434782609,-52,-0.226086956521739,155,-0.75609756097561,
172598,8730.46875,816,-0.500306560392397,2368,1.45187001839362,-16128,9.88841201716738,10,1.52439024390244,-25,-0.609756097560976,-17,1.03658536585366,-18,0.0782608695652174,-49,-0.21304347826087,153,-0.746341463414634,
173238,8750,928,-0.568976088289393,2288,1.40282035561006,-16160,9.90803188228081,-2,1.34146341463415,-22,0.121951219512195,-16,0.975609756097561,-19,0.0826086956521739,-48,-0.208695652173913,153,-0.746341463414634,
173878,8769.53125,992,-0.608215818516248,2224,1.3635806253832,-16208,9.93746167995095,3,1.76829268292683,-29,-0.182926829268293,-10,0.609756097560976,-18,0.0782608695652174,-45,-0.195652173913043,153,-0.746341463414634,
174518,8789.0625,944,-0.578786020846107,2304,1.41263028816677,-16272,9.9767014101778,5,2.19512195121951,-36,-0.304878048780488,-9,0.548780487804878,-16,0.0695652173913043,-52,-0.226086956521739,154,-0.751219512195122,
175158,8808.59375,960,-0.58859595340282,2224,1.3635806253832,-16160,9.90803188228081,5,2.07317073170732,-34,-0.304878048780488,-6,0.365853658536585,-15,0.0652173913043478,-50,-0.217391304347826,154,-0.751219512195122,
175798,8828.125,864,-0.529736358062538,2240,1.37339055793991,-16096,9.86879215205395,8,2.68292682926829,-44,-0.487804878048781,-6,0.365853658536585,-16,0.0695652173913043,-50,-0.217391304347826,154,-0.751219512195122,
176438,8847.65625,912,-0.559166155732679,2128,1.30472103004292,-16128,9.88841201716738,-4,2.98780487804878,-49,0.24390243902439,-12,0.731707317073171,-18,0.0782608695652174,-47,-0.204347826086957,152,-0.741463414634146,
177078,8867.1875,1088,-0.66707541385653,2208,1.35377069282649,-16048,9.83936235438381,-7,3.35365853658537,-55,0.426829268292683,-19,1.15853658536585,-18,0.0782608695652174,-51,-0.221739130434783,155,-0.75609756097561,
177718,8886.71875,1008,-0.618025751072961,2144,1.31453096259963,-16048,9.83936235438381,16,3.53658536585366,-58,-0.975609756097561,-18,1.09756097560976,-16,0.0695652173913043,-52,-0.226086956521739,155,-0.75609756097561,
178358,8906.25,880,-0.539546290619252,2240,1.37339055793991,-16144,9.89822194972409,23,3.47560975609756,-57,-1.40243902439024,-21,1.28048780487805,-18,0.0782608695652174,-50,-0.217391304347826,152,-0.741463414634146,
178998,8925.78125,896,-0.549356223175966,2240,1.37339055793991,-16032,9.8295524218271,7,3.41463414634146,-56,-0.426829268292683,-20,1.21951219512195,-17,0.0739130434782609,-48,-0.208695652173913,153,-0.746341463414634,
179638,8945.3125,912,-0.559166155732679,2176,1.33415082771306,-15984,9.80012262415696,0,3.59756097560976,-59,0,-15,0.914634146341463,-18,0.0782608695652174,-46,-0.2,153,-0.746341463414634,
180278,8964.84375,832,-0.510116492949111,2336,1.4322501532802,-15968,9.79031269160024,14,3.78048780487805,-62,-0.853658536585366,-20,1.21951219512195,-18,0.0782608695652174,-48,-0.208695652173913,152,-0.741463414634146,
180918,8984.375,752,-0.461066830165543,2288,1.40282035561006,-15936,9.77069282648682,9,3.65853658536585,-60,-0.548780487804878,-18,1.09756097560976,-18,0.0782608695652174,-48,-0.208695652173913,154,-0.751219512195122,
181558,9003.90625,816,-0.500306560392397,2240,1.37339055793991,-15968,9.79031269160024,-1,3.29268292682927,-54,0.0609756097560976,-16,0.975609756097561,-18,0.0782608695652174,-47,-0.204347826086957,154,-0.751219512195122,
182198,9023.4375,816,-0.500306560392397,2256,1.38320049049663,-15968,9.79031269160024,-5,2.68292682926829,-44,0.304878048780488,-8,0.487804878048781,-17,0.0739130434782609,-52,-0.226086956521739,155,-0.75609756097561,
182838,9042.96875,752,-0.461066830165543,2224,1.3635806253832,-15872,9.73145309625996,-10,2.92682926829268,-48,0.609756097560976,-7,0.426829268292683,-17,0.0739130434782609,-53,-0.230434782608696,155,-0.75609756097561,
183478,9062.5,816,-0.500306560392397,2256,1.38320049049663,-15936,9.77069282648682,8,2.92682926829268,-48,-0.487804878048781,-3,0.182926829268293,-19,0.0826086956521739,-52,-0.226086956521739,153,-0.746341463414634,
184118,9082.03125,768,-0.470876762722256,2272,1.39301042305334,-15872,9.73145309625996,10,2.5609756097561,-42,-0.609756097560976,-3,0.182926829268293,-18,0.0782608695652174,-47,-0.204347826086957,153,-0.746341463414634,
184758,9101.5625,816,-0.500306560392397,2192,1.34396076026977,-15984,9.80012262415696,11,2.68292682926829,-44,-0.670731707317073,-1,0.0609756097560976,-15,0.0652173913043478,-51,-0.221739130434783,154,-0.751219512195122,
185398,9121.09375,784,-0.48068669527897,2176,1.33415082771306,-15904,9.75107296137339,-2,2.68292682926829,-44,0.121951219512195,2,-0.121951219512195,-16,0.0695652173913043,-51,-0.221739130434783,154,-0.751219512195122,
186038,9140.625,816,-0.500306560392397,2192,1.34396076026977,-15888,9.74126302881668,-6,2.4390243902439,-40,0.365853658536585,5,-0.304878048780488,-19,0.0826086956521739,-48,-0.208695652173913,153,-0.746341463414634,
186678,9160.15625,848,-0.519926425505825,2288,1.40282035561006,-15968,9.79031269160024,5,2.25609756097561,-37,-0.304878048780488,6,-0.365853658536585,-16,0.0695652173913043,-49,-0.21304347826087,153,-0.746341463414634,
187318,9179.6875,768,-0.470876762722256,2240,1.37339055793991,-15952,9.78050275904353,10,2.13414634146341,-35,-0.609756097560976,10,-0.609756097560976,-18,0.0782608695652174,-47,-0.204347826086957,152,-0.741463414634146,
187958,9199.21875,640,-0.392397302268547,2288,1.40282035561006,-16000,9.80993255671367,-8,1.95121951219512,-32,0.487804878048781,13,-0.792682926829268,-19,0.0826086956521739,-52,-0.226086956521739,155,-0.75609756097561,
188598,9218.75,736,-0.451256897608829,2224,1.3635806253832,-16000,9.80993255671367,-14,1.89024390243902,-31,0.853658536585366,17,-1.03658536585366,-16,0.0695652173913043,-51,-0.221739130434783,154,-0.751219512195122,
189238,9238.28125,800,-0.490496627835684,2224,1.3635806253832,-16016,9.81974248927039,-11,2.13414634146341,-35,0.670731707317073,22,-1.34146341463415,-16,0.0695652173913043,-47,-0.204347826086957,152,-0.741463414634146,
189878,9257.8125,832,-0.510116492949111,2288,1.40282035561006,-15968,9.79031269160024,-7,2.01219512195122,-33,0.426829268292683,21,-1.28048780487805,-17,0.0739130434782609,-47,-0.204347826086957,152,-0.741463414634146,
190518,9277.34375,912,-0.559166155732679,2336,1.4322501532802,-15984,9.80012262415696,1,1.76829268292683,-29,-0.0609756097560976,21,-1.28048780487805,-18,0.0782608695652174,-49,-0.21304347826087,154,-0.751219512195122,
191158,9296.875,944,-0.578786020846107,2336,1.4322501532802,-16016,9.81974248927039,13,2.01219512195122,-33,-0.792682926829268,21,-1.28048780487805,-18,0.0782608695652174,-47,-0.204347826086957,153,-0.746341463414634,
191798,9316.40625,832,-0.510116492949111,2224,1.3635806253832,-16000,9.80993255671367,-3,2.07317073170732,-34,0.182926829268293,20,-1.21951219512195,-16,0.0695652173913043,-53,-0.230434782608696,154,-0.751219512195122,
192438,9335.9375,848,-0.519926425505825,2272,1.39301042305334,-16064,9.84917228694053,-18,2.07317073170732,-34,1.09756097560976,19,-1.15853658536585,-19,0.0826086956521739,-47,-0.204347826086957,154,-0.751219512195122,
193078,9355.46875,944,-0.578786020846107,2240,1.37339055793991,-16080,9.85898221949724,-12,2.13414634146341,-35,0.731707317073171,14,-0.853658536585366,-18,0.0782608695652174,-48,-0.208695652173913,153,-0.746341463414634,
193718,9375,944,-0.578786020846107,2240,1.37339055793991,-15984,9.80012262415696,-9,2.07317073170732,-34,0.548780487804878,11,-0.670731707317073,-16,0.0695652173913043,-52,-0.226086956521739,156,-0.760975609756098,
194358,9394.53125,992,-0.608215818516248,2288,1.40282035561006,-15968,9.79031269160024,-11,2.01219512195122,-33,0.670731707317073,8,-0.487804878048781,-16,0.0695652173913043,-46,-0.2,154,-0.751219512195122,
194998,9414.0625,1056,-0.647455548743102,2256,1.38320049049663,-15936,9.77069282648682,-8,2.01219512195122,-33,0.487804878048781,5,-0.304878048780488,-17,0.0739130434782609,-47,-0.204347826086957,154,-0.751219512195122,
195638,9433.59375,1104,-0.676885346413243,2176,1.33415082771306,-16064,9.84917228694053,5,2.13414634146341,-35,-0.304878048780488,0,0,-15,0.0652173913043478,-49,-0.21304347826087,153,-0.746341463414634,
196278,9453.125,1024,-0.627835683629675,2176,1.33415082771306,-16064,9.84917228694053,8,2.25609756097561,-37,-0.487804878048781,-1,0.0609756097560976,-16,0.0695652173913043,-48,-0.208695652173913,154,-0.751219512195122,
196918,9472.65625,1008,-0.618025751072961,2128,1.30472103004292,-16096,9.86879215205395,-3,2.25609756097561,-37,0.182926829268293,-2,0.121951219512195,-18,0.0782608695652174,-48,-0.208695652173913,152,-0.741463414634146,
197558,9492.1875,960,-0.58859595340282,2240,1.37339055793991,-16144,9.89822194972409,-6,2.5,-41,0.365853658536585,-5,0.304878048780488,-16,0.0695652173913043,-48,-0.208695652173913,154,-0.751219512195122,
198198,9511.71875,992,-0.608215818516248,2256,1.38320049049663,-16000,9.80993255671367,2,2.5609756097561,-42,-0.121951219512195,-8,0.487804878048781,-15,0.0652173913043478,-51,-0.221739130434783,154,-0.751219512195122,
198838,9531.25,944,-0.578786020846107,2208,1.35377069282649,-16032,9.8295524218271,8,2.4390243902439,-40,-0.487804878048781,-9,0.548780487804878,-20,0.0869565217391304,-48,-0.208695652173913,153,-0.746341463414634,
199478,9550.78125,928,-0.568976088289393,2256,1.38320049049663,-15936,9.77069282648682,2,2.5609756097561,-42,-0.121951219512195,-14,0.853658536585366,-18,0.0782608695652174,-50,-0.217391304347826,152,-0.741463414634146,
200118,9570.3125,912,-0.559166155732679,2256,1.38320049049663,-15984,9.80012262415696,-2,2.37804878048781,-39,0.121951219512195,-11,0.670731707317073,-19,0.0826086956521739,-52,-0.226086956521739,154,-0.751219512195122,
200758,9589.84375,992,-0.608215818516248,2272,1.39301042305334,-16000,9.80993255671367,2,2.5,-41,-0.121951219512195,-11,0.670731707317073,-17,0.0739130434782609,-49,-0.21304347826087,153,-0.746341463414634,
201398,9609.375,928,-0.568976088289393,2240,1.37339055793991,-15984,9.80012262415696,23,2.37804878048781,-39,-1.40243902439024,-9,0.548780487804878,-17,0.0739130434782609,-47,-0.204347826086957,155,-0.75609756097561,
202038,9628.90625,848,-0.519926425505825,2160,1.32434089515635,-16048,9.83936235438381,20,2.37804878048781,-39,-1.21951219512195,-11,0.670731707317073,-17,0.0739130434782609,-48,-0.208695652173913,155,-0.75609756097561,
202678,9648.4375,800,-0.490496627835684,2256,1.38320049049663,-15984,9.80012262415696,0,2.31707317073171,-38,0,-9,0.548780487804878,-18,0.0782608695652174,-43,-0.18695652173913,152,-0.741463414634146,
203318,9667.96875,928,-0.568976088289393,2144,1.31453096259963,-16000,9.80993255671367,9,2.19512195121951,-36,-0.548780487804878,-9,0.548780487804878,-16,0.0695652173913043,-51,-0.221739130434783,154,-0.751219512195122,
203958,9687.5,896,-0.549356223175966,2128,1.30472103004292,-16016,9.81974248927039,18,2.31707317073171,-38,-1.09756097560976,-6,0.365853658536585,-18,0.0782608695652174,-49,-0.21304347826087,155,-0.75609756097561,
204598,9707.03125,752,-0.461066830165543,2096,1.28510116492949,-15984,9.80012262415696,12,2.37804878048781,-39,-0.731707317073171,-6,0.365853658536585,-18,0.0782608695652174,-50,-0.217391304347826,154,-0.751219512195122,
205238,9726.5625,784,-0.48068669527897,2144,1.31453096259963,-16016,9.81974248927039,1,2.25609756097561,-37,-0.0609756097560976,-3,0.182926829268293,-16,0.0695652173913043,-51,-0.221739130434783,155,-0.75609756097561,
205878,9746.09375,880,-0.539546290619252,2048,1.25567136725935,-16000,9.80993255671367,20,2.5,-41,-1.21951219512195,-3,0.182926829268293,-16,0.0695652173913043,-45,-0.195652173913043,152,-0.741463414634146,
206518,9765.625,672,-0.412017167381974,2160,1.32434089515635,-15920,9.7608828939301,12,2.37804878048781,-39,-0.731707317073171,-5,0.304878048780488,-16,0.0695652173913043,-49,-0.21304347826087,154,-0.751219512195122,
207158,9785.15625,704,-0.431637032495402,2192,1.34396076026977,-15920,9.7608828939301,-13,2.19512195121951,-36,0.792682926829268,-1,0.0609756097560976,-16,0.0695652173913043,-50,-0.217391304347826,154,-0.751219512195122,
207798,9804.6875,864,-0.529736358062538,2112,1.2949110974862,-15936,9.77069282648682,2,2.19512195121951,-36,-0.121951219512195,3,-0.182926829268293,-17,0.0739130434782609,-52,-0.226086956521739,154,-0.751219512195122,
208438,9824.21875,880,-0.539546290619252,2144,1.31453096259963,-16016,9.81974248927039,37,1.82926829268293,-30,-2.25609756097561,5,-0.304878048780488,-17,0.0739130434782609,-49,-0.21304347826087,153,-0.746341463414634,
209078,9843.75,752,-0.461066830165543,2144,1.31453096259963,-16064,9.84917228694053,31,1.76829268292683,-29,-1.89024390243902,5,-0.304878048780488,-16,0.0695652173913043,-50,-0.217391304347826,153,-0.746341463414634,
209718,9863.28125,768,-0.470876762722256,2048,1.25567136725935,-16016,9.81974248927039,5,1.82926829268293,-30,-0.304878048780488,3,-0.182926829268293,-19,0.0826086956521739,-45,-0.195652173913043,153,-0.746341463414634,
210358,9882.8125,816,-0.500306560392397,2096,1.28510116492949,-16000,9.80993255671367,19,1.89024390243902,-31,-1.15853658536585,-1,0.0609756097560976,-18,0.0782608695652174,-51,-0.221739130434783,155,-0.75609756097561,
210998,9902.34375,848,-0.519926425505825,2080,1.27529123237278,-16000,9.80993255671367,23,2.01219512195122,-33,-1.40243902439024,2,-0.121951219512195,-17,0.0739130434782609,-49,-0.21304347826087,155,-0.75609756097561,
211638,9921.875,800,-0.490496627835684,2064,1.26548129981606,-15984,9.80012262415696,20,1.82926829268293,-30,-1.21951219512195,-2,0.121951219512195,-15,0.0652173913043478,-52,-0.226086956521739,153,-0.746341463414634,
212278,9941.40625,736,-0.451256897608829,2112,1.2949110974862,-16016,9.81974248927039,13,2.01219512195122,-33,-0.792682926829268,-8,0.487804878048781,-19,0.0826086956521739,-45,-0.195652173913043,153,-0.746341463414634,
212918,9960.9375,784,-0.48068669527897,2032,1.24586143470264,-16000,9.80993255671367,14,2.13414634146341,-35,-0.853658536585366,-4,0.24390243902439,-17,0.0739130434782609,-44,-0.191304347826087,153,-0.746341463414634,
213558,9980.46875,816,-0.500306560392397,2112,1.2949110974862,-16064,9.84917228694053,19,2.31707317073171,-38,-1.15853658536585,0,0,-18,0.0782608695652174,-52,-0.226086956521739,154,-0.751219512195122,
214198,10000,832,-0.510116492949111,2112,1.2949110974862,-16016,9.81974248927039,15,2.19512195121951,-36,-0.914634146341463,3,-0.182926829268293,-17,0.0739130434782609,-49,-0.21304347826087,152,-0.741463414634146,
214838,10019.53125,816,-0.500306560392397,2048,1.25567136725935,-16064,9.84917228694053,22,2.31707317073171,-38,-1.34146341463415,6,-0.365853658536585,-17,0.0739130434782609,-48,-0.208695652173913,153,-0.746341463414634,
215478,10039.0625,752,-0.461066830165543,2032,1.24586143470264,-15984,9.80012262415696,6,2.6219512195122,-43,-0.365853658536585,2,-0.121951219512195,-16,0.0695652173913043,-50,-0.217391304347826,153,-0.746341463414634,
216118,10058.59375,784,-0.48068669527897,2048,1.25567136725935,-15936,9.77069282648682,2,2.5609756097561,-42,-0.121951219512195,-1,0.0609756097560976,-15,0.0652173913043478,-53,-0.230434782608696,154,-0.751219512195122,
216758,10078.125,832,-0.510116492949111,2112,1.2949110974862,-15936,9.77069282648682,9,2.31707317073171,-38,-0.548780487804878,-1,0.0609756097560976,-16,0.0695652173913043,-51,-0.221739130434783,152,-0.741463414634146,
217398,10097.65625,832,-0.510116492949111,2080,1.27529123237278,-15984,9.80012262415696,21,2.19512195121951,-36,-1.28048780487805,0,0,-15,0.0652173913043478,-48,-0.208695652173913,153,-0.746341463414634,
218038,10117.1875,720,-0.441446965052115,2128,1.30472103004292,-15968,9.79031269160024,15,2.07317073170732,-34,-0.914634146341463,-1,0.0609756097560976,-15,0.0652173913043478,-48,-0.208695652173913,153,-0.746341463414634,
218678,10136.71875,512,-0.313917841814838,6048,3.70815450643777,-11872,7.27896995708154,3652,37.2560975609756,-611,-222.682926829268,1161,-70.7926829268293,-15,0.0652173913043478,-48,-0.208695652173913,153,-0.746341463414634,
219318,10156.25,-5408,3.31575720416922,5680,3.48252605763335,-15200,9.31943592887799,962,6.52439024390244,-107,-58.6585365853659,-234,14.2682926829268,-11,0.0478260869565217,-49,-0.21304347826087,149,-0.726829268292683,
219958,10175.78125,-4560,2.7958307786634,6448,3.95340282035561,-16208,9.93746167995095,-440,-12.9878048780488,213,26.8292682926829,66,-4.02439024390244,-8,0.0347826086956522,-49,-0.21304347826087,148,-0.721951219512195,
220598,10195.3125,-3520,2.15818516247701,2320,1.42244022072348,-18160,11.13427345187,-1390,-10.7317073170732,176,84.7560975609756,269,-16.4024390243902,-11,0.0478260869565217,-50,-0.217391304347826,150,-0.731707317073171,
221238,10214.84375,2368,-1.45187001839362,-768,-0.470876762722256,-17216,10.5554874310239,-1685,-0.548780487804878,9,102.743902439024,-173,10.5487804878049,-15,0.0652173913043478,-45,-0.195652173913043,152,-0.741463414634146,
221878,10234.375,3696,-2.26609442060086,864,0.529736358062538,-16464,10.0944206008584,-548,-1.64634146341463,27,33.4146341463415,48,-2.92682926829268,-16,0.0695652173913043,-43,-0.18695652173913,154,-0.751219512195122,
222518,10253.90625,2224,-1.3635806253832,1664,1.02023298589822,-17040,10.4475781729001,213,-1.76829268292683,29,-12.9878048780488,128,-7.80487804878049,-16,0.0695652173913043,-45,-0.195652173913043,153,-0.746341463414634,
223158,10273.4375,784,-0.48068669527897,1504,0.922133660331085,-17456,10.7026364193746,314,1.21951219512195,-20,-19.1463414634146,91,-5.54878048780488,-17,0.0739130434782609,-49,-0.21304347826087,154,-0.751219512195122,
223798,10292.96875,16,-0.00980993255671367,1472,0.902513795217658,-17680,10.8399754751686,171,3.53658536585366,-58,-10.4268292682927,72,-4.39024390243902,-16,0.0695652173913043,-47,-0.204347826086957,154,-0.751219512195122,
224438,10312.5,112,-0.0686695278969957,1392,0.853464132434089,-17632,10.8105456774985,-123,5.54878048780488,-91,7.5,21,-1.28048780487805,-16,0.0695652173913043,-46,-0.2,153,-0.746341463414634,
225078,10332.03125,1280,-0.784794604537094,1344,0.824034334763949,-17040,10.4475781729001,-256,7.25609756097561,-119,15.609756097561,-11,0.670731707317073,-16,0.0695652173913043,-47,-0.204347826086957,153,-0.746341463414634,
225718,10351.5625,1824,-1.11833231146536,1360,0.833844267320662,-16464,10.0944206008584,-63,7.92682926829268,-130,3.84146341463415,-23,1.40243902439024,-16,0.0695652173913043,-50,-0.217391304347826,155,-0.75609756097561,
226358,10371.09375,1280,-0.784794604537094,1568,0.96137339055794,-16224,9.94727161250766,140,8.41463414634146,-138,-8.53658536585366,-9,0.548780487804878,-16,0.0695652173913043,-46,-0.2,154,-0.751219512195122,
226998,10390.625,736,-0.451256897608829,1696,1.03985285101165,-16112,9.87860208461067,155,8.90243902439025,-146,-9.45121951219512,-7,0.426829268292683,-17,0.0739130434782609,-46,-0.2,153,-0.746341463414634,
227638,10410.15625,512,-0.313917841814838,1824,1.11833231146536,-15968,9.79031269160024,68,8.65853658536586,-142,-4.14634146341463,-16,0.975609756097561,-17,0.0739130434782609,-43,-0.18695652173913,151,-0.736585365853659,
228278,10429.6875,720,-0.441446965052115,1808,1.10852237890864,-15808,9.69221336603311,2,7.80487804878049,-128,-0.121951219512195,-24,1.46341463414634,-16,0.0695652173913043,-45,-0.195652173913043,151,-0.736585365853659,
228918,10449.21875,752,-0.461066830165543,1808,1.10852237890864,-15712,9.63335377069283,-21,7.4390243902439,-122,1.28048780487805,-30,1.82926829268293,-14,0.0608695652173913,-49,-0.21304347826087,154,-0.751219512195122,
229558,10468.75,688,-0.421827099938688,1904,1.16738197424893,-15632,9.58430410790926,-38,6.89024390243902,-113,2.31707317073171,-26,1.58536585365854,-21,0.091304347826087,-46,-0.2,153,-0.746341463414634,
230198,10488.28125,800,-0.490496627835684,1920,1.17719190680564,-15648,9.59411404046597,-43,6.52439024390244,-107,2.6219512195122,-27,1.64634146341463,-16,0.0695652173913043,-50,-0.217391304347826,153,-0.746341463414634,
230838,10507.8125,784,-0.48068669527897,2016,1.23605150214592,-15600,9.56468424279583,-24,5.91463414634146,-97,1.46341463414634,-16,0.975609756097561,-17,0.0739130434782609,-48,-0.208695652173913,154,-0.751219512195122,
231478,10527.34375,928,-0.568976088289393,1952,1.19681177191907,-15552,9.53525444512569,-2,4.87804878048781,-80,0.121951219512195,-18,1.09756097560976,-15,0.0652173913043478,-52,-0.226086956521739,153,-0.746341463414634,
232118,10546.875,864,-0.529736358062538,1968,1.20662170447578,-15552,9.53525444512569,48,4.63414634146342,-76,-2.92682926829268,-17,1.03658536585366,-15,0.0652173913043478,-52,-0.226086956521739,154,-0.751219512195122,
232758,10566.40625,672,-0.412017167381974,1984,1.2164316370325,-15616,9.57449417535254,53,3.90243902439024,-64,-3.23170731707317,-24,1.46341463414634,-17,0.0739130434782609,-47,-0.204347826086957,153,-0.746341463414634,
233398,10585.9375,672,-0.412017167381974,1936,1.18700183936235,-15664,9.60392397302268,41,3.35365853658537,-55,-2.5,-26,1.58536585365854,-16,0.0695652173913043,-46,-0.2,153,-0.746341463414634,
234038,10605.46875,528,-0.323727774371551,2000,1.22624156958921,-15776,9.67259350091968,44,2.74390243902439,-45,-2.68292682926829,-26,1.58536585365854,-17,0.0739130434782609,-44,-0.191304347826087,152,-0.741463414634146,
234678,10625,400,-0.245248313917842,2032,1.24586143470264,-15856,9.72164316370325,12,2.31707317073171,-38,-0.731707317073171,-27,1.64634146341463,-16,0.0695652173913043,-45,-0.195652173913043,152,-0.741463414634146,
235318,10644.53125,464,-0.284488044144696,1968,1.20662170447578,-15920,9.7608828939301,-23,2.31707317073171,-38,1.40243902439024,-23,1.40243902439024,-16,0.0695652173913043,-45,-0.195652173913043,153,-0.746341463414634,
