Shimmer,Shimmer,Shimmer,Shimmer,Shimmer,Shimmer,Shimmer,Shimmer,Shimmer,Shimmer,Shimmer,Shimmer,Shimmer,Shimmer,Shimmer,Shimmer,Shimmer,Shimmer,Shimmer,Shimmer,
Timestamp,Timestamp,Wide Range Accelerometer X,Wide Range Accelerometer X,Wide Range Accelerometer Y,Wide Range Accelerometer Y,Wide Range Accelerometer Z,Wide Range Accelerometer Z,Gyroscope X,Gyroscope X,Gyroscope Y,Gyroscope Y,Gyroscope Z,Gyroscope Z,Magnetometer X,Magnetometer X,Magnetometer Y,Magnetometer Y,Magnetometer Z,Magnetometer Z,
RAW,CAL,RAW,CAL,RAW,CAL,RAW,CAL,RAW,CAL,RAW,CAL,RAW,CAL,RAW,CAL,RAW,CAL,RAW,CAL,
no units,mSecs,no units,m/(sec^2),no units,m/(sec^2),no units,m/(sec^2),no units,deg/sec,no units,deg/sec,no units,deg/sec,no units,local,no units,local,no units,local,
10600118,0,3520,-2.15818516247701,-14928,-9.15266707541386,-5184,3.17841814837523,-1,2.4390243902439,-40,0.0609756097560976,-21,1.28048780487805,-46,0.2,36,0.156521739130435,123,-0.6,
10600758,19.53125,3552,-2.17780502759044,-14880,-9.12323727774372,-5216,3.19803801348866,8,2.74390243902439,-45,-0.487804878048781,-24,1.46341463414634,-50,0.217391304347826,41,0.178260869565217,122,-0.595121951219512,
10601398,39.0625,3552,-2.17780502759044,-14944,-9.16247700797057,-5264,3.2274678111588,11,2.68292682926829,-44,-0.670731707317073,-24,1.46341463414634,-50,0.217391304347826,34,0.147826086956522,124,-0.604878048780488,
10602038,58.59375,3472,-2.12875536480687,-14928,-9.15266707541386,-5216,3.19803801348866,9,2.68292682926829,-44,-0.548780487804878,-20,1.21951219512195,-48,0.208695652173913,36,0.156521739130435,123,-0.6,
10602678,78.125,3552,-2.17780502759044,-14976,-9.182096873084,-5232,3.20784794604537,9,2.74390243902439,-45,-0.548780487804878,-16,0.975609756097561,-47,0.204347826086957,35,0.152173913043478,123,-0.6,
10603318,97.65625,3424,-2.09932556713673,-14944,-9.16247700797057,-5248,3.21765787860208,16,2.25609756097561,-37,-0.975609756097561,-10,0.609756097560976,-47,0.204347826086957,34,0.147826086956522,124,-0.604878048780488,
10603958,117.1875,3536,-2.16799509503372,-14832,-9.09380748007357,-5296,3.24708767627223,24,2.4390243902439,-40,-1.46341463414634,-5,0.304878048780488,-48,0.208695652173913,40,0.173913043478261,124,-0.604878048780488,
10604598,136.71875,3456,-2.11894543225015,-14880,-9.12323727774372,-5296,3.24708767627223,19,2.68292682926829,-44,-1.15853658536585,-10,0.609756097560976,-48,0.208695652173913,37,0.160869565217391,124,-0.604878048780488,
10605238,156.25,3504,-2.14837522992029,-14864,-9.113427345187,-5248,3.21765787860208,20,2.86585365853659,-47,-1.21951219512195,-10,0.609756097560976,-47,0.204347826086957,34,0.147826086956522,125,-0.609756097560976,
10605878,175.78125,3536,-2.16799509503372,-14944,-9.16247700797057,-5136,3.14898835070509,22,2.92682926829268,-48,-1.34146341463415,-4,0.24390243902439,-46,0.2,34,0.147826086956522,124,-0.604878048780488,
10606518,195.3125,3504,-2.14837522992029,-14960,-9.17228694052728,-5312,3.25689760882894,10,3.35365853658537,-55,-0.609756097560976,-3,0.182926829268293,-47,0.204347826086957,37,0.160869565217391,123,-0.6,
10607158,214.84375,3536,-2.16799509503372,-14944,-9.16247700797057,-5280,3.23727774371551,2,3.47560975609756,-57,-0.121951219512195,-5,0.304878048780488,-48,0.208695652173913,38,0.165217391304348,122,-0.595121951219512,
10607798,234.375,3536,-2.16799509503372,-14960,-9.17228694052728,-5152,3.1587982832618,0,3.84146341463415,-63,0,-8,0.487804878048781,-49,0.21304347826087,38,0.165217391304348,124,-0.604878048780488,
10608438,253.90625,3664,-2.24647455548743,-14976,-9.182096873084,-5152,3.1587982832618,10,3.78048780487805,-62,-0.609756097560976,-3,0.182926829268293,-49,0.21304347826087,35,0.152173913043478,125,-0.609756097560976,
10609078,273.4375,3504,-2.14837522992029,-14960,-9.17228694052728,-5280,3.23727774371551,7,3.71951219512195,-61,-0.426829268292683,-6,0.365853658536585,-46,0.2,39,0.169565217391304,123,-0.6,
10609718,292.96875,3552,-2.17780502759044,-14960,-9.17228694052728,-5264,3.2274678111588,-6,3.53658536585366,-58,0.365853658536585,-9,0.548780487804878,-48,0.208695652173913,38,0.165217391304348,122,-0.595121951219512,
10610358,312.5,3632,-2.226854690374,-14896,-9.13304721030043,-5136,3.14898835070509,-3,3.78048780487805,-62,0.182926829268293,-12,0.731707317073171,-49,0.21304347826087,35,0.152173913043478,125,-0.609756097560976,
10610998,332.03125,3552,-2.17780502759044,-14960,-9.17228694052728,-5200,3.18822808093194,3,3.78048780487805,-62,-0.182926829268293,-12,0.731707317073171,-48,0.208695652173913,35,0.152173913043478,124,-0.604878048780488,
10611638,351.5625,3584,-2.19742489270386,-14864,-9.113427345187,-5168,3.16860821581852,1,3.71951219512195,-61,-0.0609756097560976,-11,0.670731707317073,-46,0.2,33,0.143478260869565,124,-0.604878048780488,
10612278,371.09375,3536,-2.16799509503372,-14912,-9.14285714285714,-5248,3.21765787860208,-1,3.65853658536585,-60,0.0609756097560976,-12,0.731707317073171,-46,0.2,34,0.147826086956522,123,-0.6,
10612918,390.625,3520,-2.15818516247701,-14912,-9.14285714285714,-5184,3.17841814837523,-7,3.23170731707317,-53,0.426829268292683,-17,1.03658536585366,-49,0.21304347826087,40,0.173913043478261,123,-0.6,
10613558,410.15625,3520,-2.15818516247701,-14864,-9.113427345187,-5120,3.13917841814837,1,2.74390243902439,-45,-0.0609756097560976,-12,0.731707317073171,-48,0.208695652173913,38,0.165217391304348,124,-0.604878048780488,
10614198,429.6875,3584,-2.19742489270386,-14800,-9.07418761496015,-5216,3.19803801348866,27,2.13414634146341,-35,-1.64634146341463,-12,0.731707317073171,-50,0.217391304347826,42,0.182608695652174,122,-0.595121951219512,
10614838,449.21875,3488,-2.13856529736358,-14784,-9.06437768240343,-5200,3.18822808093194,34,2.25609756097561,-37,-2.07317073170732,-2,0.121951219512195,-46,0.2,37,0.160869565217391,124,-0.604878048780488,
10615478,468.75,3456,-2.11894543225015,-14752,-9.04475781729001,-5248,3.21765787860208,21,2.07317073170732,-34,-1.28048780487805,4,-0.24390243902439,-47,0.204347826086957,37,0.160869565217391,124,-0.604878048780488,
10616118,488.28125,3456,-2.11894543225015,-14752,-9.04475781729001,-5216,3.19803801348866,15,2.25609756097561,-37,-0.914634146341463,3,-0.182926829268293,-47,0.204347826086957,39,0.169565217391304,123,-0.6,
10616758,507.8125,3552,-2.17780502759044,-14784,-9.06437768240343,-5264,3.2274678111588,5,1.95121951219512,-32,-0.304878048780488,2,-0.121951219512195,-48,0.208695652173913,33,0.143478260869565,124,-0.604878048780488,
10617398,527.34375,3504,-2.14837522992029,-14784,-9.06437768240343,-5248,3.21765787860208,12,1.95121951219512,-32,-0.731707317073171,0,0,-47,0.204347826086957,35,0.152173913043478,124,-0.604878048780488,
10618038,546.875,3536,-2.16799509503372,-14880,-9.12323727774372,-5232,3.20784794604537,8,2.13414634146341,-35,-0.487804878048781,-2,0.121951219512195,-47,0.204347826086957,38,0.165217391304348,123,-0.6,
10618678,566.40625,3680,-2.25628448804414,-14896,-9.13304721030043,-5264,3.2274678111588,11,2.19512195121951,-36,-0.670731707317073,-3,0.182926829268293,-46,0.2,39,0.169565217391304,123,-0.6,
10619318,585.9375,3664,-2.24647455548743,-14976,-9.182096873084,-5376,3.29613733905579,24,1.95121951219512,-32,-1.46341463414634,-5,0.304878048780488,-47,0.204347826086957,39,0.169565217391304,124,-0.604878048780488,
10619958,605.46875,3600,-2.20723482526058,-14864,-9.113427345187,-5312,3.25689760882894,19,2.37804878048781,-39,-1.15853658536585,-17,1.03658536585366,-49,0.21304347826087,35,0.152173913043478,124,-0.604878048780488,
10620598,625,3648,-2.23666462293072,-14896,-9.13304721030043,-5248,3.21765787860208,1,2.5,-41,-0.0609756097560976,-24,1.46341463414634,-46,0.2,36,0.156521739130435,122,-0.595121951219512,
10621238,644.53125,3792,-2.32495401594114,-15056,-9.23114653586757,-5344,3.27651747394237,7,2.86585365853659,-47,-0.426829268292683,-27,1.64634146341463,-47,0.204347826086957,34,0.147826086956522,122,-0.595121951219512,
10621878,664.0625,3808,-2.33476394849785,-15152,-9.29000613120785,-5360,3.28632740649908,45,3.29268292682927,-54,-2.74390243902439,-19,1.15853658536585,-47,0.204347826086957,36,0.156521739130435,122,-0.595121951219512,
10622518,683.59375,3600,-2.20723482526058,-15040,-9.22133660331085,-5344,3.27651747394237,42,3.47560975609756,-57,-2.5609756097561,-20,1.21951219512195,-49,0.21304347826087,38,0.165217391304348,123,-0.6,
10623158,703.125,3600,-2.20723482526058,-14928,-9.15266707541386,-5296,3.24708767627223,23,3.59756097560976,-59,-1.40243902439024,-33,2.01219512195122,-47,0.204347826086957,34,0.147826086956522,123,-0.6,
10623798,722.65625,3600,-2.20723482526058,-14896,-9.13304721030043,-5328,3.26670754138565,18,4.02439024390244,-66,-1.09756097560976,-40,2.4390243902439,-47,0.204347826086957,34,0.147826086956522,123,-0.6,
10624438,742.1875,3568,-2.18761496014715,-14976,-9.182096873084,-5392,3.30594727161251,26,4.57317073170732,-75,-1.58536585365854,-41,2.5,-47,0.204347826086957,39,0.169565217391304,123,-0.6,
10625078,761.71875,3424,-2.09932556713673,-14960,-9.17228694052728,-5344,3.27651747394237,20,5.36585365853659,-88,-1.21951219512195,-43,2.6219512195122,-48,0.208695652173913,36,0.156521739130435,124,-0.604878048780488,
10625718,781.25,3456,-2.11894543225015,-14960,-9.17228694052728,-5232,3.20784794604537,-4,5.48780487804878,-90,0.24390243902439,-45,2.74390243902439,-47,0.204347826086957,34,0.147826086956522,125,-0.609756097560976,
10626358,800.78125,3456,-2.11894543225015,-14944,-9.16247700797057,-5296,3.24708767627223,-21,5.91463414634146,-97,1.28048780487805,-43,2.6219512195122,-49,0.21304347826087,39,0.169565217391304,124,-0.604878048780488,
10626998,820.3125,3488,-2.13856529736358,-14976,-9.182096873084,-5184,3.17841814837523,-6,5.67073170731707,-93,0.365853658536585,-40,2.4390243902439,-47,0.204347826086957,39,0.169565217391304,123,-0.6,
10627638,839.84375,3408,-2.08951563458001,-14864,-9.113427345187,-5104,3.12936848559166,4,5.18292682926829,-85,-0.24390243902439,-29,1.76829268292683,-46,0.2,38,0.165217391304348,124,-0.604878048780488,
10628278,859.375,3376,-2.06989576946658,-14800,-9.07418761496015,-5152,3.1587982832618,-11,4.51219512195122,-74,0.670731707317073,-27,1.64634146341463,-49,0.21304347826087,34,0.147826086956522,124,-0.604878048780488,
10628918,878.90625,3408,-2.08951563458001,-14832,-9.09380748007357,-5056,3.09993868792152,-13,3.90243902439024,-64,0.792682926829268,-18,1.09756097560976,-47,0.204347826086957,37,0.160869565217391,124,-0.604878048780488,
10629558,898.4375,3488,-2.13856529736358,-14800,-9.07418761496015,-5088,3.11955855303495,13,2.86585365853659,-47,-0.792682926829268,-5,0.304878048780488,-47,0.204347826086957,37,0.160869565217391,124,-0.604878048780488,
10630198,917.96875,3424,-2.09932556713673,-14848,-9.10361741263029,-5168,3.16860821581852,33,2.68292682926829,-44,-2.01219512195122,7,-0.426829268292683,-50,0.217391304347826,36,0.156521739130435,125,-0.609756097560976,
10630838,937.5,3408,-2.08951563458001,-14848,-9.10361741263029,-5200,3.18822808093194,31,1.89024390243902,-31,-1.89024390243902,12,-0.731707317073171,-49,0.21304347826087,36,0.156521739130435,124,-0.604878048780488,
10631478,957.03125,3456,-2.11894543225015,-14880,-9.12323727774372,-5120,3.13917841814837,25,1.70731707317073,-28,-1.52439024390244,16,-0.975609756097561,-47,0.204347826086957,40,0.173913043478261,122,-0.595121951219512,
10632118,976.5625,3424,-2.09932556713673,-14816,-9.08399754751686,-5152,3.1587982832618,30,1.58536585365854,-26,-1.82926829268293,20,-1.21951219512195,-48,0.208695652173913,33,0.143478260869565,122,-0.595121951219512,
10632758,996.09375,3456,-2.11894543225015,-14896,-9.13304721030043,-5120,3.13917841814837,16,1.58536585365854,-26,-0.975609756097561,20,-1.21951219512195,-49,0.21304347826087,37,0.160869565217391,124,-0.604878048780488,
10633398,1015.625,3488,-2.13856529736358,-14784,-9.06437768240343,-5104,3.12936848559166,-4,1.28048780487805,-21,0.24390243902439,21,-1.28048780487805,-48,0.208695652173913,40,0.173913043478261,125,-0.609756097560976,
10634038,1035.15625,3456,-2.11894543225015,-14736,-9.03494788473329,-4992,3.06069895769467,-21,0.365853658536585,-6,1.28048780487805,21,-1.28048780487805,-46,0.2,34,0.147826086956522,124,-0.604878048780488,
10634678,1054.6875,3584,-2.19742489270386,-14768,-9.05456774984672,-4864,2.98221949724096,-28,-0.487804878048781,8,1.70731707317073,23,-1.40243902439024,-48,0.208695652173913,34,0.147826086956522,124,-0.604878048780488,
10635318,1074.21875,3568,-2.18761496014715,-14768,-9.05456774984672,-4864,2.98221949724096,-23,-1.28048780487805,21,1.40243902439024,27,-1.64634146341463,-48,0.208695652173913,42,0.182608695652174,123,-0.6,
10635958,1093.75,3536,-2.16799509503372,-14720,-9.02513795217658,-4832,2.96259963212753,-38,-2.37804878048781,39,2.31707317073171,27,-1.64634146341463,-50,0.217391304347826,39,0.169565217391304,122,-0.595121951219512,
10636598,1113.28125,3584,-2.19742489270386,-14688,-9.00551808706315,-4800,2.9429797670141,-50,-3.47560975609756,57,3.04878048780488,19,-1.15853658536585,-47,0.204347826086957,34,0.147826086956522,124,-0.604878048780488,
10637238,1132.8125,3632,-2.226854690374,-14704,-9.01532801961987,-4800,2.9429797670141,-45,-4.32926829268293,71,2.74390243902439,12,-0.731707317073171,-46,0.2,35,0.152173913043478,125,-0.609756097560976,
10637878,1152.34375,3600,-2.20723482526058,-14640,-8.97608828939301,-4912,3.0116492949111,-40,-4.87804878048781,80,2.4390243902439,8,-0.487804878048781,-46,0.2,39,0.169565217391304,122,-0.595121951219512,
10638518,1171.875,3616,-2.21704475781729,-14720,-9.02513795217658,-4928,3.02145922746781,-43,-5.18292682926829,85,2.6219512195122,2,-0.121951219512195,-46,0.2,38,0.165217391304348,122,-0.595121951219512,
10639158,1191.40625,3616,-2.21704475781729,-14800,-9.07418761496015,-5024,3.08031882280809,-50,-5.60975609756098,92,3.04878048780488,-3,0.182926829268293,-48,0.208695652173913,37,0.160869565217391,122,-0.595121951219512,
10639798,1210.9375,3680,-2.25628448804414,-14912,-9.14285714285714,-5008,3.07050889025138,-62,-5.48780487804878,90,3.78048780487805,-5,0.304878048780488,-49,0.21304347826087,39,0.169565217391304,121,-0.590243902439024,
10640438,1230.46875,3840,-2.35438381361128,-15008,-9.20171673819742,-5104,3.12936848559166,-52,-5.67073170731707,93,3.17073170731707,-13,0.792682926829268,-47,0.204347826086957,36,0.156521739130435,122,-0.595121951219512,
10641078,1250,3936,-2.41324340895156,-15264,-9.35867565910484,-5168,3.16860821581852,-7,-5.42682926829268,89,0.426829268292683,-13,0.792682926829268,-48,0.208695652173913,36,0.156521739130435,121,-0.590243902439024,
10641718,1269.53125,3872,-2.37400367872471,-15344,-9.40772532188841,-5312,3.25689760882894,41,-5,82,-2.5,-9,0.548780487804878,-47,0.204347826086957,37,0.160869565217391,121,-0.590243902439024,
10642358,1289.0625,3840,-2.35438381361128,-15344,-9.40772532188841,-5392,3.30594727161251,54,-3.59756097560976,59,-3.29268292682927,-20,1.21951219512195,-49,0.21304347826087,41,0.178260869565217,121,-0.590243902439024,
10642998,1308.59375,3824,-2.34457388105457,-15408,-9.44696505211527,-5408,3.31575720416922,40,-2.07317073170732,34,-2.4390243902439,-25,1.52439024390244,-48,0.208695652173913,35,0.152173913043478,121,-0.590243902439024,
10643638,1328.125,3824,-2.34457388105457,-15456,-9.47639484978541,-5392,3.30594727161251,51,-0.487804878048781,8,-3.10975609756098,-34,2.07317073170732,-47,0.204347826086957,36,0.156521739130435,122,-0.595121951219512,
10644278,1347.65625,3728,-2.28571428571429,-15520,-9.51563458001226,-5408,3.31575720416922,65,1.46341463414634,-24,-3.96341463414634,-40,2.4390243902439,-48,0.208695652173913,40,0.173913043478261,121,-0.590243902439024,
10644918,1367.1875,3616,-2.21704475781729,-15392,-9.43715511955855,-5344,3.27651747394237,51,2.86585365853659,-47,-3.10975609756098,-45,2.74390243902439,-48,0.208695652173913,38,0.165217391304348,121,-0.590243902439024,
10645558,1386.71875,3440,-2.10913549969344,-15296,-9.37829552421827,-5216,3.19803801348866,9,4.45121951219512,-73,-0.548780487804878,-53,3.23170731707317,-48,0.208695652173913,42,0.182608695652174,121,-0.590243902439024,
10646198,1406.25,3520,-2.15818516247701,-15200,-9.31943592887799,-5056,3.09993868792152,-22,5.54878048780488,-91,1.34146341463415,-57,3.47560975609756,-49,0.21304347826087,44,0.191304347826087,121,-0.590243902439024,
10646838,1425.78125,3520,-2.15818516247701,-15056,-9.23114653586757,-4960,3.04107909258124,-15,6.64634146341464,-109,0.914634146341463,-57,3.47560975609756,-48,0.208695652173913,39,0.169565217391304,119,-0.580487804878049,
10647478,1445.3125,3408,-2.08951563458001,-15072,-9.24095646842428,-4928,3.02145922746781,3,6.82926829268293,-112,-0.182926829268293,-47,2.86585365853659,-49,0.21304347826087,39,0.169565217391304,120,-0.585365853658537,
10648118,1464.84375,3456,-2.11894543225015,-15040,-9.22133660331085,-4848,2.97240956468424,6,7.07317073170732,-116,-0.365853658536585,-37,2.25609756097561,-49,0.21304347826087,38,0.165217391304348,122,-0.595121951219512,
10648758,1484.375,3472,-2.12875536480687,-15008,-9.20171673819742,-4848,2.97240956468424,8,6.95121951219512,-114,-0.487804878048781,-29,1.76829268292683,-49,0.21304347826087,37,0.160869565217391,122,-0.595121951219512,
10649398,1503.90625,3504,-2.14837522992029,-14960,-9.17228694052728,-4736,2.90374003678725,21,6.76829268292683,-111,-1.28048780487805,-18,1.09756097560976,-48,0.208695652173913,39,0.169565217391304,121,-0.590243902439024,
10650038,1523.4375,3408,-2.08951563458001,-15008,-9.20171673819742,-4672,2.86450030656039,35,6.34146341463415,-104,-2.13414634146341,-14,0.853658536585366,-48,0.208695652173913,38,0.165217391304348,121,-0.590243902439024,
10650678,1542.96875,3440,-2.10913549969344,-14960,-9.17228694052728,-4736,2.90374003678725,39,5.91463414634146,-97,-2.37804878048781,-14,0.853658536585366,-49,0.21304347826087,35,0.152173913043478,122,-0.595121951219512,
10651318,1562.5,3408,-2.08951563458001,-14944,-9.16247700797057,-4720,2.89393010423053,37,5.30487804878049,-87,-2.25609756097561,-13,0.792682926829268,-48,0.208695652173913,37,0.160869565217391,122,-0.595121951219512,
10651958,1582.03125,3472,-2.12875536480687,-14960,-9.17228694052728,-4672,2.86450030656039,37,4.75609756097561,-78,-2.25609756097561,-8,0.487804878048781,-47,0.204347826086957,37,0.160869565217391,122,-0.595121951219512,
10652598,1601.5625,3488,-2.13856529736358,-14992,-9.19190680564071,-4704,2.88412017167382,38,4.14634146341463,-68,-2.31707317073171,4,-0.24390243902439,-49,0.21304347826087,37,0.160869565217391,121,-0.590243902439024,
10653238,1621.09375,3472,-2.12875536480687,-14960,-9.17228694052728,-4688,2.87431023911711,37,4.02439024390244,-66,-2.25609756097561,9,-0.548780487804878,-48,0.208695652173913,40,0.173913043478261,121,-0.590243902439024,
10653878,1640.625,3504,-2.14837522992029,-14960,-9.17228694052728,-4656,2.85469037400368,37,3.59756097560976,-59,-2.25609756097561,16,-0.975609756097561,-49,0.21304347826087,41,0.178260869565217,122,-0.595121951219512,
10654518,1660.15625,3552,-2.17780502759044,-14960,-9.17228694052728,-4640,2.84488044144697,31,3.35365853658537,-55,-1.89024390243902,17,-1.03658536585366,-48,0.208695652173913,36,0.156521739130435,123,-0.6,
10655158,1679.6875,3600,-2.20723482526058,-14992,-9.19190680564071,-4704,2.88412017167382,26,3.10975609756098,-51,-1.58536585365854,16,-0.975609756097561,-47,0.204347826086957,36,0.156521739130435,122,-0.595121951219512,
10655798,1699.21875,3664,-2.24647455548743,-15072,-9.24095646842428,-4672,2.86450030656039,31,2.86585365853659,-47,-1.89024390243902,13,-0.792682926829268,-47,0.204347826086957,39,0.169565217391304,121,-0.590243902439024,
10656438,1718.75,3600,-2.20723482526058,-15040,-9.22133660331085,-4704,2.88412017167382,36,2.92682926829268,-48,-2.19512195121951,10,-0.609756097560976,-46,0.2,40,0.173913043478261,120,-0.585365853658537,
10657078,1738.28125,3616,-2.21704475781729,-15088,-9.25076640098099,-4736,2.90374003678725,21,2.86585365853659,-47,-1.28048780487805,8,-0.487804878048781,-47,0.204347826086957,42,0.182608695652174,121,-0.590243902439024,
10657718,1757.8125,3632,-2.226854690374,-15072,-9.24095646842428,-4800,2.9429797670141,6,2.5609756097561,-42,-0.365853658536585,2,-0.121951219512195,-48,0.208695652173913,38,0.165217391304348,122,-0.595121951219512,
10658358,1777.34375,3632,-2.226854690374,-14960,-9.17228694052728,-4688,2.87431023911711,4,2.37804878048781,-39,-0.24390243902439,-3,0.182926829268293,-47,0.204347826086957,40,0.173913043478261,121,-0.590243902439024,
10658998,1796.875,3600,-2.20723482526058,-14928,-9.15266707541386,-4688,2.87431023911711,5,2.37804878048781,-39,-0.304878048780488,-6,0.365853658536585,-47,0.204347826086957,38,0.165217391304348,121,-0.590243902439024,
10659638,1816.40625,3648,-2.23666462293072,-14976,-9.182096873084,-4736,2.90374003678725,-3,2.01219512195122,-33,0.182926829268293,-6,0.365853658536585,-48,0.208695652173913,37,0.160869565217391,122,-0.595121951219512,
10660278,1835.9375,3680,-2.25628448804414,-15024,-9.21152667075414,-4768,2.92335990190067,-4,2.01219512195122,-33,0.24390243902439,-12,0.731707317073171,-49,0.21304347826087,38,0.165217391304348,120,-0.585365853658537,
10660918,1855.46875,3712,-2.27590435315757,-15088,-9.25076640098099,-4800,2.9429797670141,2,1.82926829268293,-30,-0.121951219512195,-17,1.03658536585366,-47,0.204347826086957,42,0.182608695652174,121,-0.590243902439024,
10661558,1875,3584,-2.19742489270386,-15136,-9.28019619865113,-4816,2.95278969957082,-3,1.82926829268293,-30,0.182926829268293,-15,0.914634146341463,-47,0.204347826086957,36,0.156521739130435,121,-0.590243902439024,
10662198,1894.53125,3584,-2.19742489270386,-15152,-9.29000613120785,-4896,3.00183936235438,-18,1.89024390243902,-31,1.09756097560976,-19,1.15853658536585,-49,0.21304347826087,41,0.178260869565217,121,-0.590243902439024,
10662838,1914.0625,3584,-2.19742489270386,-14992,-9.19190680564071,-4944,3.03126916002452,-21,2.01219512195122,-33,1.28048780487805,-20,1.21951219512195,-50,0.217391304347826,40,0.173913043478261,121,-0.590243902439024,
10663478,1933.59375,3616,-2.21704475781729,-15024,-9.21152667075414,-4832,2.96259963212753,-22,2.37804878048781,-39,1.34146341463415,-26,1.58536585365854,-47,0.204347826086957,40,0.173913043478261,119,-0.580487804878049,
10664118,1953.125,3648,-2.23666462293072,-15056,-9.23114653586757,-4848,2.97240956468424,-18,2.25609756097561,-37,1.09756097560976,-21,1.28048780487805,-49,0.21304347826087,41,0.178260869565217,120,-0.585365853658537,
10664758,1972.65625,3536,-2.16799509503372,-14928,-9.15266707541386,-4928,3.02145922746781,-6,2.37804878048781,-39,0.365853658536585,-23,1.40243902439024,-47,0.204347826086957,39,0.169565217391304,123,-0.6,
10665398,1992.1875,3488,-2.13856529736358,-14944,-9.16247700797057,-4880,2.99202942979767,-25,2.6219512195122,-43,1.52439024390244,-20,1.21951219512195,-48,0.208695652173913,41,0.178260869565217,121,-0.590243902439024,
10666038,2011.71875,3600,-2.20723482526058,-14976,-9.182096873084,-4912,3.0116492949111,-44,2.19512195121951,-36,2.68292682926829,-18,1.09756097560976,-47,0.204347826086957,36,0.156521739130435,122,-0.595121951219512,
10666678,2031.25,3696,-2.26609442060086,-15088,-9.25076640098099,-4944,3.03126916002452,-18,2.01219512195122,-33,1.09756097560976,-9,0.548780487804878,-47,0.204347826086957,40,0.173913043478261,120,-0.585365853658537,
10667318,2050.78125,3600,-2.20723482526058,-15136,-9.28019619865113,-4960,3.04107909258124,17,1.95121951219512,-32,-1.03658536585366,-4,0.24390243902439,-46,0.2,40,0.173913043478261,120,-0.585365853658537,
10667958,2070.3125,3568,-2.18761496014715,-15040,-9.22133660331085,-5040,3.09012875536481,13,1.70731707317073,-28,-0.792682926829268,-5,0.304878048780488,-48,0.208695652173913,36,0.156521739130435,121,-0.590243902439024,
10668598,2089.84375,3504,-2.14837522992029,-15008,-9.20171673819742,-5040,3.09012875536481,-9,1.64634146341463,-27,0.548780487804878,-13,0.792682926829268,-49,0.21304347826087,38,0.165217391304348,122,-0.595121951219512,
10669238,2109.375,3568,-2.18761496014715,-15072,-9.24095646842428,-5120,3.13917841814837,-10,1.70731707317073,-28,0.609756097560976,-9,0.548780487804878,-48,0.208695652173913,40,0.173913043478261,121,-0.590243902439024,
10669878,2128.90625,3616,-2.21704475781729,-15152,-9.29000613120785,-5200,3.18822808093194,-1,2.37804878048781,-39,0.0609756097560976,-5,0.304878048780488,-46,0.2,38,0.165217391304348,121,-0.590243902439024,
10670518,2148.4375,3520,-2.15818516247701,-15120,-9.27038626609442,-5280,3.23727774371551,2,3.10975609756098,-51,-0.121951219512195,6,-0.365853658536585,-48,0.208695652173913,36,0.156521739130435,122,-0.595121951219512,
10671158,2167.96875,3584,-2.19742489270386,-15168,-9.29981606376456,-5344,3.27651747394237,-13,3.96341463414634,-65,0.792682926829268,10,-0.609756097560976,-48,0.208695652173913,37,0.160869565217391,122,-0.595121951219512,
10671798,2187.5,3712,-2.27590435315757,-15200,-9.31943592887799,-5328,3.26670754138565,-1,4.75609756097561,-78,0.0609756097560976,10,-0.609756097560976,-47,0.204347826086957,41,0.178260869565217,120,-0.585365853658537,
10672438,2207.03125,3728,-2.28571428571429,-15168,-9.29981606376456,-5296,3.24708767627223,20,5.79268292682927,-95,-1.21951219512195,9,-0.548780487804878,-45,0.195652173913043,35,0.152173913043478,121,-0.590243902439024,
10673078,2226.5625,3744,-2.295524218271,-15072,-9.24095646842428,-5344,3.27651747394237,57,6.58536585365854,-108,-3.47560975609756,0,0,-48,0.208695652173913,42,0.182608695652174,121,-0.590243902439024,
10673718,2246.09375,3712,-2.27590435315757,-15088,-9.25076640098099,-5296,3.24708767627223,89,6.95121951219512,-114,-5.42682926829268,-11,0.670731707317073,-48,0.208695652173913,40,0.173913043478261,122,-0.595121951219512,
10674358,2265.625,3664,-2.24647455548743,-15136,-9.28019619865113,-5440,3.33537706928265,123,7.80487804878049,-128,-7.5,-7,0.426829268292683,-47,0.204347826086957,36,0.156521739130435,122,-0.595121951219512,
10674998,2285.15625,3616,-2.21704475781729,-15104,-9.26057633353771,-5744,3.52176578786021,127,9.45121951219512,-155,-7.74390243902439,-8,0.487804878048781,-48,0.208695652173913,36,0.156521739130435,123,-0.6,
10675638,2304.6875,3056,-1.87369711833231,-15216,-9.3292458614347,-6192,3.79644389944819,114,12.3170731707317,-202,-6.95121951219512,6,-0.365853658536585,-47,0.204347826086957,41,0.178260869565217,120,-0.585365853658537,
10676278,2324.21875,2224,-1.3635806253832,-15184,-9.30962599632127,-6544,4.01226241569589,-378,19.2682926829268,-316,23.0487804878049,56,-3.41463414634146,-46,0.2,41,0.178260869565217,121,-0.590243902439024,
10676918,2343.75,2672,-1.63825873697118,-15440,-9.46658491722869,-7408,4.54199877375843,-552,23.0487804878049,-378,33.6585365853659,57,-3.47560975609756,-47,0.204347826086957,36,0.156521739130435,123,-0.6,
10677558,2363.28125,3600,-2.20723482526058,-15440,-9.46658491722869,-8944,5.48375229920294,-358,27.9268292682927,-458,21.8292682926829,140,-8.53658536585366,-47,0.204347826086957,35,0.152173913043478,125,-0.609756097560976,
10678198,2382.8125,3648,-2.23666462293072,-15680,-9.6137339055794,-11168,6.84733292458614,-192,39.0853658536585,-641,11.7073170731707,244,-14.8780487804878,-48,0.208695652173913,38,0.165217391304348,123,-0.6,
10678838,2402.34375,3824,-2.34457388105457,-16032,-9.8295524218271,-13456,8.2501532801962,-21,51.3414634146341,-842,1.28048780487805,350,-21.3414634146341,-47,0.204347826086957,37,0.160869565217391,125,-0.609756097560976,
10679478,2421.875,4400,-2.69773145309626,-16720,-10.2513795217658,-15056,9.23114653586757,287,66.7682926829268,-1095,-17.5,538,-32.8048780487805,-49,0.21304347826087,33,0.143478260869565,128,-0.624390243902439,
10680118,2441.40625,3696,-2.26609442060086,-17440,-10.6928264868179,-16144,9.89822194972409,376,83.109756097561,-1363,-22.9268292682927,673,-41.0365853658537,-46,0.2,31,0.134782608695652,130,-0.634146341463415,
10680758,2460.9375,2576,-1.5793991416309,-17952,-11.0067443286327,-16640,10.2023298589822,128,99.2073170731707,-1627,-7.80487804878049,740,-45.1219512195122,-46,0.2,36,0.156521739130435,129,-0.629268292682927,
10681398,2480.46875,2240,-1.37339055793991,-18496,-11.340282035561,-16544,10.1434702636419,-187,112.987804878049,-1853,11.4024390243902,729,-44.4512195121951,-42,0.182608695652174,28,0.121739130434783,132,-0.64390243902439,
10682038,2500,3232,-1.98160637645616,-19168,-11.752299202943,-16304,9.99632127529123,-233,126.524390243902,-2075,14.2073170731707,665,-40.5487804878049,-43,0.18695652173913,24,0.104347826086957,136,-0.663414634146342,
10682678,2519.53125,4368,-2.67811158798283,-19632,-12.0367872470877,-15984,9.80012262415696,-174,138.59756097561,-2273,10.609756097561,518,-31.5853658536585,-42,0.182608695652174,21,0.091304347826087,139,-0.678048780487805,
10683318,2539.0625,4928,-3.02145922746781,-19440,-11.9190680564071,-15216,9.3292458614347,-150,148.963414634146,-2443,9.14634146341463,266,-16.219512195122,-40,0.173913043478261,18,0.0782608695652174,140,-0.682926829268293,
10683958,2558.59375,5312,-3.25689760882894,-18912,-11.5953402820356,-14160,8.6817903126916,-96,155.365853658537,-2548,5.85365853658537,40,-2.4390243902439,-40,0.173913043478261,12,0.0521739130434783,145,-0.707317073170732,
10684598,2578.125,5728,-3.51195585530349,-18608,-11.408951563458,-13584,8.32863274064991,35,160.365853658537,-2630,-2.13414634146341,-203,12.3780487804878,-42,0.182608695652174,14,0.0608695652173913,149,-0.726829268292683,
10685238,2597.65625,5920,-3.62967504598406,-18032,-11.0557939914163,-13264,8.13243408951563,151,165.548780487805,-2715,-9.20731707317073,-377,22.9878048780488,-42,0.182608695652174,7,0.0304347826086957,152,-0.741463414634146,
10685878,2617.1875,5744,-3.52176578786021,-17088,-10.4770079705702,-12576,7.71060698957695,223,167.317073170732,-2744,-13.5975609756098,-524,31.9512195121951,-40,0.173913043478261,2,0.00869565217391304,154,-0.751219512195122,
10686518,2636.71875,5760,-3.53157572041692,-15936,-9.77069282648682,-12080,7.40649908031882,370,167.621951219512,-2749,-22.5609756097561,-612,37.3170731707317,-40,0.173913043478261,-3,-0.0130434782608696,156,-0.760975609756098,
10687158,2656.25,5200,-3.18822808093194,-15104,-9.26057633353771,-11680,7.16125076640098,416,166.829268292683,-2736,-25.3658536585366,-662,40.3658536585366,-41,0.178260869565217,-6,-0.0260869565217391,157,-0.765853658536585,
10687798,2675.78125,4880,-2.99202942979767,-13968,-8.56407112201104,-11312,6.93562231759657,451,164.268292682927,-2694,-27.5,-695,42.3780487804878,-38,0.165217391304348,-10,-0.0434782608695652,159,-0.775609756097561,
10688438,2695.3125,4608,-2.82526057633354,-13024,-7.98528510116493,-11088,6.79828326180257,527,160,-2624,-32.1341463414634,-722,44.0243902439024,-39,0.169565217391304,-16,-0.0695652173913043,161,-0.785365853658537,
10689078,2714.84375,4064,-2.49172286940527,-12128,-7.43592887798896,-10848,6.65113427345187,527,156.158536585366,-2561,-32.1341463414634,-752,45.8536585365854,-37,0.160869565217391,-16,-0.0695652173913043,161,-0.785365853658537,
10689718,2734.375,3744,-2.295524218271,-11360,-6.96505211526671,-10528,6.4549356223176,512,150.30487804878,-2465,-31.219512195122,-761,46.4024390243902,-35,0.152173913043478,-22,-0.0956521739130435,161,-0.785365853658537,
10690358,2753.90625,3232,-1.98160637645616,-10096,-6.19006744328633,-10512,6.44512568976088,520,144.085365853659,-2363,-31.7073170731707,-773,47.1341463414634,-36,0.156521739130435,-27,-0.117391304347826,162,-0.790243902439024,
10690998,2773.4375,2784,-1.70692826486818,-8640,-5.29736358062538,-10704,6.56284488044145,523,137.012195121951,-2247,-31.890243902439,-783,47.7439024390244,-35,0.152173913043478,-34,-0.147826086956522,163,-0.795121951219512,
10691638,2792.96875,2688,-1.6480686695279,-7472,-4.58123850398528,-11168,6.84733292458614,652,129.69512195122,-2127,-39.7560975609756,-746,45.4878048780488,-32,0.139130434782609,-38,-0.165217391304348,163,-0.795121951219512,
10692278,2812.5,2352,-1.44206008583691,-6432,-3.9435928877989,-11760,7.21030042918455,849,123.841463414634,-2031,-51.7682926829268,-685,41.7682926829268,-31,0.134782608695652,-40,-0.173913043478261,161,-0.785365853658537,
10692918,2832.03125,1680,-1.03004291845494,-5552,-3.40404659717964,-12048,7.3868792152054,1004,118.963414634146,-1951,-61.219512195122,-595,36.280487804878,-27,0.117391304347826,-45,-0.195652173913043,160,-0.780487804878049,
10693558,2851.5625,1056,-0.647455548743102,-4848,-2.97240956468424,-12128,7.43592887798896,1160,112.256097560976,-1841,-70.7317073170732,-484,29.5121951219512,-27,0.117391304347826,-48,-0.208695652173913,160,-0.780487804878049,
10694198,2871.09375,400,-0.245248313917842,-4112,-2.52115266707541,-12368,7.58307786633967,1309,107.926829268293,-1770,-79.8170731707317,-353,21.5243902439024,-21,0.091304347826087,-47,-0.204347826086957,158,-0.770731707317073,
10694838,2890.625,-288,0.176578786020846,-3520,-2.15818516247701,-12400,7.6026977314531,1419,102.865853658537,-1687,-86.5243902439024,-250,15.2439024390244,-18,0.0782608695652174,-55,-0.239130434782609,157,-0.765853658536585,
10695478,2910.15625,-800,0.490496627835684,-2896,-1.77559779276517,-11904,7.29858982219497,1555,96.0975609756098,-1576,-94.8170731707317,-168,10.2439024390244,-17,0.0739130434782609,-49,-0.21304347826087,150,-0.731707317073171,
10696118,2929.6875,-1680,1.03004291845494,-2448,-1.50091968117719,-11456,7.02391171060699,1638,90.6707317073171,-1487,-99.8780487804878,-60,3.65853658536585,-13,0.0565217391304348,-57,-0.247826086956522,151,-0.736585365853659,
10696758,2949.21875,-2752,1.68730839975475,-1808,-1.10852237890864,-11680,7.16125076640098,1496,84.4512195121951,-1385,-91.219512195122,20,-1.21951219512195,-9,0.0391304347826087,-59,-0.256521739130435,148,-0.721951219512195,
10697398,2968.75,-3376,2.06989576946658,-864,-0.529736358062538,-11584,7.1023911710607,1141,79.2073170731707,-1299,-69.5731707317073,78,-4.75609756097561,-6,0.0260869565217391,-64,-0.278260869565217,145,-0.707317073170732,
10698038,2988.28125,-3328,2.04046597179644,-272,-0.166768853464132,-11120,6.817903126916,753,72.9878048780488,-1197,-45.9146341463415,160,-9.75609756097561,-5,0.0217391304347826,-67,-0.291304347826087,143,-0.697560975609756,
10698678,3007.8125,-2864,1.75597792765175,480,0.29429797670141,-10976,6.72961373390558,526,64.5731707317073,-1059,-32.0731707317073,237,-14.4512195121951,-5,0.0217391304347826,-63,-0.273913043478261,140,-0.682926829268293,
10699318,3027.34375,-2032,1.24586143470264,1232,0.755364806866953,-10832,6.64132434089516,517,57.0121951219512,-935,-31.5243902439024,337,-20.5487804878049,-4,0.0173913043478261,-69,-0.3,140,-0.682926829268293,
10699958,3046.875,-1680,1.03004291845494,1552,0.951563458001226,-10720,6.57265481299816,593,48.719512195122,-799,-36.1585365853659,389,-23.719512195122,-2,0.00869565217391304,-68,-0.295652173913043,139,-0.678048780487805,
10700598,3066.40625,-1536,0.941753525444513,1920,1.17719190680564,-10912,6.69037400367872,695,41.7073170731707,-684,-42.3780487804878,416,-25.3658536585366,0,0,-70,-0.304347826086957,137,-0.668292682926829,
10701238,3085.9375,-1600,0.980993255671367,2144,1.31453096259963,-11024,6.75904353157572,714,36.6463414634146,-601,-43.5365853658537,366,-22.3170731707317,1,-0.00434782608695652,-72,-0.31304347826087,134,-0.653658536585366,
10701878,3105.46875,-1872,1.1477621091355,2320,1.42244022072348,-11216,6.87676272225628,703,34.2073170731707,-561,-42.8658536585366,283,-17.2560975609756,0,0,-75,-0.326086956521739,135,-0.658536585365854,
10702518,3125,-2688,1.6480686695279,2672,1.63825873697118,-11376,6.97486204782342,618,31.219512195122,-512,-37.6829268292683,194,-11.8292682926829,0,0,-75,-0.326086956521739,132,-0.64390243902439,
10703158,3144.53125,-3264,2.00122624156959,2928,1.7952176578786,-11296,6.92581238503985,364,28.9634146341463,-475,-22.1951219512195,88,-5.36585365853659,0,0,-78,-0.339130434782609,131,-0.639024390243902,
10703798,3164.0625,-3664,2.24647455548743,3088,1.89331698344574,-11392,6.98467198038013,116,25,-410,-7.07317073170732,32,-1.95121951219512,3,-0.0130434782608696,-79,-0.343478260869565,130,-0.634146341463415,
10704438,3183.59375,-4640,2.84488044144697,3312,2.03065603923973,-11552,7.08277130594727,-209,21.7073170731707,-356,12.7439024390244,57,-3.47560975609756,2,-0.00869565217391304,-81,-0.352173913043478,130,-0.634146341463415,
10705078,3203.125,-5632,3.45309625996321,3520,2.15818516247701,-11216,6.87676272225628,-849,15.8536585365854,-260,51.7682926829268,132,-8.04878048780488,2,-0.00869565217391304,-77,-0.334782608695652,131,-0.639024390243902,
10705718,3222.65625,-3440,2.10913549969344,3440,2.10913549969344,-11360,6.96505211526671,-1405,7.92682926829268,-130,85.6707317073171,139,-8.47560975609756,1,-0.00434782608695652,-82,-0.356521739130435,131,-0.639024390243902,
10706358,3242.1875,-576,0.353157572041692,3408,2.08951563458001,-12000,7.35744941753525,-1225,3.59756097560976,-59,74.6951219512195,53,-3.23170731707317,-5,0.0217391304347826,-82,-0.356521739130435,134,-0.653658536585366,
10706998,3261.71875,-848,0.519926425505825,3840,2.35438381361128,-12544,7.69098712446352,-806,-1.03658536585366,17,49.1463414634146,-11,0.670731707317073,-4,0.0173913043478261,-77,-0.334782608695652,136,-0.663414634146342,
10707638,3281.25,-896,0.549356223175966,4032,2.47210300429185,-13328,8.17167381974249,-618,-4.57317073170732,75,37.6829268292683,-106,6.46341463414634,-6,0.0260869565217391,-78,-0.339130434782609,137,-0.668292682926829,
10708278,3300.78125,-1456,0.892703862660944,4048,2.48191293684856,-14032,8.60331085223789,-405,-5.36585365853659,88,24.6951219512195,-134,8.17073170731707,-5,0.0217391304347826,-82,-0.356521739130435,139,-0.678048780487805,
10708918,3320.3125,-2080,1.27529123237278,3984,2.4426732066217,-14640,8.97608828939301,-421,-6.82926829268293,112,25.6707317073171,-167,10.1829268292683,-9,0.0391304347826087,-81,-0.352173913043478,140,-0.682926829268293,
10709558,3339.84375,-1904,1.16738197424893,3984,2.4426732066217,-15680,9.6137339055794,-502,-6.58536585365854,108,30.609756097561,-202,12.3170731707317,-6,0.0260869565217391,-78,-0.339130434782609,138,-0.673170731707317,
10710198,3359.375,-912,0.559166155732679,3856,2.364193746168,-16288,9.98651134273452,-491,-6.40243902439024,105,29.9390243902439,-245,14.9390243902439,-7,0.0304347826086957,-75,-0.326086956521739,140,-0.682926829268293,
10710838,3378.90625,-864,0.529736358062538,3600,2.20723482526058,-16384,10.0453709380748,-204,-5.85365853658537,96,12.4390243902439,-223,13.5975609756098,-7,0.0304347826086957,-79,-0.343478260869565,142,-0.692682926829268,
10711478,3398.4375,-1888,1.15757204169221,3632,2.226854690374,-16528,10.1336603310852,-115,-5.73170731707317,94,7.01219512195122,-198,12.0731707317073,-8,0.0347826086956522,-77,-0.334782608695652,143,-0.697560975609756,
10712118,3417.96875,-2224,1.3635806253832,3872,2.37400367872471,-16512,10.1238503985285,-335,-4.63414634146342,76,20.4268292682927,-190,11.5853658536585,-7,0.0304347826086957,-74,-0.321739130434783,141,-0.68780487804878,
10712758,3437.5,-1472,0.902513795217658,3632,2.226854690374,-16528,10.1336603310852,-534,-4.20731707317073,69,32.5609756097561,-199,12.1341463414634,-9,0.0391304347826087,-75,-0.326086956521739,142,-0.692682926829268,
10713398,3457.03125,-1344,0.824034334763949,3424,2.09932556713673,-16368,10.0355610055181,-599,-3.41463414634146,56,36.5243902439024,-198,12.0731707317073,-10,0.0434782608695652,-74,-0.321739130434783,143,-0.697560975609756,
10714038,3476.5625,-1808,1.10852237890864,3456,2.11894543225015,-15792,9.6824034334764,-754,-3.59756097560976,59,45.9756097560976,-174,10.609756097561,-12,0.0521739130434783,-72,-0.31304347826087,144,-0.702439024390244,
10714678,3496.09375,-1664,1.02023298589822,3552,2.17780502759044,-15568,9.5450643776824,-964,-6.34146341463415,104,58.7804878048781,-140,8.53658536585366,-11,0.0478260869565217,-76,-0.330434782608696,145,-0.707317073170732,
10715318,3515.625,64,-0.0392397302268547,3504,2.14837522992029,-15744,9.65297363580625,-1022,-6.76829268292683,111,62.3170731707317,-137,8.35365853658537,-13,0.0565217391304348,-76,-0.330434782608696,148,-0.721951219512195,
10715958,3535.15625,1424,-0.873083997547517,3648,2.23666462293072,-15888,9.74126302881668,-622,-6.15853658536585,101,37.9268292682927,-115,7.01219512195122,-15,0.0652173913043478,-70,-0.304347826086957,149,-0.726829268292683,
10716598,3554.6875,1232,-0.755364806866953,3584,2.19742489270386,-16240,9.95708154506438,-146,-6.34146341463415,104,8.90243902439025,-93,5.67073170731707,-16,0.0695652173913043,-72,-0.31304347826087,149,-0.726829268292683,
10717238,3574.21875,624,-0.382587369711833,3264,2.00122624156959,-16320,10.0061312078479,110,-4.9390243902439,81,-6.70731707317073,-95,5.79268292682927,-15,0.0652173913043478,-75,-0.326086956521739,150,-0.731707317073171,
10717878,3593.75,224,-0.137339055793991,3216,1.97179644389945,-16336,10.0159411404047,221,-4.57317073170732,75,-13.4756097560976,-99,6.03658536585366,-15,0.0652173913043478,-69,-0.3,149,-0.726829268292683,
10718518,3613.28125,32,-0.0196198651134273,3072,1.88350705088903,-16576,10.1630901287554,255,-3.71951219512195,61,-15.5487804878049,-115,7.01219512195122,-15,0.0652173913043478,-70,-0.304347826086957,147,-0.717073170731707,
10719158,3632.8125,-272,0.166768853464132,3024,1.85407725321888,-16576,10.1630901287554,280,-2.68292682926829,44,-17.0731707317073,-111,6.76829268292683,-13,0.0565217391304348,-69,-0.3,147,-0.717073170731707,
10719798,3652.34375,-176,0.10790925812385,2832,1.73635806253832,-16752,10.2709993868792,269,-2.68292682926829,44,-16.4024390243902,-106,6.46341463414634,-12,0.0521739130434783,-74,-0.321739130434783,150,-0.731707317073171,
10720438,3671.875,-144,0.088289393010423,2720,1.66768853464132,-16704,10.2415695892091,303,-1.03658536585366,17,-18.4756097560976,-99,6.03658536585366,-13,0.0565217391304348,-72,-0.31304347826087,147,-0.717073170731707,
10721078,3691.40625,-544,0.333537706928265,2704,1.65787860208461,-16704,10.2415695892091,326,0.365853658536585,-6,-19.8780487804878,-87,5.30487804878049,-11,0.0478260869565217,-69,-0.3,147,-0.717073170731707,
10721718,3710.9375,-816,0.500306560392397,2800,1.71673819742489,-16576,10.1630901287554,266,1.89024390243902,-31,-16.219512195122,-92,5.60975609756098,-10,0.0434782608695652,-68,-0.295652173913043,147,-0.717073170731707,
10722358,3730.46875,-912,0.559166155732679,2784,1.70692826486818,-16464,10.0944206008584,212,2.4390243902439,-40,-12.9268292682927,-107,6.52439024390244,-12,0.0521739130434783,-73,-0.317391304347826,147,-0.717073170731707,
10722998,3750,-928,0.568976088289393,2816,1.72654812998161,-16400,10.0551808706315,169,2.6219512195122,-43,-10.3048780487805,-107,6.52439024390244,-11,0.0478260869565217,-73,-0.317391304347826,147,-0.717073170731707,
10723638,3769.53125,-736,0.451256897608829,2944,1.80502759043532,-16384,10.0453709380748,136,3.41463414634146,-56,-8.29268292682927,-116,7.07317073170732,-10,0.0434782608695652,-72,-0.31304347826087,146,-0.712195121951219,
10724278,3789.0625,-816,0.500306560392397,2944,1.80502759043532,-16336,10.0159411404047,200,4.02439024390244,-66,-12.1951219512195,-94,5.73170731707317,-11,0.0478260869565217,-73,-0.317391304347826,145,-0.707317073170732,
10724918,3808.59375,-1312,0.804414469650521,2928,1.7952176578786,-16368,10.0355610055181,261,4.39024390243902,-72,-15.9146341463415,-74,4.51219512195122,-11,0.0478260869565217,-70,-0.304347826086957,146,-0.712195121951219,
10725558,3828.125,-1616,0.990803188228081,2928,1.7952176578786,-16192,9.92765174739424,207,4.51219512195122,-74,-12.6219512195122,-59,3.59756097560976,-10,0.0434782608695652,-68,-0.295652173913043,145,-0.707317073170732,
10726198,3847.65625,-1184,0.725935009196812,2768,1.69711833231147,-16144,9.89822194972409,176,4.08536585365854,-67,-10.7317073170732,-52,3.17073170731707,-9,0.0391304347826087,-68,-0.295652173913043,143,-0.697560975609756,
10726838,3867.1875,-1328,0.814224402207235,2688,1.6480686695279,-16016,9.81974248927039,259,4.57317073170732,-75,-15.7926829268293,-31,1.89024390243902,-8,0.0347826086956522,-71,-0.308695652173913,144,-0.702439024390244,
10727478,3886.71875,-1632,1.00061312078479,2736,1.67749846719804,-15952,9.78050275904353,298,4.75609756097561,-78,-18.1707317073171,-23,1.40243902439024,-9,0.0391304347826087,-66,-0.28695652173913,142,-0.692682926829268,
10728118,3906.25,-1632,1.00061312078479,2608,1.59901900674433,-16064,9.84917228694053,268,4.75609756097561,-78,-16.3414634146341,-13,0.792682926829268,-8,0.0347826086956522,-69,-0.3,145,-0.707317073170732,
10728758,3925.78125,-1760,1.0790925812385,2720,1.66768853464132,-16064,9.84917228694053,249,5.54878048780488,-91,-15.1829268292683,-8,0.487804878048781,-7,0.0304347826086957,-68,-0.295652173913043,143,-0.697560975609756,
10729398,3945.3125,-1872,1.1477621091355,2768,1.69711833231147,-16016,9.81974248927039,194,6.03658536585366,-99,-11.8292682926829,-7,0.426829268292683,-6,0.0260869565217391,-72,-0.31304347826087,144,-0.702439024390244,
10730038,3964.84375,-1984,1.2164316370325,2944,1.80502759043532,-15920,9.7608828939301,113,5.54878048780488,-91,-6.89024390243902,6,-0.365853658536585,-7,0.0304347826086957,-69,-0.3,141,-0.68780487804878,
10730678,3984.375,-1792,1.09871244635193,3008,1.84426732066217,-15920,9.7608828939301,52,5.54878048780488,-91,-3.17073170731707,14,-0.853658536585366,-5,0.0217391304347826,-68,-0.295652173913043,142,-0.692682926829268,
10731318,4003.90625,-1392,0.853464132434089,3056,1.87369711833231,-15760,9.66278356836297,94,4.87804878048781,-80,-5.73170731707317,17,-1.03658536585366,-6,0.0260869565217391,-71,-0.308695652173913,143,-0.697560975609756,
10731958,4023.4375,-1344,0.824034334763949,3056,1.87369711833231,-15712,9.63335377069283,147,4.63414634146342,-76,-8.96341463414634,20,-1.21951219512195,-8,0.0347826086956522,-72,-0.31304347826087,142,-0.692682926829268,
10732598,4042.96875,-1664,1.02023298589822,3200,1.96198651134273,-15776,9.67259350091968,117,4.87804878048781,-80,-7.13414634146342,14,-0.853658536585366,-6,0.0260869565217391,-70,-0.304347826086957,140,-0.682926829268293,
10733238,4062.5,-1552,0.951563458001226,3088,1.89331698344574,-15680,9.6137339055794,87,5,-82,-5.30487804878049,6,-0.365853658536585,-5,0.0217391304347826,-71,-0.308695652173913,141,-0.68780487804878,
10733878,4082.03125,-1440,0.88289393010423,3136,1.92274678111588,-15760,9.66278356836297,114,5.0609756097561,-83,-6.95121951219512,2,-0.121951219512195,-6,0.0260869565217391,-70,-0.304347826086957,140,-0.682926829268293,
10734518,4101.5625,-1568,0.96137339055794,3136,1.92274678111588,-15840,9.71183323114654,126,5.36585365853659,-88,-7.68292682926829,3,-0.182926829268293,-4,0.0173913043478261,-69,-0.3,140,-0.682926829268293,
10735158,4121.09375,-1792,1.09871244635193,3136,1.92274678111588,-15872,9.73145309625996,102,5.36585365853659,-88,-6.21951219512195,4,-0.24390243902439,-5,0.0217391304347826,-73,-0.317391304347826,141,-0.68780487804878,
10735798,4140.625,-1824,1.11833231146536,3152,1.93255671367259,-15824,9.70202329858982,55,5.1219512195122,-84,-3.35365853658537,3,-0.182926829268293,-4,0.0173913043478261,-68,-0.295652173913043,141,-0.68780487804878,
10736438,4160.15625,-1776,1.08890251379522,3184,1.95217657878602,-15808,9.69221336603311,34,5.24390243902439,-86,-2.07317073170732,-4,0.24390243902439,-6,0.0260869565217391,-68,-0.295652173913043,141,-0.68780487804878,
10737078,4179.6875,-1552,0.951563458001226,3200,1.96198651134273,-15616,9.57449417535254,86,5,-82,-5.24390243902439,-14,0.853658536585366,-4,0.0173913043478261,-73,-0.317391304347826,141,-0.68780487804878,
10737718,4199.21875,-1968,1.20662170447578,3184,1.95217657878602,-15584,9.55487431023912,122,4.57317073170732,-75,-7.4390243902439,-1,0.0609756097560976,-5,0.0217391304347826,-70,-0.304347826086957,140,-0.682926829268293,
10738358,4218.75,-2128,1.30472103004292,3264,2.00122624156959,-15712,9.63335377069283,34,4.51219512195122,-74,-2.07317073170732,-1,0.0609756097560976,-4,0.0173913043478261,-70,-0.304347826086957,139,-0.678048780487805,
10738998,4238.28125,-2032,1.24586143470264,3312,2.03065603923973,-15584,9.55487431023912,-30,4.32926829268293,-71,1.82926829268293,2,-0.121951219512195,-7,0.0304347826086957,-68,-0.295652173913043,139,-0.678048780487805,
10739638,4257.8125,-1968,1.20662170447578,3312,2.03065603923973,-15504,9.50582464745555,-26,3.90243902439024,-64,1.58536585365854,-2,0.121951219512195,-7,0.0304347826086957,-72,-0.31304347826087,139,-0.678048780487805,
10740278,4277.34375,-1840,1.12814224402207,3248,1.99141630901288,-15552,9.53525444512569,-10,3.59756097560976,-59,0.609756097560976,4,-0.24390243902439,-5,0.0217391304347826,-70,-0.304347826086957,141,-0.68780487804878,
10740918,4296.875,-1760,1.0790925812385,3280,2.0110361741263,-15472,9.48620478234212,30,3.47560975609756,-57,-1.82926829268293,3,-0.182926829268293,-3,0.0130434782608696,-69,-0.3,140,-0.682926829268293,
10741558,4316.40625,-1984,1.2164316370325,3376,2.06989576946658,-15520,9.51563458001226,49,2.80487804878049,-46,-2.98780487804878,4,-0.24390243902439,-3,0.0130434782608696,-70,-0.304347826086957,140,-0.682926829268293,
10742198,4335.9375,-1984,1.2164316370325,3360,2.06008583690987,-15712,9.63335377069283,-1,2.6219512195122,-43,0.0609756097560976,0,0,-5,0.0217391304347826,-72,-0.31304347826087,140,-0.682926829268293,
10742838,4355.46875,-1904,1.16738197424893,3360,2.06008583690987,-15680,9.6137339055794,-30,2.37804878048781,-39,1.82926829268293,0,0,-5,0.0217391304347826,-73,-0.317391304347826,141,-0.68780487804878,
10743478,4375,-1968,1.20662170447578,3408,2.08951563458001,-15872,9.73145309625996,-33,2.19512195121951,-36,2.01219512195122,19,-1.15853658536585,-4,0.0173913043478261,-72,-0.31304347826087,140,-0.682926829268293,
10744118,4394.53125,-1648,1.01042305334151,3280,2.0110361741263,-16016,9.81974248927039,-58,2.25609756097561,-37,3.53658536585366,16,-0.975609756097561,-4,0.0173913043478261,-74,-0.321739130434783,140,-0.682926829268293,
10744758,4414.0625,-1664,1.02023298589822,3248,1.99141630901288,-15936,9.77069282648682,-17,2.5609756097561,-42,1.03658536585366,15,-0.914634146341463,-4,0.0173913043478261,-73,-0.317391304347826,141,-0.68780487804878,
10745398,4433.59375,-1872,1.1477621091355,3296,2.02084610668302,-15920,9.7608828939301,-44,2.86585365853659,-47,2.68292682926829,17,-1.03658536585366,-4,0.0173913043478261,-67,-0.291304347826087,141,-0.68780487804878,
10746038,4453.125,-1568,0.96137339055794,3248,1.99141630901288,-15952,9.78050275904353,-89,2.6219512195122,-43,5.42682926829268,5,-0.304878048780488,-4,0.0173913043478261,-73,-0.317391304347826,140,-0.682926829268293,
10746678,4472.65625,-1232,0.755364806866953,3232,1.98160637645616,-15872,9.73145309625996,-75,2.80487804878049,-46,4.57317073170732,-6,0.365853658536585,-4,0.0173913043478261,-72,-0.31304347826087,140,-0.682926829268293,
10747318,4492.1875,-1088,0.66707541385653,3232,1.98160637645616,-15824,9.70202329858982,11,3.10975609756098,-51,-0.670731707317073,-13,0.792682926829268,-6,0.0260869565217391,-70,-0.304347826086957,141,-0.68780487804878,
10747958,4511.71875,-1168,0.716125076640098,3184,1.95217657878602,-15712,9.63335377069283,116,3.17073170731707,-52,-7.07317073170732,-7,0.426829268292683,-6,0.0260869565217391,-70,-0.304347826086957,141,-0.68780487804878,
10748598,4531.25,-1568,0.96137339055794,3232,1.98160637645616,-15616,9.57449417535254,111,2.5609756097561,-42,-6.76829268292683,-20,1.21951219512195,-5,0.0217391304347826,-74,-0.321739130434783,141,-0.68780487804878,
10749238,4550.78125,-1616,0.990803188228081,3216,1.97179644389945,-15632,9.58430410790926,37,2.13414634146341,-35,-2.25609756097561,-41,2.5,-4,0.0173913043478261,-74,-0.321739130434783,142,-0.692682926829268,
10749878,4570.3125,-1472,0.902513795217658,3264,2.00122624156959,-15584,9.55487431023912,17,2.31707317073171,-38,-1.03658536585366,-64,3.90243902439024,-4,0.0173913043478261,-70,-0.304347826086957,139,-0.678048780487805,
10750518,4589.84375,-1488,0.912323727774372,3264,2.00122624156959,-15536,9.52544451256898,58,1.58536585365854,-26,-3.53658536585366,-73,4.45121951219512,-4,0.0173913043478261,-70,-0.304347826086957,140,-0.682926829268293,
10751158,4609.375,-1696,1.03985285101165,3184,1.95217657878602,-15360,9.41753525444513,78,1.03658536585366,-17,-4.75609756097561,-70,4.26829268292683,-4,0.0173913043478261,-71,-0.308695652173913,141,-0.68780487804878,
10751798,4628.90625,-1872,1.1477621091355,3248,1.99141630901288,-15328,9.3979153893317,39,-0.304878048780488,5,-2.37804878048781,-70,4.26829268292683,-5,0.0217391304347826,-70,-0.304347826086957,141,-0.68780487804878,
10752438,4648.4375,-1712,1.04966278356836,3312,2.03065603923973,-15296,9.37829552421827,17,-0.853658536585366,14,-1.03658536585366,-71,4.32926829268293,-3,0.0130434782608696,-69,-0.3,140,-0.682926829268293,
10753078,4667.96875,-1856,1.13795217657879,3184,1.95217657878602,-15280,9.36848559166156,54,-1.40243902439024,23,-3.29268292682927,-69,4.20731707317073,-3,0.0130434782608696,-71,-0.308695652173913,140,-0.682926829268293,
10753718,4687.5,-2208,1.35377069282649,3264,2.00122624156959,-15424,9.45677498467198,36,-1.89024390243902,31,-2.19512195121951,-72,4.39024390243902,-6,0.0260869565217391,-72,-0.31304347826087,140,-0.682926829268293,
10754358,4707.03125,-2336,1.4322501532802,3136,1.92274678111588,-15344,9.40772532188841,-52,-2.19512195121951,36,3.17073170731707,-70,4.26829268292683,-6,0.0260869565217391,-71,-0.308695652173913,141,-0.68780487804878,
10754998,4726.5625,-2080,1.27529123237278,3088,1.89331698344574,-15376,9.42734518700184,-123,-2.4390243902439,40,7.5,-74,4.51219512195122,-7,0.0304347826086957,-69,-0.3,140,-0.682926829268293,
10755638,4746.09375,-2048,1.25567136725935,3008,1.84426732066217,-15552,9.53525444512569,-96,-3.41463414634146,56,5.85365853658537,-58,3.53658536585366,-3,0.0130434782608696,-71,-0.308695652173913,140,-0.682926829268293,
10756278,4765.625,-2336,1.4322501532802,2992,1.83445738810546,-15808,9.69221336603311,-109,-3.71951219512195,61,6.64634146341464,-59,3.59756097560976,-5,0.0217391304347826,-66,-0.28695652173913,141,-0.68780487804878,
10756918,4785.15625,-2224,1.3635806253832,2800,1.71673819742489,-15888,9.74126302881668,-221,-3.04878048780488,50,13.4756097560976,-72,4.39024390243902,-5,0.0217391304347826,-66,-0.28695652173913,142,-0.692682926829268,
10757558,4804.6875,-1936,1.18700183936235,2656,1.62844880441447,-15936,9.77069282648682,-257,-2.25609756097561,37,15.6707317073171,-73,4.45121951219512,-6,0.0260869565217391,-65,-0.282608695652174,141,-0.68780487804878,
10758198,4824.21875,-1792,1.09871244635193,2608,1.59901900674433,-15968,9.79031269160024,-225,-1.34146341463415,22,13.719512195122,-64,3.90243902439024,-5,0.0217391304347826,-70,-0.304347826086957,143,-0.697560975609756,
10758838,4843.75,-1664,1.02023298589822,2592,1.58920907418761,-16192,9.92765174739424,-199,-1.15853658536585,19,12.1341463414634,-67,4.08536585365854,-6,0.0260869565217391,-67,-0.291304347826087,142,-0.692682926829268,
10759478,4863.28125,-1664,1.02023298589822,2592,1.58920907418761,-16304,9.99632127529123,-161,-0.731707317073171,12,9.81707317073171,-65,3.96341463414634,-5,0.0217391304347826,-67,-0.291304347826087,142,-0.692682926829268,
10760118,4882.8125,-1840,1.12814224402207,2656,1.62844880441447,-16224,9.94727161250766,-156,0.0609756097560976,-1,9.51219512195122,-67,4.08536585365854,-6,0.0260869565217391,-70,-0.304347826086957,144,-0.702439024390244,
10760758,4902.34375,-1568,0.96137339055794,2608,1.59901900674433,-16272,9.9767014101778,-175,0.24390243902439,-4,10.6707317073171,-66,4.02439024390244,-7,0.0304347826086957,-70,-0.304347826086957,144,-0.702439024390244,
10761398,4921.875,-1408,0.863274064990803,2544,1.55977927651747,-16208,9.93746167995095,-121,0.670731707317073,-11,7.37804878048781,-62,3.78048780487805,-6,0.0260869565217391,-66,-0.28695652173913,142,-0.692682926829268,
10762038,4941.40625,-1472,0.902513795217658,2480,1.52053954629062,-16112,9.87860208461067,-65,1.52439024390244,-25,3.96341463414634,-61,3.71951219512195,-6,0.0260869565217391,-66,-0.28695652173913,143,-0.697560975609756,
10762678,4960.9375,-1488,0.912323727774372,2560,1.56958920907419,-16000,9.80993255671367,-52,1.89024390243902,-31,3.17073170731707,-66,4.02439024390244,-10,0.0434782608695652,-69,-0.3,145,-0.707317073170732,
10763318,4980.46875,-1440,0.88289393010423,2640,1.61863887185776,-15968,9.79031269160024,-40,1.64634146341463,-27,2.4390243902439,-60,3.65853658536585,-8,0.0347826086956522,-68,-0.295652173913043,144,-0.702439024390244,
10763958,5000,-1584,0.971183323114654,2656,1.62844880441447,-15952,9.78050275904353,-3,1.95121951219512,-32,0.182926829268293,-47,2.86585365853659,-6,0.0260869565217391,-67,-0.291304347826087,143,-0.697560975609756,
10764598,5019.53125,-1520,0.931943592887799,2640,1.61863887185776,-15968,9.79031269160024,19,1.46341463414634,-24,-1.15853658536585,-25,1.52439024390244,-7,0.0304347826086957,-69,-0.3,143,-0.697560975609756,
10765238,5039.0625,-1536,0.941753525444513,2640,1.61863887185776,-15920,9.7608828939301,2,1.40243902439024,-23,-0.121951219512195,-27,1.64634146341463,-7,0.0304347826086957,-67,-0.291304347826087,143,-0.697560975609756,
10765878,5058.59375,-1408,0.863274064990803,2608,1.59901900674433,-15792,9.6824034334764,26,1.28048780487805,-21,-1.58536585365854,-29,1.76829268292683,-6,0.0260869565217391,-64,-0.278260869565217,143,-0.697560975609756,
10766518,5078.125,-1392,0.853464132434089,2560,1.56958920907419,-15808,9.69221336603311,90,0.548780487804878,-9,-5.48780487804878,-18,1.09756097560976,-8,0.0347826086956522,-68,-0.295652173913043,143,-0.697560975609756,
10767158,5097.65625,-1504,0.922133660331085,2640,1.61863887185776,-15792,9.6824034334764,119,0.304878048780488,-5,-7.25609756097561,-5,0.304878048780488,-7,0.0304347826086957,-69,-0.3,143,-0.697560975609756,
10767798,5117.1875,-1440,0.88289393010423,2736,1.67749846719804,-15872,9.73145309625996,83,0.365853658536585,-6,-5.0609756097561,-16,0.975609756097561,-7,0.0304347826086957,-62,-0.269565217391304,142,-0.692682926829268,
10768438,5136.71875,-1328,0.814224402207235,2592,1.58920907418761,-15808,9.69221336603311,85,-0.304878048780488,5,-5.18292682926829,-14,0.853658536585366,-7,0.0304347826086957,-65,-0.282608695652174,142,-0.692682926829268,
10769078,5156.25,-1024,0.627835683629675,2544,1.55977927651747,-15616,9.57449417535254,81,-0.731707317073171,12,-4.9390243902439,-20,1.21951219512195,-6,0.0260869565217391,-69,-0.3,144,-0.702439024390244,
10769718,5175.78125,-1120,0.686695278969957,2544,1.55977927651747,-15408,9.44696505211527,154,-1.52439024390244,25,-9.39024390243902,-15,0.914634146341463,-7,0.0304347826086957,-62,-0.269565217391304,142,-0.692682926829268,
10770358,5195.3125,-1632,1.00061312078479,2608,1.59901900674433,-15440,9.46658491722869,199,-2.5,41,-12.1341463414634,-17,1.03658536585366,-9,0.0391304347826087,-63,-0.273913043478261,141,-0.68780487804878,
10770998,5214.84375,-1504,0.922133660331085,2624,1.60882893930104,-15328,9.3979153893317,90,-3.10975609756098,51,-5.48780487804878,-39,2.37804878048781,-4,0.0173913043478261,-68,-0.295652173913043,144,-0.702439024390244,
10771638,5234.375,-1328,0.814224402207235,2512,1.54015941140405,-15280,9.36848559166156,11,-3.65853658536585,60,-0.670731707317073,-49,2.98780487804878,-4,0.0173913043478261,-67,-0.291304347826087,143,-0.697560975609756,
10772278,5253.90625,-1152,0.706315144083384,2464,1.51072961373391,-15184,9.30962599632127,0,-4.87804878048781,80,0,-45,2.74390243902439,-4,0.0173913043478261,-64,-0.278260869565217,142,-0.692682926829268,
10772918,5273.4375,-1072,0.657265481299816,2432,1.49110974862048,-15232,9.33905579399141,-12,-5.97560975609756,98,0.731707317073171,-59,3.59756097560976,-4,0.0173913043478261,-64,-0.278260869565217,143,-0.697560975609756,
10773558,5292.96875,-1488,0.912323727774372,2560,1.56958920907419,-15584,9.55487431023912,-4,-7.25609756097561,119,0.24390243902439,-100,6.09756097560976,-6,0.0260869565217391,-67,-0.291304347826087,143,-0.697560975609756,
10774198,5312.5,-1824,1.11833231146536,2448,1.50091968117719,-15808,9.69221336603311,-96,-6.58536585365854,108,5.85365853658537,-115,7.01219512195122,-6,0.0260869565217391,-67,-0.291304347826087,144,-0.702439024390244,
10774838,5332.03125,-2016,1.23605150214592,2384,1.46167995095034,-16160,9.90803188228081,-147,-5.91463414634146,97,8.96341463414634,-106,6.46341463414634,-5,0.0217391304347826,-65,-0.282608695652174,142,-0.692682926829268,
10775478,5351.5625,-1936,1.18700183936235,2208,1.35377069282649,-16448,10.0846106683017,-163,-4.69512195121951,77,9.9390243902439,-117,7.13414634146342,-4,0.0173913043478261,-64,-0.278260869565217,143,-0.697560975609756,
10776118,5371.09375,-1872,1.1477621091355,2192,1.34396076026977,-16928,10.3789086450031,-98,-3.23170731707317,53,5.97560975609756,-106,6.46341463414634,-5,0.0217391304347826,-63,-0.273913043478261,144,-0.702439024390244,
10776758,5390.625,-2064,1.26548129981606,2016,1.23605150214592,-17040,10.4475781729001,-40,-1.95121951219512,32,2.4390243902439,-75,4.57317073170732,-7,0.0304347826086957,-60,-0.260869565217391,143,-0.697560975609756,
10777398,5410.15625,-2240,1.37339055793991,1984,1.2164316370325,-17120,10.4966278356836,-58,-0.365853658536585,6,3.53658536585366,-53,3.23170731707317,-7,0.0304347826086957,-64,-0.278260869565217,144,-0.702439024390244,
10778038,5429.6875,-2160,1.32434089515635,1920,1.17719190680564,-17024,10.4377682403433,-72,0.853658536585366,-14,4.39024390243902,-31,1.89024390243902,-6,0.0260869565217391,-65,-0.282608695652174,145,-0.707317073170732,
10778678,5449.21875,-1984,1.2164316370325,1856,1.13795217657879,-17008,10.4279583077866,-48,2.13414634146341,-35,2.92682926829268,-11,0.670731707317073,-7,0.0304347826086957,-61,-0.265217391304348,145,-0.707317073170732,
10779318,5468.75,-1760,1.0790925812385,1824,1.11833231146536,-16784,10.2906192519926,-65,3.29268292682927,-54,3.96341463414634,-17,1.03658536585366,-7,0.0304347826086957,-62,-0.269565217391304,145,-0.707317073170732,
10779958,5488.28125,-1568,0.96137339055794,1792,1.09871244635193,-16496,10.1140404659718,-42,4.32926829268293,-71,2.5609756097561,-16,0.975609756097561,-6,0.0260869565217391,-64,-0.278260869565217,145,-0.707317073170732,
10780598,5507.8125,-1568,0.96137339055794,1776,1.08890251379522,-16272,9.9767014101778,-15,4.81707317073171,-79,0.914634146341463,-14,0.853658536585366,-6,0.0260869565217391,-64,-0.278260869565217,144,-0.702439024390244,
10781238,5527.34375,-1440,0.88289393010423,1792,1.09871244635193,-16192,9.92765174739424,-20,5.0609756097561,-83,1.21951219512195,-15,0.914634146341463,-7,0.0304347826086957,-60,-0.260869565217391,144,-0.702439024390244,
10781878,5546.875,-1408,0.863274064990803,1776,1.08890251379522,-15904,9.75107296137339,-24,5.0609756097561,-83,1.46341463414634,-24,1.46341463414634,-5,0.0217391304347826,-60,-0.260869565217391,142,-0.692682926829268,
10782518,5566.40625,-1328,0.814224402207235,1856,1.13795217657879,-15760,9.66278356836297,-35,4.9390243902439,-81,2.13414634146341,-35,2.13414634146341,-8,0.0347826086956522,-60,-0.260869565217391,144,-0.702439024390244,
10783158,5585.9375,-1296,0.794604537093807,1952,1.19681177191907,-15728,9.64316370324954,-39,4.51219512195122,-74,2.37804878048781,-40,2.4390243902439,-7,0.0304347826086957,-60,-0.260869565217391,142,-0.692682926829268,
10783798,5605.46875,-1312,0.804414469650521,1936,1.18700183936235,-15680,9.6137339055794,-56,4.45121951219512,-73,3.41463414634146,-42,2.5609756097561,-7,0.0304347826086957,-60,-0.260869565217391,144,-0.702439024390244,
10784438,5625,-1376,0.843654199877376,1920,1.17719190680564,-15680,9.6137339055794,-59,4.14634146341463,-68,3.59756097560976,-40,2.4390243902439,-6,0.0260869565217391,-63,-0.273913043478261,144,-0.702439024390244,
10785078,5644.53125,-1440,0.88289393010423,2000,1.22624156958921,-15680,9.6137339055794,-72,3.78048780487805,-62,4.39024390243902,-39,2.37804878048781,-7,0.0304347826086957,-64,-0.278260869565217,145,-0.707317073170732,
10785718,5664.0625,-1504,0.922133660331085,2000,1.22624156958921,-15680,9.6137339055794,-90,3.59756097560976,-59,5.48780487804878,-38,2.31707317073171,-10,0.0434782608695652,-65,-0.282608695652174,145,-0.707317073170732,
10786358,5683.59375,-1424,0.873083997547517,2032,1.24586143470264,-15696,9.62354383813611,-110,3.29268292682927,-54,6.70731707317073,-43,2.6219512195122,-8,0.0347826086956522,-59,-0.256521739130435,144,-0.702439024390244,
10786998,5703.125,-1248,0.765174739423666,2032,1.24586143470264,-15696,9.62354383813611,-62,2.4390243902439,-40,3.78048780487805,-37,2.25609756097561,-7,0.0304347826086957,-64,-0.278260869565217,145,-0.707317073170732,
10787638,5722.65625,-1328,0.814224402207235,2016,1.23605150214592,-15808,9.69221336603311,-26,2.31707317073171,-38,1.58536585365854,-21,1.28048780487805,-8,0.0347826086956522,-60,-0.260869565217391,145,-0.707317073170732,
10788278,5742.1875,-1376,0.843654199877376,1984,1.2164316370325,-15872,9.73145309625996,-45,2.37804878048781,-39,2.74390243902439,-24,1.46341463414634,-7,0.0304347826086957,-59,-0.256521739130435,146,-0.712195121951219,
10788918,5761.71875,-1456,0.892703862660944,1984,1.2164316370325,-15824,9.70202329858982,-71,2.01219512195122,-33,4.32926829268293,-12,0.731707317073171,-7,0.0304347826086957,-58,-0.252173913043478,143,-0.697560975609756,
10789558,5781.25,-1360,0.833844267320662,2080,1.27529123237278,-15776,9.67259350091968,-70,1.52439024390244,-25,4.26829268292683,-19,1.15853658536585,-10,0.0434782608695652,-56,-0.243478260869565,144,-0.702439024390244,
10790198,5800.78125,-1072,0.657265481299816,2096,1.28510116492949,-15744,9.65297363580625,-13,0.914634146341463,-15,0.792682926829268,-9,0.548780487804878,-9,0.0391304347826087,-60,-0.260869565217391,145,-0.707317073170732,
10790838,5820.3125,-784,0.48068669527897,1888,1.15757204169221,-15824,9.70202329858982,47,1.03658536585366,-17,-2.86585365853659,5,-0.304878048780488,-10,0.0434782608695652,-60,-0.260869565217391,144,-0.702439024390244,
10791478,5839.84375,-640,0.392397302268547,1904,1.16738197424893,-15776,9.67259350091968,80,0.914634146341463,-15,-4.87804878048781,15,-0.914634146341463,-9,0.0391304347826087,-61,-0.265217391304348,146,-0.712195121951219,
10792118,5859.375,-448,0.274678111587983,2016,1.23605150214592,-15792,9.6824034334764,56,0.548780487804878,-9,-3.41463414634146,3,-0.182926829268293,-9,0.0391304347826087,-60,-0.260869565217391,145,-0.707317073170732,
10792758,5878.90625,-64,0.0392397302268547,1984,1.2164316370325,-15840,9.71183323114654,50,0.182926829268293,-3,-3.04878048780488,-33,2.01219512195122,-7,0.0304347826086957,-60,-0.260869565217391,144,-0.702439024390244,
10793398,5898.4375,16,-0.00980993255671367,1984,1.2164316370325,-15968,9.79031269160024,84,0.182926829268293,-3,-5.1219512195122,-86,5.24390243902439,-9,0.0391304347826087,-58,-0.252173913043478,143,-0.697560975609756,
10794038,5917.96875,-368,0.225628448804414,2064,1.26548129981606,-16096,9.86879215205395,88,1.15853658536585,-19,-5.36585365853659,-153,9.32926829268293,-8,0.0347826086956522,-62,-0.269565217391304,146,-0.712195121951219,
10794678,5937.5,-816,0.500306560392397,2080,1.27529123237278,-16064,9.84917228694053,103,1.58536585365854,-26,-6.28048780487805,-203,12.3780487804878,-8,0.0347826086956522,-63,-0.273913043478261,145,-0.707317073170732,
10795318,5957.03125,-1344,0.824034334763949,1904,1.16738197424893,-16240,9.95708154506438,117,1.70731707317073,-28,-7.13414634146342,-213,12.9878048780488,-6,0.0260869565217391,-61,-0.265217391304348,144,-0.702439024390244,
10795958,5976.5625,-1696,1.03985285101165,1984,1.2164316370325,-16592,10.1729000613121,134,2.6219512195122,-43,-8.17073170731707,-203,12.3780487804878,-5,0.0217391304347826,-57,-0.247826086956522,143,-0.697560975609756,
10796598,5996.09375,-1968,1.20662170447578,1952,1.19681177191907,-16864,10.3396689147762,186,2.5,-41,-11.3414634146341,-152,9.26829268292683,-7,0.0304347826086957,-58,-0.252173913043478,144,-0.702439024390244,
10797238,6015.625,-2336,1.4322501532802,1888,1.15757204169221,-16864,10.3396689147762,210,3.17073170731707,-52,-12.8048780487805,-115,7.01219512195122,-4,0.0173913043478261,-58,-0.252173913043478,144,-0.702439024390244,
10797878,6035.15625,-2800,1.71673819742489,1984,1.2164316370325,-16784,10.2906192519926,171,3.84146341463415,-63,-10.4268292682927,-86,5.24390243902439,-3,0.0130434782608696,-62,-0.269565217391304,143,-0.697560975609756,
10798518,6054.6875,-2592,1.58920907418761,1776,1.08890251379522,-16768,10.2808093194359,129,4.87804878048781,-80,-7.86585365853659,-75,4.57317073170732,-7,0.0304347826086957,-56,-0.243478260869565,141,-0.68780487804878,
10799158,6074.21875,-2464,1.51072961373391,1760,1.0790925812385,-16624,10.1925199264255,137,6.34146341463415,-104,-8.35365853658537,-70,4.26829268292683,-6,0.0260869565217391,-58,-0.252173913043478,144,-0.702439024390244,
10799798,6093.75,-2304,1.41263028816677,1824,1.11833231146536,-16480,10.1042305334151,156,7.25609756097561,-119,-9.51219512195122,-52,3.17073170731707,-5,0.0217391304347826,-57,-0.247826086956522,143,-0.697560975609756,
10800438,6113.28125,-2144,1.31453096259963,1712,1.04966278356836,-16288,9.98651134273452,151,7.86585365853659,-129,-9.20731707317073,-34,2.07317073170732,-6,0.0260869565217391,-54,-0.234782608695652,140,-0.682926829268293,
10801078,6132.8125,-1952,1.19681177191907,1824,1.11833231146536,-15952,9.78050275904353,165,8.10975609756098,-133,-10.0609756097561,-32,1.95121951219512,-5,0.0217391304347826,-63,-0.273913043478261,142,-0.692682926829268,
10801718,6152.34375,-2016,1.23605150214592,2032,1.24586143470264,-15776,9.67259350091968,133,7.5609756097561,-124,-8.10975609756098,-57,3.47560975609756,-6,0.0260869565217391,-60,-0.260869565217391,142,-0.692682926829268,
10802358,6171.875,-2080,1.27529123237278,2048,1.25567136725935,-15488,9.49601471489883,110,6.46341463414634,-106,-6.70731707317073,-69,4.20731707317073,-4,0.0173913043478261,-59,-0.256521739130435,140,-0.682926829268293,
10802998,6191.40625,-2112,1.2949110974862,2032,1.24586143470264,-15424,9.45677498467198,111,6.40243902439024,-105,-6.76829268292683,-65,3.96341463414634,-3,0.0130434782608696,-58,-0.252173913043478,142,-0.692682926829268,
10803638,6210.9375,-2336,1.4322501532802,2080,1.27529123237278,-15488,9.49601471489883,79,5.48780487804878,-90,-4.81707317073171,-68,4.14634146341463,-2,0.00869565217391304,-56,-0.243478260869565,138,-0.673170731707317,
10804278,6230.46875,-2528,1.54996934396076,2128,1.30472103004292,-15504,9.50582464745555,19,5.24390243902439,-86,-1.15853658536585,-65,3.96341463414634,-2,0.00869565217391304,-58,-0.252173913043478,140,-0.682926829268293,
10804918,6250,-2352,1.44206008583691,2160,1.32434089515635,-15584,9.55487431023912,30,4.63414634146342,-76,-1.82926829268293,-44,2.68292682926829,-3,0.0130434782608696,-58,-0.252173913043478,140,-0.682926829268293,
10805558,6269.53125,-2448,1.50091968117719,2160,1.32434089515635,-15568,9.5450643776824,28,4.14634146341463,-68,-1.70731707317073,-31,1.89024390243902,-4,0.0173913043478261,-61,-0.265217391304348,141,-0.68780487804878,
10806198,6289.0625,-2464,1.51072961373391,2128,1.30472103004292,-15648,9.59411404046597,5,3.41463414634146,-56,-0.304878048780488,-29,1.76829268292683,-3,0.0130434782608696,-58,-0.252173913043478,140,-0.682926829268293,
10806838,6308.59375,-2592,1.58920907418761,2080,1.27529123237278,-15648,9.59411404046597,27,2.92682926829268,-48,-1.64634146341463,-20,1.21951219512195,-1,0.00434782608695652,-60,-0.260869565217391,140,-0.682926829268293,
10807478,6328.125,-2512,1.54015941140405,2096,1.28510116492949,-15776,9.67259350091968,9,2.74390243902439,-45,-0.548780487804878,-10,0.609756097560976,-3,0.0130434782608696,-62,-0.269565217391304,142,-0.692682926829268,
10808118,6347.65625,-2176,1.33415082771306,1952,1.19681177191907,-15696,9.62354383813611,53,2.98780487804878,-49,-3.23170731707317,-2,0.121951219512195,-2,0.00869565217391304,-58,-0.252173913043478,141,-0.68780487804878,
10808758,6367.1875,-2224,1.3635806253832,2016,1.23605150214592,-15824,9.70202329858982,86,2.74390243902439,-45,-5.24390243902439,-7,0.426829268292683,-4,0.0173913043478261,-61,-0.265217391304348,141,-0.68780487804878,
10809398,6386.71875,-2416,1.48129981606376,1984,1.2164316370325,-15904,9.75107296137339,44,2.5609756097561,-42,-2.68292682926829,-24,1.46341463414634,-4,0.0173913043478261,-56,-0.243478260869565,139,-0.678048780487805,
10810038,6406.25,-2464,1.51072961373391,1856,1.13795217657879,-15920,9.7608828939301,3,2.74390243902439,-45,-0.182926829268293,-12,0.731707317073171,-2,0.00869565217391304,-58,-0.252173913043478,140,-0.682926829268293,
10810678,6425.78125,-2480,1.52053954629062,1872,1.1477621091355,-15984,9.80012262415696,1,3.29268292682927,-54,-0.0609756097560976,-13,0.792682926829268,-3,0.0130434782608696,-57,-0.247826086956522,141,-0.68780487804878,
10811318,6445.3125,-2688,1.6480686695279,1952,1.19681177191907,-15936,9.77069282648682,-18,3.53658536585366,-58,1.09756097560976,-14,0.853658536585366,-5,0.0217391304347826,-54,-0.234782608695652,138,-0.673170731707317,
10811958,6464.84375,-2720,1.66768853464132,2096,1.28510116492949,-15968,9.79031269160024,-26,3.35365853658537,-55,1.58536585365854,-2,0.121951219512195,-1,0.00434782608695652,-62,-0.269565217391304,142,-0.692682926829268,
10812598,6484.375,-2768,1.69711833231147,2176,1.33415082771306,-16048,9.83936235438381,-34,3.59756097560976,-59,2.07317073170732,18,-1.09756097560976,-2,0.00869565217391304,-60,-0.260869565217391,139,-0.678048780487805,
10813238,6503.90625,-2736,1.67749846719804,2048,1.25567136725935,-15904,9.75107296137339,-71,3.53658536585366,-58,4.32926829268293,35,-2.13414634146341,-5,0.0217391304347826,-57,-0.247826086956522,139,-0.678048780487805,
10813878,6523.4375,-2688,1.6480686695279,2144,1.31453096259963,-15792,9.6824034334764,-105,3.41463414634146,-56,6.40243902439024,48,-2.92682926829268,-1,0.00434782608695652,-57,-0.247826086956522,139,-0.678048780487805,
10814518,6542.96875,-2496,1.53034947884733,2112,1.2949110974862,-15680,9.6137339055794,-137,3.10975609756098,-51,8.35365853658537,44,-2.68292682926829,-3,0.0130434782608696,-61,-0.265217391304348,140,-0.682926829268293,
10815158,6562.5,-2288,1.40282035561006,2256,1.38320049049663,-15696,9.62354383813611,-124,2.5,-41,7.5609756097561,30,-1.82926829268293,-2,0.00869565217391304,-59,-0.256521739130435,141,-0.68780487804878,
10815798,6582.03125,-2240,1.37339055793991,2352,1.44206008583691,-15696,9.62354383813611,-121,2.92682926829268,-48,7.37804878048781,22,-1.34146341463415,-3,0.0130434782608696,-59,-0.256521739130435,141,-0.68780487804878,
10816438,6601.5625,-2160,1.32434089515635,2096,1.28510116492949,-15520,9.51563458001226,-148,3.59756097560976,-59,9.02439024390244,34,-2.07317073170732,-5,0.0217391304347826,-58,-0.252173913043478,142,-0.692682926829268,
10817078,6621.09375,-1664,1.02023298589822,2000,1.22624156958921,-15712,9.63335377069283,-176,2.86585365853659,-47,10.7317073170732,59,-3.59756097560976,-6,0.0260869565217391,-58,-0.252173913043478,142,-0.692682926829268,
10817718,6640.625,-1184,0.725935009196812,2064,1.26548129981606,-15776,9.67259350091968,-176,2.6219512195122,-43,10.7317073170732,45,-2.74390243902439,-3,0.0130434782608696,-56,-0.243478260869565,141,-0.68780487804878,
10818358,6660.15625,-1168,0.716125076640098,2064,1.26548129981606,-15824,9.70202329858982,-173,1.95121951219512,-32,10.5487804878049,10,-0.609756097560976,-4,0.0173913043478261,-62,-0.269565217391304,142,-0.692682926829268,
10818998,6679.6875,-1712,1.04966278356836,2288,1.40282035561006,-15792,9.6824034334764,-219,1.70731707317073,-28,13.3536585365854,-35,2.13414634146341,-5,0.0217391304347826,-57,-0.247826086956522,142,-0.692682926829268,
10819638,6699.21875,-1952,1.19681177191907,2224,1.3635806253832,-15840,9.71183323114654,-272,1.34146341463415,-22,16.5853658536585,-60,3.65853658536585,-6,0.0260869565217391,-57,-0.247826086956522,143,-0.697560975609756,
10820278,6718.75,-2016,1.23605150214592,2272,1.39301042305334,-15824,9.70202329858982,-231,1.03658536585366,-17,14.0853658536585,-52,3.17073170731707,-6,0.0260869565217391,-58,-0.252173913043478,142,-0.692682926829268,
10820918,6738.28125,-1984,1.2164316370325,2256,1.38320049049663,-16080,9.85898221949724,-161,0.426829268292683,-7,9.81707317073171,-31,1.89024390243902,-7,0.0304347826086957,-55,-0.239130434782609,142,-0.692682926829268,
10821558,6757.8125,-1984,1.2164316370325,2160,1.32434089515635,-16016,9.81974248927039,-73,0.304878048780488,-5,4.45121951219512,6,-0.365853658536585,-8,0.0347826086956522,-58,-0.252173913043478,144,-0.702439024390244,
10822198,6777.34375,-2208,1.35377069282649,2080,1.27529123237278,-15856,9.72164316370325,-17,0.182926829268293,-3,1.03658536585366,40,-2.4390243902439,-6,0.0260869565217391,-59,-0.256521739130435,143,-0.697560975609756,
10822838,6796.875,-2320,1.42244022072348,2048,1.25567136725935,-15648,9.59411404046597,-53,-0.487804878048781,8,3.23170731707317,71,-4.32926829268293,-6,0.0260869565217391,-56,-0.243478260869565,144,-0.702439024390244,
10823478,6816.40625,-2048,1.25567136725935,1872,1.1477621091355,-15488,9.49601471489883,-98,-1.28048780487805,21,5.97560975609756,89,-5.42682926829268,-6,0.0260869565217391,-57,-0.247826086956522,143,-0.697560975609756,
10824118,6835.9375,-1632,1.00061312078479,1904,1.16738197424893,-15424,9.45677498467198,-80,-2.13414634146341,35,4.87804878048781,105,-6.40243902439024,-5,0.0217391304347826,-59,-0.256521739130435,144,-0.702439024390244,
10824758,6855.46875,-1456,0.892703862660944,1984,1.2164316370325,-15552,9.53525444512569,-76,-2.6219512195122,43,4.63414634146342,109,-6.64634146341464,-8,0.0347826086956522,-58,-0.252173913043478,144,-0.702439024390244,
10825398,6875,-1040,0.637645616186389,1888,1.15757204169221,-15568,9.5450643776824,-104,-3.23170731707317,53,6.34146341463415,111,-6.76829268292683,-8,0.0347826086956522,-57,-0.247826086956522,143,-0.697560975609756,
10826038,6894.53125,-720,0.441446965052115,1856,1.13795217657879,-15760,9.66278356836297,-73,-3.71951219512195,61,4.45121951219512,117,-7.13414634146342,-8,0.0347826086956522,-58,-0.252173913043478,143,-0.697560975609756,
10826678,6914.0625,-560,0.343347639484979,1776,1.08890251379522,-15936,9.77069282648682,-49,-3.53658536585366,58,2.98780487804878,106,-6.46341463414634,-10,0.0434782608695652,-56,-0.243478260869565,144,-0.702439024390244,
10827318,6933.59375,-576,0.353157572041692,1728,1.05947271612508,-16000,9.80993255671367,-41,-3.47560975609756,57,2.5,75,-4.57317073170732,-10,0.0434782608695652,-55,-0.239130434782609,145,-0.707317073170732,
10827958,6953.125,-640,0.392397302268547,1792,1.09871244635193,-16272,9.9767014101778,-67,-3.23170731707317,53,4.08536585365854,44,-2.68292682926829,-7,0.0304347826086957,-56,-0.243478260869565,144,-0.702439024390244,
10828598,6972.65625,-672,0.412017167381974,1776,1.08890251379522,-16416,10.0649908031882,-91,-1.82926829268293,30,5.54878048780488,19,-1.15853658536585,-7,0.0304347826086957,-56,-0.243478260869565,147,-0.717073170731707,
10829238,6992.1875,-736,0.451256897608829,1728,1.05947271612508,-16592,10.1729000613121,-88,-0.853658536585366,14,5.36585365853659,6,-0.365853658536585,-9,0.0391304347826087,-56,-0.243478260869565,144,-0.702439024390244,
10829878,7011.71875,-912,0.559166155732679,1872,1.1477621091355,-16640,10.2023298589822,-61,-0.0609756097560976,1,3.71951219512195,-10,0.609756097560976,-10,0.0434782608695652,-53,-0.230434782608696,145,-0.707317073170732,
10830518,7031.25,-896,0.549356223175966,1856,1.13795217657879,-16592,10.1729000613121,-45,0.609756097560976,-10,2.74390243902439,-16,0.975609756097561,-8,0.0347826086956522,-57,-0.247826086956522,147,-0.717073170731707,
10831158,7050.78125,-1008,0.618025751072961,1824,1.11833231146536,-16576,10.1630901287554,-36,1.76829268292683,-29,2.19512195121951,-16,0.975609756097561,-11,0.0478260869565217,-58,-0.252173913043478,145,-0.707317073170732,
10831798,7070.3125,-976,0.598405885959534,1776,1.08890251379522,-16464,10.0944206008584,-23,1.95121951219512,-32,1.40243902439024,-14,0.853658536585366,-11,0.0478260869565217,-56,-0.243478260869565,145,-0.707317073170732,
10832438,7089.84375,-1104,0.676885346413243,1776,1.08890251379522,-16336,10.0159411404047,-21,2.4390243902439,-40,1.28048780487805,-13,0.792682926829268,-7,0.0304347826086957,-55,-0.239130434782609,145,-0.707317073170732,
10833078,7109.375,-992,0.608215818516248,1680,1.03004291845494,-16240,9.95708154506438,-56,3.10975609756098,-51,3.41463414634146,-20,1.21951219512195,-11,0.0478260869565217,-56,-0.243478260869565,145,-0.707317073170732,
10833718,7128.90625,-1088,0.66707541385653,1680,1.03004291845494,-16096,9.86879215205395,-51,3.47560975609756,-57,3.10975609756098,-16,0.975609756097561,-10,0.0434782608695652,-56,-0.243478260869565,145,-0.707317073170732,
10834358,7148.4375,-1008,0.618025751072961,1728,1.05947271612508,-15936,9.77069282648682,-46,3.04878048780488,-50,2.80487804878049,-24,1.46341463414634,-10,0.0434782608695652,-56,-0.243478260869565,145,-0.707317073170732,
10834998,7167.96875,-912,0.559166155732679,1632,1.00061312078479,-15952,9.78050275904353,-23,3.53658536585366,-58,1.40243902439024,-29,1.76829268292683,-9,0.0391304347826087,-58,-0.252173913043478,148,-0.721951219512195,
10835638,7187.5,-1072,0.657265481299816,1648,1.01042305334151,-15920,9.7608828939301,-3,3.65853658536585,-60,0.182926829268293,-21,1.28048780487805,-11,0.0478260869565217,-54,-0.234782608695652,146,-0.712195121951219,
10836278,7207.03125,-1072,0.657265481299816,1632,1.00061312078479,-15792,9.6824034334764,-36,2.98780487804878,-49,2.19512195121951,-10,0.609756097560976,-11,0.0478260869565217,-54,-0.234782608695652,146,-0.712195121951219,
10836918,7226.5625,-976,0.598405885959534,1632,1.00061312078479,-15744,9.65297363580625,-45,2.25609756097561,-37,2.74390243902439,-16,0.975609756097561,-10,0.0434782608695652,-59,-0.256521739130435,144,-0.702439024390244,
10837558,7246.09375,-1040,0.637645616186389,1600,0.980993255671367,-15744,9.65297363580625,-41,1.95121951219512,-32,2.5,-23,1.40243902439024,-9,0.0391304347826087,-56,-0.243478260869565,146,-0.712195121951219,
10838198,7265.625,-992,0.608215818516248,1568,0.96137339055794,-15760,9.66278356836297,-59,1.76829268292683,-29,3.59756097560976,-35,2.13414634146341,-10,0.0434782608695652,-55,-0.239130434782609,146,-0.712195121951219,
10838838,7285.15625,-848,0.519926425505825,1568,0.96137339055794,-15712,9.63335377069283,-49,1.46341463414634,-24,2.98780487804878,-31,1.89024390243902,-11,0.0478260869565217,-56,-0.243478260869565,145,-0.707317073170732,
10839478,7304.6875,-896,0.549356223175966,1568,0.96137339055794,-15888,9.74126302881668,0,1.21951219512195,-20,0,-27,1.64634146341463,-10,0.0434782608695652,-54,-0.234782608695652,146,-0.712195121951219,
10840118,7324.21875,-1008,0.618025751072961,1536,0.941753525444513,-15872,9.73145309625996,14,0.792682926829268,-13,-0.853658536585366,-27,1.64634146341463,-10,0.0434782608695652,-54,-0.234782608695652,146,-0.712195121951219,
10840758,7343.75,-976,0.598405885959534,1536,0.941753525444513,-15904,9.75107296137339,25,0.24390243902439,-4,-1.52439024390244,-12,0.731707317073171,-10,0.0434782608695652,-54,-0.234782608695652,145,-0.707317073170732,
10841398,7363.28125,-1056,0.647455548743102,1552,0.951563458001226,-16096,9.86879215205395,33,0.365853658536585,-6,-2.01219512195122,-9,0.548780487804878,-10,0.0434782608695652,-57,-0.247826086956522,146,-0.712195121951219,
10842038,7382.8125,-1040,0.637645616186389,1520,0.931943592887799,-16144,9.89822194972409,8,0.609756097560976,-10,-0.487804878048781,-12,0.731707317073171,-10,0.0434782608695652,-56,-0.243478260869565,146,-0.712195121951219,
10842678,7402.34375,-1008,0.618025751072961,1520,0.931943592887799,-16240,9.95708154506438,18,0.731707317073171,-12,-1.09756097560976,-4,0.24390243902439,-9,0.0391304347826087,-55,-0.239130434782609,145,-0.707317073170732,
10843318,7421.875,-1056,0.647455548743102,1504,0.922133660331085,-16384,10.0453709380748,25,1.03658536585366,-17,-1.52439024390244,5,-0.304878048780488,-8,0.0347826086956522,-55,-0.239130434782609,144,-0.702439024390244,
10843958,7441.40625,-960,0.58859595340282,1520,0.931943592887799,-16400,10.0551808706315,-9,2.07317073170732,-34,0.548780487804878,7,-0.426829268292683,-11,0.0478260869565217,-55,-0.239130434782609,146,-0.712195121951219,
10844598,7460.9375,-880,0.539546290619252,1488,0.912323727774372,-16416,10.0649908031882,-3,2.31707317073171,-38,0.182926829268293,8,-0.487804878048781,-11,0.0478260869565217,-56,-0.243478260869565,146,-0.712195121951219,
10845238,7480.46875,-1024,0.627835683629675,1648,1.01042305334151,-16272,9.9767014101778,2,3.23170731707317,-53,-0.121951219512195,4,-0.24390243902439,-10,0.0434782608695652,-57,-0.247826086956522,145,-0.707317073170732,
10845878,7500,-912,0.559166155732679,1552,0.951563458001226,-16288,9.98651134273452,-15,3.78048780487805,-62,0.914634146341463,-10,0.609756097560976,-10,0.0434782608695652,-56,-0.243478260869565,145,-0.707317073170732,
10846518,7519.53125,-768,0.470876762722256,1504,0.922133660331085,-16272,9.9767014101778,-6,4.20731707317073,-69,0.365853658536585,-9,0.548780487804878,-12,0.0521739130434783,-54,-0.234782608695652,145,-0.707317073170732,
10847158,7539.0625,-912,0.559166155732679,1504,0.922133660331085,-16176,9.91784181483752,18,4.69512195121951,-77,-1.09756097560976,-10,0.609756097560976,-13,0.0565217391304348,-55,-0.239130434782609,146,-0.712195121951219,
10847798,7558.59375,-1136,0.696505211526671,1584,0.971183323114654,-15952,9.78050275904353,20,5,-82,-1.21951219512195,-13,0.792682926829268,-10,0.0434782608695652,-58,-0.252173913043478,146,-0.712195121951219,
10848438,7578.125,-1152,0.706315144083384,1600,0.980993255671367,-15904,9.75107296137339,-14,4.9390243902439,-81,0.853658536585366,-23,1.40243902439024,-8,0.0347826086956522,-57,-0.247826086956522,147,-0.717073170731707,
10849078,7597.65625,-992,0.608215818516248,1600,0.980993255671367,-15968,9.79031269160024,-20,4.39024390243902,-72,1.21951219512195,-22,1.34146341463415,-10,0.0434782608695652,-55,-0.239130434782609,146,-0.712195121951219,
10849718,7617.1875,-1056,0.647455548743102,1616,0.990803188228081,-15920,9.7608828939301,7,4.81707317073171,-79,-0.426829268292683,-15,0.914634146341463,-12,0.0521739130434783,-55,-0.239130434782609,145,-0.707317073170732,
10850358,7636.71875,-1232,0.755364806866953,1616,0.990803188228081,-15840,9.71183323114654,16,4.81707317073171,-79,-0.975609756097561,-12,0.731707317073171,-9,0.0391304347826087,-55,-0.239130434782609,146,-0.712195121951219,
10850998,7656.25,-1168,0.716125076640098,1600,0.980993255671367,-15888,9.74126302881668,-6,4.75609756097561,-78,0.365853658536585,-3,0.182926829268293,-10,0.0434782608695652,-56,-0.243478260869565,145,-0.707317073170732,
10851638,7675.78125,-1056,0.647455548743102,1568,0.96137339055794,-15888,9.74126302881668,-32,4.75609756097561,-78,1.95121951219512,-5,0.304878048780488,-9,0.0391304347826087,-53,-0.230434782608696,145,-0.707317073170732,
10852278,7695.3125,-1024,0.627835683629675,1616,0.990803188228081,-15840,9.71183323114654,-36,4.69512195121951,-77,2.19512195121951,-2,0.121951219512195,-10,0.0434782608695652,-54,-0.234782608695652,145,-0.707317073170732,
10852918,7714.84375,-864,0.529736358062538,1584,0.971183323114654,-15904,9.75107296137339,-52,4.26829268292683,-70,3.17073170731707,-5,0.304878048780488,-10,0.0434782608695652,-55,-0.239130434782609,146,-0.712195121951219,
10853558,7734.375,-832,0.510116492949111,1664,1.02023298589822,-15920,9.7608828939301,-56,4.20731707317073,-69,3.41463414634146,-12,0.731707317073171,-10,0.0434782608695652,-55,-0.239130434782609,146,-0.712195121951219,
10854198,7753.90625,-912,0.559166155732679,1840,1.12814224402207,-15872,9.73145309625996,-54,4.39024390243902,-72,3.29268292682927,-19,1.15853658536585,-9,0.0391304347826087,-55,-0.239130434782609,144,-0.702439024390244,
10854838,7773.4375,-848,0.519926425505825,1856,1.13795217657879,-15760,9.66278356836297,-63,3.96341463414634,-65,3.84146341463415,-33,2.01219512195122,-8,0.0347826086956522,-60,-0.260869565217391,147,-0.717073170731707,
10855478,7792.96875,-960,0.58859595340282,1936,1.18700183936235,-15760,9.66278356836297,-49,3.78048780487805,-62,2.98780487804878,-33,2.01219512195122,-10,0.0434782608695652,-55,-0.239130434782609,147,-0.717073170731707,
10856118,7812.5,-944,0.578786020846107,1872,1.1477621091355,-15792,9.6824034334764,-45,2.92682926829268,-48,2.74390243902439,-27,1.64634146341463,-11,0.0478260869565217,-54,-0.234782608695652,146,-0.712195121951219,
10856758,7832.03125,-896,0.549356223175966,1856,1.13795217657879,-15792,9.6824034334764,-39,2.92682926829268,-48,2.37804878048781,-23,1.40243902439024,-10,0.0434782608695652,-57,-0.247826086956522,145,-0.707317073170732,
10857398,7851.5625,-880,0.539546290619252,1824,1.11833231146536,-15696,9.62354383813611,-23,2.5609756097561,-42,1.40243902439024,-14,0.853658536585366,-10,0.0434782608695652,-58,-0.252173913043478,145,-0.707317073170732,
10858038,7871.09375,-944,0.578786020846107,1728,1.05947271612508,-15680,9.6137339055794,0,2.01219512195122,-33,0,-3,0.182926829268293,-12,0.0521739130434783,-54,-0.234782608695652,146,-0.712195121951219,
10858678,7890.625,-864,0.529736358062538,1664,1.02023298589822,-15680,9.6137339055794,1,1.52439024390244,-25,-0.0609756097560976,2,-0.121951219512195,-10,0.0434782608695652,-56,-0.243478260869565,145,-0.707317073170732,
10859318,7910.15625,-816,0.500306560392397,1600,0.980993255671367,-15664,9.60392397302268,7,0.609756097560976,-10,-0.426829268292683,-5,0.304878048780488,-10,0.0434782608695652,-56,-0.243478260869565,147,-0.717073170731707,
10859958,7929.6875,-736,0.451256897608829,1536,0.941753525444513,-15744,9.65297363580625,19,0,0,-1.15853658536585,-11,0.670731707317073,-11,0.0478260869565217,-55,-0.239130434782609,146,-0.712195121951219,
10860598,7949.21875,-816,0.500306560392397,1424,0.873083997547517,-15936,9.77069282648682,37,-0.365853658536585,6,-2.25609756097561,-11,0.670731707317073,-11,0.0478260869565217,-54,-0.234782608695652,146,-0.712195121951219,
10861238,7968.75,-848,0.519926425505825,1472,0.902513795217658,-16016,9.81974248927039,34,0,0,-2.07317073170732,-3,0.182926829268293,-9,0.0391304347826087,-60,-0.260869565217391,148,-0.721951219512195,
10861878,7988.28125,-896,0.549356223175966,1440,0.88289393010423,-16096,9.86879215205395,32,-0.304878048780488,5,-1.95121951219512,0,0,-10,0.0434782608695652,-57,-0.247826086956522,146,-0.712195121951219,
10862518,8007.8125,-1024,0.627835683629675,1472,0.902513795217658,-16240,9.95708154506438,34,-0.365853658536585,6,-2.07317073170732,-10,0.609756097560976,-12,0.0521739130434783,-55,-0.239130434782609,146,-0.712195121951219,
10863158,8027.34375,-1024,0.627835683629675,1440,0.88289393010423,-16352,10.0257510729614,21,0.121951219512195,-2,-1.28048780487805,-20,1.21951219512195,-10,0.0434782608695652,-54,-0.234782608695652,146,-0.712195121951219,
10863798,8046.875,-976,0.598405885959534,1360,0.833844267320662,-16336,10.0159411404047,-1,0.792682926829268,-13,0.0609756097560976,-22,1.34146341463415,-9,0.0391304347826087,-55,-0.239130434782609,144,-0.702439024390244,
10864438,8066.40625,-992,0.608215818516248,1360,0.833844267320662,-16448,10.0846106683017,12,1.64634146341463,-27,-0.731707317073171,-10,0.609756097560976,-11,0.0478260869565217,-54,-0.234782608695652,146,-0.712195121951219,
10865078,8085.9375,-992,0.608215818516248,1376,0.843654199877376,-16368,10.0355610055181,15,2.31707317073171,-38,-0.914634146341463,-3,0.182926829268293,-11,0.0478260869565217,-56,-0.243478260869565,147,-0.717073170731707,
10865718,8105.46875,-992,0.608215818516248,1408,0.863274064990803,-16288,9.98651134273452,0,2.92682926829268,-48,0,1,-0.0609756097560976,-10,0.0434782608695652,-56,-0.243478260869565,145,-0.707317073170732,
10866358,8125,-960,0.58859595340282,1456,0.892703862660944,-16304,9.99632127529123,-16,3.47560975609756,-57,0.975609756097561,4,-0.24390243902439,-10,0.0434782608695652,-56,-0.243478260869565,147,-0.717073170731707,
10866998,8144.53125,-880,0.539546290619252,1536,0.941753525444513,-16256,9.96689147762109,-23,3.47560975609756,-57,1.40243902439024,-7,0.426829268292683,-12,0.0521739130434783,-54,-0.234782608695652,146,-0.712195121951219,
10867638,8164.0625,-784,0.48068669527897,1472,0.902513795217658,-16112,9.87860208461067,-4,3.29268292682927,-54,0.24390243902439,0,0,-8,0.0347826086956522,-59,-0.256521739130435,146,-0.712195121951219,
10868278,8183.59375,-928,0.568976088289393,1456,0.892703862660944,-16032,9.8295524218271,20,3.65853658536585,-60,-1.21951219512195,-2,0.121951219512195,-9,0.0391304347826087,-59,-0.256521739130435,147,-0.717073170731707,
10868918,8203.125,-880,0.539546290619252,1520,0.931943592887799,-15984,9.80012262415696,10,3.53658536585366,-58,-0.609756097560976,-4,0.24390243902439,-9,0.0391304347826087,-55,-0.239130434782609,146,-0.712195121951219,
10869558,8222.65625,-736,0.451256897608829,1472,0.902513795217658,-16080,9.85898221949724,24,3.29268292682927,-54,-1.46341463414634,-8,0.487804878048781,-11,0.0478260869565217,-54,-0.234782608695652,146,-0.712195121951219,
10870198,8242.1875,-976,0.598405885959534,1504,0.922133660331085,-15968,9.79031269160024,39,3.29268292682927,-54,-2.37804878048781,-10,0.609756097560976,-10,0.0434782608695652,-53,-0.230434782608696,145,-0.707317073170732,
10870838,8261.71875,-992,0.608215818516248,1440,0.88289393010423,-16096,9.86879215205395,17,3.47560975609756,-57,-1.03658536585366,-13,0.792682926829268,-10,0.0434782608695652,-55,-0.239130434782609,146,-0.712195121951219,
10871478,8281.25,-976,0.598405885959534,1568,0.96137339055794,-15984,9.80012262415696,17,3.71951219512195,-61,-1.03658536585366,-21,1.28048780487805,-9,0.0391304347826087,-56,-0.243478260869565,147,-0.717073170731707,
10872118,8300.78125,-960,0.58859595340282,1600,0.980993255671367,-15984,9.80012262415696,18,3.47560975609756,-57,-1.09756097560976,-16,0.975609756097561,-10,0.0434782608695652,-53,-0.230434782608696,146,-0.712195121951219,
10872758,8320.3125,-928,0.568976088289393,1616,0.990803188228081,-15920,9.7608828939301,23,3.53658536585366,-58,-1.40243902439024,-18,1.09756097560976,-10,0.0434782608695652,-54,-0.234782608695652,145,-0.707317073170732,
10873398,8339.84375,-1072,0.657265481299816,1632,1.00061312078479,-15824,9.70202329858982,27,3.29268292682927,-54,-1.64634146341463,-19,1.15853658536585,-10,0.0434782608695652,-55,-0.239130434782609,145,-0.707317073170732,
10874038,8359.375,-1168,0.716125076640098,1600,0.980993255671367,-15840,9.71183323114654,10,3.10975609756098,-51,-0.609756097560976,-12,0.731707317073171,-8,0.0347826086956522,-57,-0.247826086956522,146,-0.712195121951219,
10874678,8378.90625,-1008,0.618025751072961,1696,1.03985285101165,-15872,9.73145309625996,-2,3.29268292682927,-54,0.121951219512195,-6,0.365853658536585,-7,0.0304347826086957,-60,-0.260869565217391,147,-0.717073170731707,
10875318,8398.4375,-880,0.539546290619252,1616,0.990803188228081,-15776,9.67259350091968,5,3.10975609756098,-51,-0.304878048780488,-3,0.182926829268293,-11,0.0478260869565217,-55,-0.239130434782609,145,-0.707317073170732,
10875958,8417.96875,-880,0.539546290619252,1696,1.03985285101165,-15792,9.6824034334764,32,2.07317073170732,-34,-1.95121951219512,2,-0.121951219512195,-11,0.0478260869565217,-57,-0.247826086956522,146,-0.712195121951219,
10876598,8437.5,-912,0.559166155732679,1648,1.01042305334151,-15840,9.71183323114654,15,1.76829268292683,-29,-0.914634146341463,-6,0.365853658536585,-10,0.0434782608695652,-52,-0.226086956521739,145,-0.707317073170732,
10877238,8457.03125,-864,0.529736358062538,1648,1.01042305334151,-15760,9.66278356836297,27,1.15853658536585,-19,-1.64634146341463,-12,0.731707317073171,-10,0.0434782608695652,-54,-0.234782608695652,145,-0.707317073170732,
10877878,8476.5625,-880,0.539546290619252,1664,1.02023298589822,-15840,9.71183323114654,31,0.914634146341463,-15,-1.89024390243902,-13,0.792682926829268,-13,0.0565217391304348,-54,-0.234782608695652,145,-0.707317073170732,
10878518,8496.09375,-912,0.559166155732679,1488,0.912323727774372,-15936,9.77069282648682,13,1.09756097560976,-18,-0.792682926829268,-21,1.28048780487805,-10,0.0434782608695652,-58,-0.252173913043478,146,-0.712195121951219,
10879158,8515.625,-1008,0.618025751072961,1568,0.96137339055794,-15920,9.7608828939301,6,1.40243902439024,-23,-0.365853658536585,-19,1.15853658536585,-10,0.0434782608695652,-57,-0.247826086956522,145,-0.707317073170732,
10879798,8535.15625,-992,0.608215818516248,1520,0.931943592887799,-15920,9.7608828939301,11,0.975609756097561,-16,-0.670731707317073,-24,1.46341463414634,-8,0.0347826086956522,-55,-0.239130434782609,145,-0.707317073170732,
10880438,8554.6875,-976,0.598405885959534,1456,0.892703862660944,-15936,9.77069282648682,3,1.28048780487805,-21,-0.182926829268293,-27,1.64634146341463,-10,0.0434782608695652,-54,-0.234782608695652,146,-0.712195121951219,
10881078,8574.21875,-992,0.608215818516248,1520,0.931943592887799,-16032,9.8295524218271,-5,1.15853658536585,-19,0.304878048780488,-32,1.95121951219512,-10,0.0434782608695652,-58,-0.252173913043478,146,-0.712195121951219,
10881718,8593.75,-1056,0.647455548743102,1472,0.902513795217658,-16064,9.84917228694053,3,1.21951219512195,-20,-0.182926829268293,-22,1.34146341463415,-9,0.0391304347826087,-54,-0.234782608695652,147,-0.717073170731707,
10882358,8613.28125,-1152,0.706315144083384,1472,0.902513795217658,-16064,9.84917228694053,-5,1.52439024390244,-25,0.304878048780488,-19,1.15853658536585,-10,0.0434782608695652,-55,-0.239130434782609,147,-0.717073170731707,
10882998,8632.8125,-1120,0.686695278969957,1392,0.853464132434089,-16048,9.83936235438381,-11,1.70731707317073,-28,0.670731707317073,-21,1.28048780487805,-10,0.0434782608695652,-52,-0.226086956521739,145,-0.707317073170732,
10883638,8652.34375,-1056,0.647455548743102,1360,0.833844267320662,-16144,9.89822194972409,20,2.07317073170732,-34,-1.21951219512195,-16,0.975609756097561,-9,0.0391304347826087,-52,-0.226086956521739,145,-0.707317073170732,
10884278,8671.875,-1200,0.735744941753525,1296,0.794604537093807,-16192,9.92765174739424,14,2.31707317073171,-38,-0.853658536585366,-17,1.03658536585366,-10,0.0434782608695652,-54,-0.234782608695652,145,-0.707317073170732,
10884918,8691.40625,-1248,0.765174739423666,1392,0.853464132434089,-16160,9.90803188228081,-9,2.5,-41,0.548780487804878,-19,1.15853658536585,-10,0.0434782608695652,-55,-0.239130434782609,146,-0.712195121951219,
10885558,8710.9375,-1072,0.657265481299816,1312,0.804414469650521,-16128,9.88841201716738,-7,2.80487804878049,-46,0.426829268292683,-18,1.09756097560976,-8,0.0347826086956522,-54,-0.234782608695652,145,-0.707317073170732,
10886198,8730.46875,-1072,0.657265481299816,1376,0.843654199877376,-16032,9.8295524218271,6,2.6219512195122,-43,-0.365853658536585,-13,0.792682926829268,-10,0.0434782608695652,-54,-0.234782608695652,144,-0.702439024390244,
10886838,8750,-1152,0.706315144083384,1408,0.863274064990803,-15968,9.79031269160024,-11,2.74390243902439,-45,0.670731707317073,-12,0.731707317073171,-10,0.0434782608695652,-55,-0.239130434782609,146,-0.712195121951219,
10887478,8769.53125,-1040,0.637645616186389,1408,0.863274064990803,-16016,9.81974248927039,-1,2.5,-41,0.0609756097560976,-7,0.426829268292683,-8,0.0347826086956522,-56,-0.243478260869565,145,-0.707317073170732,
10888118,8789.0625,-1024,0.627835683629675,1408,0.863274064990803,-15904,9.75107296137339,16,2.19512195121951,-36,-0.975609756097561,-7,0.426829268292683,-11,0.0478260869565217,-59,-0.256521739130435,147,-0.717073170731707,
10888758,8808.59375,-1056,0.647455548743102,1472,0.902513795217658,-15840,9.71183323114654,15,2.13414634146341,-35,-0.914634146341463,-10,0.609756097560976,-9,0.0391304347826087,-56,-0.243478260869565,146,-0.712195121951219,
10889398,8828.125,-1040,0.637645616186389,1488,0.912323727774372,-15872,9.73145309625996,9,1.76829268292683,-29,-0.548780487804878,-15,0.914634146341463,-11,0.0478260869565217,-52,-0.226086956521739,145,-0.707317073170732,
10890038,8847.65625,-1120,0.686695278969957,1456,0.892703862660944,-15792,9.6824034334764,11,1.64634146341463,-27,-0.670731707317073,-10,0.609756097560976,-11,0.0478260869565217,-53,-0.230434782608696,146,-0.712195121951219,
10890678,8867.1875,-1136,0.696505211526671,1456,0.892703862660944,-15840,9.71183323114654,10,1.46341463414634,-24,-0.609756097560976,-10,0.609756097560976,-8,0.0347826086956522,-54,-0.234782608695652,145,-0.707317073170732,
10891318,8886.71875,-1104,0.676885346413243,1424,0.873083997547517,-15872,9.73145309625996,14,1.03658536585366,-17,-0.853658536585366,-12,0.731707317073171,-9,0.0391304347826087,-54,-0.234782608695652,146,-0.712195121951219,
10891958,8906.25,-1072,0.657265481299816,1392,0.853464132434089,-15824,9.70202329858982,34,1.03658536585366,-17,-2.07317073170732,-14,0.853658536585366,-10,0.0434782608695652,-53,-0.230434782608696,147,-0.717073170731707,
10892598,8925.78125,-1056,0.647455548743102,1376,0.843654199877376,-15712,9.63335377069283,67,0.548780487804878,-9,-4.08536585365854,-10,0.609756097560976,-10,0.0434782608695652,-54,-0.234782608695652,144,-0.702439024390244,
10893238,8945.3125,-1248,0.765174739423666,1392,0.853464132434089,-15680,9.6137339055794,96,-0.121951219512195,2,-5.85365853658537,-2,0.121951219512195,-11,0.0478260869565217,-54,-0.234782608695652,145,-0.707317073170732,
10893878,8964.84375,-1200,0.735744941753525,1440,0.88289393010423,-15824,9.70202329858982,151,-0.0609756097560976,1,-9.20731707317073,21,-1.28048780487805,-9,0.0391304347826087,-55,-0.239130434782609,146,-0.712195121951219,
10894518,8984.375,-1248,0.765174739423666,1280,0.784794604537094,-16112,9.87860208461067,141,-0.548780487804878,9,-8.59756097560976,22,-1.34146341463415,-7,0.0304347826086957,-59,-0.256521739130435,147,-0.717073170731707,
10895158,9003.90625,-1152,0.706315144083384,1168,0.716125076640098,-16192,9.92765174739424,93,-0.731707317073171,12,-5.67073170731707,-1,0.0609756097560976,-8,0.0347826086956522,-52,-0.226086956521739,145,-0.707317073170732,
10895798,9023.4375,-1216,0.745554874310239,1264,0.77498467198038,-16128,9.88841201716738,68,-0.792682926829268,13,-4.14634146341463,-4,0.24390243902439,-9,0.0391304347826087,-54,-0.234782608695652,145,-0.707317073170732,
10896438,9042.96875,-1392,0.853464132434089,1280,0.784794604537094,-15952,9.78050275904353,54,-1.03658536585366,17,-3.29268292682927,8,-0.487804878048781,-9,0.0391304347826087,-53,-0.230434782608696,145,-0.707317073170732,
10897078,9062.5,-1536,0.941753525444513,1312,0.804414469650521,-15792,9.6824034334764,33,-1.46341463414634,24,-2.01219512195122,27,-1.64634146341463,-7,0.0304347826086957,-52,-0.226086956521739,143,-0.697560975609756,
10897718,9082.03125,-1488,0.912323727774372,1232,0.755364806866953,-16048,9.83936235438381,-4,-1.70731707317073,28,0.24390243902439,30,-1.82926829268293,-9,0.0391304347826087,-52,-0.226086956521739,144,-0.702439024390244,
10898358,9101.5625,-1280,0.784794604537094,1072,0.657265481299816,-16080,9.85898221949724,-31,-0.975609756097561,16,1.89024390243902,20,-1.21951219512195,-10,0.0434782608695652,-54,-0.234782608695652,145,-0.707317073170732,
10898998,9121.09375,-1248,0.765174739423666,1072,0.657265481299816,-16080,9.85898221949724,-35,-1.21951219512195,20,2.13414634146341,2,-0.121951219512195,-6,0.0260869565217391,-55,-0.239130434782609,145,-0.707317073170732,
10899638,9140.625,-1280,0.784794604537094,1152,0.706315144083384,-15968,9.79031269160024,-48,-1.46341463414634,24,2.92682926829268,3,-0.182926829268293,-9,0.0391304347826087,-57,-0.247826086956522,147,-0.717073170731707,
10900278,9160.15625,-1312,0.804414469650521,1168,0.716125076640098,-15888,9.74126302881668,-36,-1.28048780487805,21,2.19512195121951,-1,0.0609756097560976,-10,0.0434782608695652,-51,-0.221739130434783,146,-0.712195121951219,
10900918,9179.6875,-1536,0.941753525444513,1136,0.696505211526671,-15824,9.70202329858982,-67,-1.21951219512195,20,4.08536585365854,-1,0.0609756097560976,-6,0.0260869565217391,-57,-0.247826086956522,146,-0.712195121951219,
10901558,9199.21875,-1440,0.88289393010423,1168,0.716125076640098,-15888,9.74126302881668,-135,-0.792682926829268,13,8.23170731707317,-8,0.487804878048781,-7,0.0304347826086957,-57,-0.247826086956522,146,-0.712195121951219,
10902198,9218.75,-992,0.608215818516248,992,0.608215818516248,-15984,9.80012262415696,-103,-0.670731707317073,11,6.28048780487805,-9,0.548780487804878,-8,0.0347826086956522,-54,-0.234782608695652,147,-0.717073170731707,
10902838,9238.28125,-992,0.608215818516248,784,0.48068669527897,-16144,9.89822194972409,-45,-0.365853658536585,6,2.74390243902439,-19,1.15853658536585,-10,0.0434782608695652,-50,-0.217391304347826,145,-0.707317073170732,
10903478,9257.8125,-1248,0.765174739423666,848,0.519926425505825,-16160,9.90803188228081,-82,0.0609756097560976,-1,5,-41,2.5,-8,0.0347826086956522,-58,-0.252173913043478,147,-0.717073170731707,
10904118,9277.34375,-1200,0.735744941753525,832,0.510116492949111,-16048,9.83936235438381,-122,0,0,7.4390243902439,-43,2.6219512195122,-10,0.0434782608695652,-50,-0.217391304347826,145,-0.707317073170732,
10904758,9296.875,-1024,0.627835683629675,848,0.519926425505825,-16128,9.88841201716738,-75,0.731707317073171,-12,4.57317073170732,-40,2.4390243902439,-9,0.0391304347826087,-54,-0.234782608695652,148,-0.721951219512195,
10905398,9316.40625,-1184,0.725935009196812,960,0.58859595340282,-16144,9.89822194972409,-78,0.609756097560976,-10,4.75609756097561,-32,1.95121951219512,-10,0.0434782608695652,-55,-0.239130434782609,147,-0.717073170731707,
10906038,9335.9375,-1232,0.755364806866953,912,0.559166155732679,-16224,9.94727161250766,-110,0.548780487804878,-9,6.70731707317073,-34,2.07317073170732,-10,0.0434782608695652,-51,-0.221739130434783,145,-0.707317073170732,
10906678,9355.46875,-1232,0.755364806866953,800,0.490496627835684,-16368,10.0355610055181,-118,0.670731707317073,-11,7.19512195121951,-37,2.25609756097561,-8,0.0347826086956522,-56,-0.243478260869565,148,-0.721951219512195,
10907318,9375,-1104,0.676885346413243,784,0.48068669527897,-16384,10.0453709380748,-135,1.34146341463415,-22,8.23170731707317,-48,2.92682926829268,-8,0.0347826086956522,-53,-0.230434782608696,147,-0.717073170731707,
10907958,9394.53125,-1008,0.618025751072961,960,0.58859595340282,-16256,9.96689147762109,-116,1.28048780487805,-21,7.07317073170732,-40,2.4390243902439,-8,0.0347826086956522,-54,-0.234782608695652,148,-0.721951219512195,
10908598,9414.0625,-1024,0.627835683629675,976,0.598405885959534,-16272,9.9767014101778,-88,1.34146341463415,-22,5.36585365853659,-30,1.82926829268293,-11,0.0478260869565217,-55,-0.239130434782609,149,-0.726829268292683,
10909238,9433.59375,-800,0.490496627835684,864,0.529736358062538,-16208,9.93746167995095,-64,2.19512195121951,-36,3.90243902439024,-31,1.89024390243902,-12,0.0521739130434783,-55,-0.239130434782609,149,-0.726829268292683,
10909878,9453.125,-832,0.510116492949111,832,0.510116492949111,-16160,9.90803188228081,5,2.5,-41,-0.304878048780488,-13,0.792682926829268,-11,0.0478260869565217,-51,-0.221739130434783,147,-0.717073170731707,
10910518,9472.65625,-992,0.608215818516248,768,0.470876762722256,-16256,9.96689147762109,4,2.6219512195122,-43,-0.24390243902439,-4,0.24390243902439,-9,0.0391304347826087,-56,-0.243478260869565,148,-0.721951219512195,
10911158,9492.1875,-912,0.559166155732679,656,0.402207234825261,-16224,9.94727161250766,-28,2.80487804878049,-46,1.70731707317073,-15,0.914634146341463,-11,0.0478260869565217,-56,-0.243478260869565,150,-0.731707317073171,
10911798,9511.71875,-864,0.529736358062538,752,0.461066830165543,-16256,9.96689147762109,-17,3.10975609756098,-51,1.03658536585366,-15,0.914634146341463,-9,0.0391304347826087,-57,-0.247826086956522,148,-0.721951219512195,
10912438,9531.25,-928,0.568976088289393,816,0.500306560392397,-16192,9.92765174739424,-30,3.10975609756098,-51,1.82926829268293,-12,0.731707317073171,-12,0.0521739130434783,-50,-0.217391304347826,148,-0.721951219512195,
10913078,9550.78125,-880,0.539546290619252,896,0.549356223175966,-16000,9.80993255671367,-54,3.17073170731707,-52,3.29268292682927,-22,1.34146341463415,-12,0.0521739130434783,-53,-0.230434782608696,149,-0.726829268292683,
10913718,9570.3125,-784,0.48068669527897,912,0.559166155732679,-15808,9.69221336603311,-27,2.5,-41,1.64634146341463,-12,0.731707317073171,-10,0.0434782608695652,-50,-0.217391304347826,148,-0.721951219512195,
10914358,9589.84375,-800,0.490496627835684,960,0.58859595340282,-15824,9.70202329858982,6,1.76829268292683,-29,-0.365853658536585,1,-0.0609756097560976,-11,0.0478260869565217,-52,-0.226086956521739,146,-0.712195121951219,
10914998,9609.375,-688,0.421827099938688,816,0.500306560392397,-15888,9.74126302881668,20,0.914634146341463,-15,-1.21951219512195,9,-0.548780487804878,-11,0.0478260869565217,-56,-0.243478260869565,149,-0.726829268292683,
10915638,9628.90625,-640,0.392397302268547,640,0.392397302268547,-15936,9.77069282648682,46,1.03658536585366,-17,-2.80487804878049,8,-0.487804878048781,-10,0.0434782608695652,-52,-0.226086956521739,149,-0.726829268292683,
10916278,9648.4375,-752,0.461066830165543,480,0.29429797670141,-16032,9.8295524218271,40,1.15853658536585,-19,-2.4390243902439,9,-0.548780487804878,-10,0.0434782608695652,-55,-0.239130434782609,149,-0.726829268292683,
10916918,9667.96875,-768,0.470876762722256,288,0.176578786020846,-16064,9.84917228694053,-1,1.34146341463415,-22,0.0609756097560976,-11,0.670731707317073,-9,0.0391304347826087,-56,-0.243478260869565,149,-0.726829268292683,
10917558,9687.5,-720,0.441446965052115,224,0.137339055793991,-16320,10.0061312078479,-11,1.70731707317073,-28,0.670731707317073,-26,1.58536585365854,-9,0.0391304347826087,-50,-0.217391304347826,148,-0.721951219512195,
10918198,9707.03125,-976,0.598405885959534,528,0.323727774371551,-16304,9.99632127529123,-18,2.92682926829268,-48,1.09756097560976,-41,2.5,-9,0.0391304347826087,-52,-0.226086956521739,147,-0.717073170731707,
10918838,9726.5625,-1168,0.716125076640098,1008,0.618025751072961,-16016,9.81974248927039,-52,3.84146341463415,-63,3.17073170731707,-55,3.35365853658537,-11,0.0478260869565217,-50,-0.217391304347826,148,-0.721951219512195,
10919478,9746.09375,-1104,0.676885346413243,1312,0.804414469650521,-15936,9.77069282648682,-65,4.02439024390244,-66,3.96341463414634,-50,3.04878048780488,-9,0.0391304347826087,-54,-0.234782608695652,150,-0.731707317073171,
10920118,9765.625,-928,0.568976088289393,1376,0.843654199877376,-15872,9.73145309625996,-38,3.53658536585366,-58,2.31707317073171,-45,2.74390243902439,-11,0.0478260869565217,-55,-0.239130434782609,149,-0.726829268292683,
10920758,9785.15625,-848,0.519926425505825,1216,0.745554874310239,-15792,9.6824034334764,19,2.5,-41,-1.15853658536585,-19,1.15853658536585,-9,0.0391304347826087,-53,-0.230434782608696,149,-0.726829268292683,
10921398,9804.6875,-896,0.549356223175966,1024,0.627835683629675,-15760,9.66278356836297,42,1.76829268292683,-29,-2.5609756097561,1,-0.0609756097560976,-10,0.0434782608695652,-49,-0.21304347826087,147,-0.717073170731707,
10922038,9824.21875,-896,0.549356223175966,800,0.490496627835684,-15808,9.69221336603311,38,1.03658536585366,-17,-2.31707317073171,14,-0.853658536585366,-11,0.0478260869565217,-55,-0.239130434782609,149,-0.726829268292683,
10922678,9843.75,-848,0.519926425505825,528,0.323727774371551,-15792,9.6824034334764,29,0.670731707317073,-11,-1.76829268292683,17,-1.03658536585366,-10,0.0434782608695652,-56,-0.243478260869565,149,-0.726829268292683,
10923318,9863.28125,-832,0.510116492949111,608,0.37277743715512,-15776,9.67259350091968,11,0.731707317073171,-12,-0.670731707317073,7,-0.426829268292683,-13,0.0565217391304348,-51,-0.221739130434783,147,-0.717073170731707,
10923958,9882.8125,-704,0.431637032495402,592,0.362967504598406,-15792,9.6824034334764,-18,0,0,1.09756097560976,0,0,-12,0.0521739130434783,-55,-0.239130434782609,148,-0.721951219512195,
10924598,9902.34375,-624,0.382587369711833,640,0.392397302268547,-15808,9.69221336603311,9,-0.365853658536585,6,-0.548780487804878,7,-0.426829268292683,-10,0.0434782608695652,-49,-0.21304347826087,148,-0.721951219512195,
10925238,9921.875,-848,0.519926425505825,624,0.382587369711833,-15872,9.73145309625996,22,-0.670731707317073,11,-1.34146341463415,9,-0.548780487804878,-10,0.0434782608695652,-49,-0.21304347826087,148,-0.721951219512195,
10925878,9941.40625,-800,0.490496627835684,832,0.510116492949111,-16048,9.83936235438381,8,-0.426829268292683,7,-0.487804878048781,2,-0.121951219512195,-8,0.0347826086956522,-56,-0.243478260869565,148,-0.721951219512195,
10926518,9960.9375,-976,0.598405885959534,992,0.608215818516248,-16096,9.86879215205395,9,-0.792682926829268,13,-0.548780487804878,2,-0.121951219512195,-9,0.0391304347826087,-56,-0.243478260869565,149,-0.726829268292683,
10927158,9980.46875,-960,0.58859595340282,992,0.608215818516248,-16016,9.81974248927039,12,-0.731707317073171,12,-0.731707317073171,9,-0.548780487804878,-11,0.0478260869565217,-52,-0.226086956521739,148,-0.721951219512195,
10927798,10000,-912,0.559166155732679,848,0.519926425505825,-16128,9.88841201716738,30,-0.792682926829268,13,-1.82926829268293,11,-0.670731707317073,-8,0.0347826086956522,-53,-0.230434782608696,147,-0.717073170731707,
10928438,10019.53125,-1088,0.66707541385653,656,0.402207234825261,-16352,10.0257510729614,60,-0.182926829268293,3,-3.65853658536585,26,-1.58536585365854,-8,0.0347826086956522,-56,-0.243478260869565,149,-0.726829268292683,
10929078,10039.0625,-896,0.549356223175966,592,0.362967504598406,-16464,10.0944206008584,26,0.24390243902439,-4,-1.58536585365854,18,-1.09756097560976,-8,0.0347826086956522,-55,-0.239130434782609,149,-0.726829268292683,
10929718,10058.59375,-624,0.382587369711833,528,0.323727774371551,-16560,10.1532801961987,13,0.24390243902439,-4,-0.792682926829268,13,-0.792682926829268,-10,0.0434782608695652,-50,-0.217391304347826,147,-0.717073170731707,
10930358,10078.125,-528,0.323727774371551,448,0.274678111587983,-16544,10.1434702636419,43,1.21951219512195,-20,-2.6219512195122,-8,0.487804878048781,-9,0.0391304347826087,-51,-0.221739130434783,147,-0.717073170731707,
10930998,10097.65625,-992,0.608215818516248,400,0.245248313917842,-16608,10.1827099938688,59,2.19512195121951,-36,-3.59756097560976,-12,0.731707317073171,-10,0.0434782608695652,-52,-0.226086956521739,149,-0.726829268292683,
10931638,10117.1875,-976,0.598405885959534,480,0.29429797670141,-16560,10.1532801961987,-4,2.92682926829268,-48,0.24390243902439,-11,0.670731707317073,-11,0.0478260869565217,-55,-0.239130434782609,148,-0.721951219512195,
10932278,10136.71875,-784,0.48068669527897,480,0.29429797670141,-16544,10.1434702636419,-51,3.59756097560976,-59,3.10975609756098,-22,1.34146341463415,-11,0.0478260869565217,-53,-0.230434782608696,149,-0.726829268292683,
10932918,10156.25,-912,0.559166155732679,560,0.343347639484979,-16224,9.94727161250766,0,4.14634146341463,-68,0,-19,1.15853658536585,-8,0.0347826086956522,-54,-0.234782608695652,147,-0.717073170731707,
10933558,10175.78125,-960,0.58859595340282,624,0.382587369711833,-15984,9.80012262415696,5,4.14634146341463,-68,-0.304878048780488,-18,1.09756097560976,-10,0.0434782608695652,-55,-0.239130434782609,149,-0.726829268292683,
10934198,10195.3125,-1136,0.696505211526671,736,0.451256897608829,-15888,9.74126302881668,6,4.26829268292683,-70,-0.365853658536585,-16,0.975609756097561,-10,0.0434782608695652,-52,-0.226086956521739,148,-0.721951219512195,
10934838,10214.84375,-1184,0.725935009196812,800,0.490496627835684,-15856,9.72164316370325,-1,4.08536585365854,-67,0.0609756097560976,-21,1.28048780487805,-9,0.0391304347826087,-55,-0.239130434782609,148,-0.721951219512195,
10935478,10234.375,-1072,0.657265481299816,816,0.500306560392397,-15952,9.78050275904353,-28,4.32926829268293,-71,1.70731707317073,-28,1.70731707317073,-8,0.0347826086956522,-54,-0.234782608695652,148,-0.721951219512195,
10936118,10253.90625,-832,0.510116492949111,800,0.490496627835684,-16000,9.80993255671367,-26,3.53658536585366,-58,1.58536585365854,-30,1.82926829268293,-10,0.0434782608695652,-51,-0.221739130434783,149,-0.726829268292683,
10936758,10273.4375,-768,0.470876762722256,752,0.461066830165543,-15872,9.73145309625996,1,3.10975609756098,-51,-0.0609756097560976,-24,1.46341463414634,-11,0.0478260869565217,-50,-0.217391304347826,149,-0.726829268292683,
10937398,10292.96875,-784,0.48068669527897,704,0.431637032495402,-15856,9.72164316370325,1,2.5,-41,-0.0609756097560976,-17,1.03658536585366,-9,0.0391304347826087,-52,-0.226086956521739,147,-0.717073170731707,
10938038,10312.5,-672,0.412017167381974,688,0.421827099938688,-15840,9.71183323114654,2,2.25609756097561,-37,-0.121951219512195,-11,0.670731707317073,-10,0.0434782608695652,-53,-0.230434782608696,147,-0.717073170731707,
10938678,10332.03125,-640,0.392397302268547,688,0.421827099938688,-15888,9.74126302881668,20,1.76829268292683,-29,-1.21951219512195,-20,1.21951219512195,-10,0.0434782608695652,-52,-0.226086956521739,148,-0.721951219512195,
10939318,10351.5625,-800,0.490496627835684,704,0.431637032495402,-16032,9.8295524218271,-11,1.52439024390244,-25,0.670731707317073,-28,1.70731707317073,-14,0.0608695652173913,-50,-0.217391304347826,147,-0.717073170731707,
10939958,10371.09375,-1408,0.863274064990803,656,0.402207234825261,-16208,9.93746167995095,-219,0.670731707317073,-11,13.3536585365854,-64,3.90243902439024,-8,0.0347826086956522,-54,-0.234782608695652,150,-0.731707317073171,
10940598,10390.625,-640,0.392397302268547,544,0.333537706928265,-16128,9.88841201716738,-441,2.01219512195122,-33,26.890243902439,-108,6.58536585365854,-10,0.0434782608695652,-55,-0.239130434782609,150,-0.731707317073171,
10941238,10410.15625,144,-0.088289393010423,624,0.382587369711833,-15760,9.66278356836297,-290,1.89024390243902,-31,17.6829268292683,-81,4.9390243902439,-10,0.0434782608695652,-50,-0.217391304347826,149,-0.726829268292683,
10941878,10429.6875,160,-0.0980993255671367,608,0.37277743715512,-15776,9.67259350091968,-30,1.64634146341463,-27,1.82926829268293,-45,2.74390243902439,-10,0.0434782608695652,-51,-0.221739130434783,149,-0.726829268292683,
10942518,10449.21875,-368,0.225628448804414,512,0.313917841814838,-15984,9.80012262415696,97,1.15853658536585,-19,-5.91463414634146,-26,1.58536585365854,-12,0.0521739130434783,-53,-0.230434782608696,151,-0.736585365853659,
10943158,10468.75,-640,0.392397302268547,464,0.284488044144696,-16096,9.86879215205395,46,0.975609756097561,-16,-2.80487804878049,-36,2.19512195121951,-12,0.0521739130434783,-52,-0.226086956521739,150,-0.731707317073171,
10943798,10488.28125,-608,0.37277743715512,400,0.245248313917842,-16176,9.91784181483752,7,0.853658536585366,-14,-0.426829268292683,-46,2.80487804878049,-11,0.0478260869565217,-48,-0.208695652173913,149,-0.726829268292683,
10944438,10507.8125,-576,0.353157572041692,336,0.206008583690987,-16064,9.84917228694053,31,1.70731707317073,-28,-1.89024390243902,-53,3.23170731707317,-11,0.0478260869565217,-49,-0.21304347826087,148,-0.721951219512195,
10945078,10527.34375,-720,0.441446965052115,320,0.196198651134273,-16192,9.92765174739424,52,1.76829268292683,-29,-3.17073170731707,-57,3.47560975609756,-11,0.0478260869565217,-53,-0.230434782608696,149,-0.726829268292683,
10945718,10546.875,-896,0.549356223175966,368,0.225628448804414,-16128,9.88841201716738,42,1.82926829268293,-30,-2.5609756097561,-53,3.23170731707317,-11,0.0478260869565217,-50,-0.217391304347826,150,-0.731707317073171,
10946358,10566.40625,-1152,0.706315144083384,416,0.255058246474555,-16208,9.93746167995095,34,2.13414634146341,-35,-2.07317073170732,-48,2.92682926829268,-10,0.0434782608695652,-54,-0.234782608695652,149,-0.726829268292683,
10946998,10585.9375,-1184,0.725935009196812,448,0.274678111587983,-16352,10.0257510729614,-1,2.68292682926829,-44,0.0609756097560976,-45,2.74390243902439,-12,0.0521739130434783,-49,-0.21304347826087,149,-0.726829268292683,
