Shimmer,Shimmer,Shimmer,Shimmer,Shimmer,Shimmer,Shimmer,Shimmer,Shimmer,Shimmer,Shimmer,Shimmer,Shimmer,Shimmer,Shimmer,Shimmer,Shimmer,Shimmer,Shimmer,Shimmer,
Timestamp,Timestamp,Wide Range Accelerometer X,Wide Range Accelerometer X,Wide Range Accelerometer Y,Wide Range Accelerometer Y,Wide Range Accelerometer Z,Wide Range Accelerometer Z,Gyroscope X,Gyroscope X,Gyroscope Y,Gyroscope Y,Gyroscope Z,Gyroscope Z,Magnetometer X,Magnetometer X,Magnetometer Y,Magnetometer Y,Magnetometer Z,Magnetometer Z,
RAW,CAL,RAW,CAL,RAW,CAL,RAW,CAL,RAW,CAL,RAW,CAL,RAW,CAL,RAW,CAL,RAW,CAL,RAW,CAL,
no units,mSecs,no units,m/(sec^2),no units,m/(sec^2),no units,m/(sec^2),no units,deg/sec,no units,deg/sec,no units,deg/sec,no units,local,no units,local,no units,local,
2186678,0,4576,-2.80564071122011,-15232,-9.33905579399141,-2832,1.73635806253832,-13,2.07317073170732,-34,0.792682926829268,7,-0.426829268292683,-69,0.3,39,0.169565217391304,129,-0.629268292682927,
2187318,19.53125,4608,-2.82526057633354,-15280,-9.36848559166156,-2784,1.70692826486818,-23,2.07317073170732,-34,1.40243902439024,5,-0.304878048780488,-70,0.304347826086957,40,0.173913043478261,130,-0.634146341463415,
2187958,39.0625,4656,-2.85469037400368,-15312,-9.38810545677498,-2800,1.71673819742489,-31,2.31707317073171,-38,1.89024390243902,6,-0.365853658536585,-68,0.295652173913043,37,0.160869565217391,130,-0.634146341463415,
2188598,58.59375,4704,-2.88412017167382,-15344,-9.40772532188841,-2848,1.74616799509503,-29,2.5609756097561,-42,1.76829268292683,7,-0.426829268292683,-69,0.3,41,0.178260869565217,129,-0.629268292682927,
2189238,78.125,4736,-2.90374003678725,-15344,-9.40772532188841,-2816,1.72654812998161,-16,2.5,-41,0.975609756097561,4,-0.24390243902439,-68,0.295652173913043,40,0.173913043478261,127,-0.619512195121951,
2189878,97.65625,4816,-2.95278969957082,-15312,-9.38810545677498,-2688,1.6480686695279,-6,2.68292682926829,-44,0.365853658536585,4,-0.24390243902439,-70,0.304347826086957,37,0.160869565217391,130,-0.634146341463415,
2190518,117.1875,4752,-2.91354996934396,-15312,-9.38810545677498,-2656,1.62844880441447,12,2.5,-41,-0.731707317073171,0,0,-69,0.3,37,0.160869565217391,130,-0.634146341463415,
2191158,136.71875,4656,-2.85469037400368,-15312,-9.38810545677498,-2704,1.65787860208461,37,2.31707317073171,-38,-2.25609756097561,1,-0.0609756097560976,-67,0.291304347826087,40,0.173913043478261,129,-0.629268292682927,
2191798,156.25,4640,-2.84488044144697,-15328,-9.3979153893317,-2672,1.63825873697118,51,2.01219512195122,-33,-3.10975609756098,0,0,-68,0.295652173913043,38,0.165217391304348,130,-0.634146341463415,
2192438,175.78125,4560,-2.7958307786634,-15344,-9.40772532188841,-2608,1.59901900674433,51,1.95121951219512,-32,-3.10975609756098,0,0,-69,0.3,37,0.160869565217391,130,-0.634146341463415,
2193078,195.3125,4576,-2.80564071122011,-15296,-9.37829552421827,-2624,1.60882893930104,47,2.07317073170732,-34,-2.86585365853659,0,0,-69,0.3,40,0.173913043478261,128,-0.624390243902439,
2193718,214.84375,4512,-2.76640098099326,-15360,-9.41753525444513,-2560,1.56958920907419,46,1.64634146341463,-27,-2.80487804878049,5,-0.304878048780488,-68,0.295652173913043,36,0.156521739130435,129,-0.629268292682927,
2194358,234.375,4512,-2.76640098099326,-15360,-9.41753525444513,-2608,1.59901900674433,43,1.46341463414634,-24,-2.6219512195122,5,-0.304878048780488,-69,0.3,41,0.178260869565217,128,-0.624390243902439,
2194998,253.90625,4464,-2.73697118332311,-15392,-9.43715511955855,-2688,1.6480686695279,38,1.64634146341463,-27,-2.31707317073171,7,-0.426829268292683,-69,0.3,41,0.178260869565217,129,-0.629268292682927,
2195638,273.4375,4448,-2.7271612507664,-15376,-9.42734518700184,-2704,1.65787860208461,32,1.70731707317073,-28,-1.95121951219512,10,-0.609756097560976,-69,0.3,41,0.178260869565217,129,-0.629268292682927,
2196278,292.96875,4352,-2.66830165542612,-15344,-9.40772532188841,-2688,1.6480686695279,17,2.19512195121951,-36,-1.03658536585366,13,-0.792682926829268,-69,0.3,36,0.156521739130435,129,-0.629268292682927,
2196918,312.5,4352,-2.66830165542612,-15248,-9.34886572654813,-2720,1.66768853464132,-1,2.37804878048781,-39,0.0609756097560976,11,-0.670731707317073,-68,0.295652173913043,36,0.156521739130435,130,-0.634146341463415,
2197558,332.03125,4400,-2.69773145309626,-15392,-9.43715511955855,-2720,1.66768853464132,-28,2.4390243902439,-40,1.70731707317073,4,-0.24390243902439,-68,0.295652173913043,39,0.169565217391304,129,-0.629268292682927,
2198198,351.5625,4432,-2.71735131820969,-15488,-9.49601471489883,-2672,1.63825873697118,-44,2.6219512195122,-43,2.68292682926829,13,-0.792682926829268,-68,0.295652173913043,42,0.182608695652174,128,-0.624390243902439,
2198838,371.09375,4576,-2.80564071122011,-15440,-9.46658491722869,-2768,1.69711833231147,-41,3.23170731707317,-53,2.5,18,-1.09756097560976,-67,0.291304347826087,43,0.18695652173913,129,-0.629268292682927,
2199478,390.625,4496,-2.75659104843654,-15328,-9.3979153893317,-2736,1.67749846719804,-29,3.53658536585366,-58,1.76829268292683,22,-1.34146341463415,-67,0.291304347826087,38,0.165217391304348,130,-0.634146341463415,
2200118,410.15625,4480,-2.74678111587983,-15248,-9.34886572654813,-2672,1.63825873697118,-28,3.29268292682927,-54,1.70731707317073,20,-1.21951219512195,-67,0.291304347826087,40,0.173913043478261,129,-0.629268292682927,
2200758,429.6875,4624,-2.83507050889025,-15328,-9.3979153893317,-2688,1.6480686695279,-32,2.92682926829268,-48,1.95121951219512,15,-0.914634146341463,-69,0.3,42,0.182608695652174,129,-0.629268292682927,
2201398,449.21875,4656,-2.85469037400368,-15328,-9.3979153893317,-2704,1.65787860208461,-22,2.98780487804878,-49,1.34146341463415,9,-0.548780487804878,-69,0.3,37,0.160869565217391,130,-0.634146341463415,
2202038,468.75,4656,-2.85469037400368,-15344,-9.40772532188841,-2736,1.67749846719804,-7,3.04878048780488,-50,0.426829268292683,10,-0.609756097560976,-67,0.291304347826087,38,0.165217391304348,130,-0.634146341463415,
2202678,488.28125,4560,-2.7958307786634,-15328,-9.3979153893317,-2688,1.6480686695279,11,2.98780487804878,-49,-0.670731707317073,6,-0.365853658536585,-67,0.291304347826087,38,0.165217391304348,129,-0.629268292682927,
2203318,507.8125,4528,-2.77621091354997,-15360,-9.41753525444513,-2608,1.59901900674433,12,2.74390243902439,-45,-0.731707317073171,-1,0.0609756097560976,-67,0.291304347826087,36,0.156521739130435,129,-0.629268292682927,
2203958,527.34375,4544,-2.78602084610668,-15392,-9.43715511955855,-2720,1.66768853464132,15,2.68292682926829,-44,-0.914634146341463,-3,0.182926829268293,-68,0.295652173913043,38,0.165217391304348,130,-0.634146341463415,
2204598,546.875,4464,-2.73697118332311,-15360,-9.41753525444513,-2672,1.63825873697118,18,2.74390243902439,-45,-1.09756097560976,-5,0.304878048780488,-68,0.295652173913043,41,0.178260869565217,131,-0.639024390243902,
2205238,566.40625,4480,-2.74678111587983,-15264,-9.35867565910484,-2608,1.59901900674433,23,2.37804878048781,-39,-1.40243902439024,-5,0.304878048780488,-68,0.295652173913043,41,0.178260869565217,128,-0.624390243902439,
2205878,585.9375,4480,-2.74678111587983,-15280,-9.36848559166156,-2544,1.55977927651747,27,2.07317073170732,-34,-1.64634146341463,0,0,-66,0.28695652173913,38,0.165217391304348,128,-0.624390243902439,
2206518,605.46875,4528,-2.77621091354997,-15408,-9.44696505211527,-2576,1.5793991416309,32,2.07317073170732,-34,-1.95121951219512,-2,0.121951219512195,-69,0.3,40,0.173913043478261,130,-0.634146341463415,
2207158,625,4432,-2.71735131820969,-15376,-9.42734518700184,-2640,1.61863887185776,30,2.19512195121951,-36,-1.82926829268293,0,0,-69,0.3,41,0.178260869565217,130,-0.634146341463415,
2207798,644.53125,4448,-2.7271612507664,-15376,-9.42734518700184,-2640,1.61863887185776,23,2.19512195121951,-36,-1.40243902439024,4,-0.24390243902439,-67,0.291304347826087,39,0.169565217391304,127,-0.619512195121951,
2208438,664.0625,4480,-2.74678111587983,-15360,-9.41753525444513,-2608,1.59901900674433,22,2.19512195121951,-36,-1.34146341463415,3,-0.182926829268293,-67,0.291304347826087,37,0.160869565217391,130,-0.634146341463415,
2209078,683.59375,4480,-2.74678111587983,-15328,-9.3979153893317,-2608,1.59901900674433,22,1.95121951219512,-32,-1.34146341463415,3,-0.182926829268293,-68,0.295652173913043,39,0.169565217391304,129,-0.629268292682927,
2209718,703.125,4448,-2.7271612507664,-15408,-9.44696505211527,-2576,1.5793991416309,24,2.19512195121951,-36,-1.46341463414634,6,-0.365853658536585,-68,0.295652173913043,40,0.173913043478261,128,-0.624390243902439,
2210358,722.65625,4432,-2.71735131820969,-15376,-9.42734518700184,-2592,1.58920907418761,23,2.19512195121951,-36,-1.40243902439024,6,-0.365853658536585,-67,0.291304347826087,37,0.160869565217391,130,-0.634146341463415,
2210998,742.1875,4432,-2.71735131820969,-15392,-9.43715511955855,-2624,1.60882893930104,28,2.07317073170732,-34,-1.70731707317073,7,-0.426829268292683,-67,0.291304347826087,43,0.18695652173913,128,-0.624390243902439,
2211638,761.71875,4448,-2.7271612507664,-15392,-9.43715511955855,-2672,1.63825873697118,29,2.13414634146341,-35,-1.76829268292683,3,-0.182926829268293,-68,0.295652173913043,39,0.169565217391304,128,-0.624390243902439,
2212278,781.25,4464,-2.73697118332311,-15408,-9.44696505211527,-2720,1.66768853464132,30,1.95121951219512,-32,-1.82926829268293,3,-0.182926829268293,-66,0.28695652173913,40,0.173913043478261,129,-0.629268292682927,
2212918,800.78125,4416,-2.70754138565297,-15376,-9.42734518700184,-2736,1.67749846719804,34,2.13414634146341,-35,-2.07317073170732,1,-0.0609756097560976,-67,0.291304347826087,39,0.169565217391304,129,-0.629268292682927,
2213558,820.3125,4464,-2.73697118332311,-15328,-9.3979153893317,-2640,1.61863887185776,36,2.13414634146341,-35,-2.19512195121951,3,-0.182926829268293,-68,0.295652173913043,38,0.165217391304348,128,-0.624390243902439,
2214198,839.84375,4432,-2.71735131820969,-15296,-9.37829552421827,-2672,1.63825873697118,38,2.19512195121951,-36,-2.31707317073171,1,-0.0609756097560976,-66,0.28695652173913,39,0.169565217391304,128,-0.624390243902439,
2214838,859.375,4480,-2.74678111587983,-15392,-9.43715511955855,-2752,1.68730839975475,36,2.07317073170732,-34,-2.19512195121951,1,-0.0609756097560976,-67,0.291304347826087,37,0.160869565217391,127,-0.619512195121951,
2215478,878.90625,4432,-2.71735131820969,-15504,-9.50582464745555,-2624,1.60882893930104,36,2.01219512195122,-33,-2.19512195121951,2,-0.121951219512195,-67,0.291304347826087,39,0.169565217391304,128,-0.624390243902439,
2216118,898.4375,4416,-2.70754138565297,-15472,-9.48620478234212,-2624,1.60882893930104,27,2.19512195121951,-36,-1.64634146341463,-1,0.0609756097560976,-68,0.295652173913043,41,0.178260869565217,128,-0.624390243902439,
2216758,917.96875,4416,-2.70754138565297,-15440,-9.46658491722869,-2608,1.59901900674433,28,2.31707317073171,-38,-1.70731707317073,0,0,-66,0.28695652173913,38,0.165217391304348,127,-0.619512195121951,
2217398,937.5,4288,-2.62906192519926,-15376,-9.42734518700184,-2592,1.58920907418761,24,2.25609756097561,-37,-1.46341463414634,2,-0.121951219512195,-67,0.291304347826087,37,0.160869565217391,128,-0.624390243902439,
2218038,957.03125,4368,-2.67811158798283,-15392,-9.43715511955855,-2688,1.6480686695279,29,2.19512195121951,-36,-1.76829268292683,0,0,-67,0.291304347826087,43,0.18695652173913,129,-0.629268292682927,
2218678,976.5625,4336,-2.6584917228694,-15424,-9.45677498467198,-2720,1.66768853464132,34,2.25609756097561,-37,-2.07317073170732,-1,0.0609756097560976,-67,0.291304347826087,39,0.169565217391304,127,-0.619512195121951,
2219318,996.09375,4288,-2.62906192519926,-15312,-9.38810545677498,-2640,1.61863887185776,26,2.19512195121951,-36,-1.58536585365854,-8,0.487804878048781,-66,0.28695652173913,37,0.160869565217391,130,-0.634146341463415,
2219958,1015.625,4336,-2.6584917228694,-15424,-9.45677498467198,-2672,1.63825873697118,16,2.25609756097561,-37,-0.975609756097561,-3,0.182926829268293,-67,0.291304347826087,42,0.182608695652174,128,-0.624390243902439,
2220598,1035.15625,4432,-2.71735131820969,-15440,-9.46658491722869,-2656,1.62844880441447,26,2.6219512195122,-43,-1.58536585365854,-1,0.0609756097560976,-66,0.28695652173913,41,0.178260869565217,128,-0.624390243902439,
2221238,1054.6875,4432,-2.71735131820969,-15456,-9.47639484978541,-2688,1.6480686695279,44,2.5609756097561,-42,-2.68292682926829,4,-0.24390243902439,-66,0.28695652173913,38,0.165217391304348,129,-0.629268292682927,
2221878,1074.21875,4256,-2.60944206008584,-15328,-9.3979153893317,-2672,1.63825873697118,32,2.4390243902439,-40,-1.95121951219512,-1,0.0609756097560976,-67,0.291304347826087,38,0.165217391304348,129,-0.629268292682927,
2222518,1093.75,4368,-2.67811158798283,-15328,-9.3979153893317,-2688,1.6480686695279,23,2.37804878048781,-39,-1.40243902439024,-9,0.548780487804878,-65,0.282608695652174,40,0.173913043478261,128,-0.624390243902439,
2223158,1113.28125,4336,-2.6584917228694,-15328,-9.3979153893317,-2704,1.65787860208461,23,2.68292682926829,-44,-1.40243902439024,-10,0.609756097560976,-66,0.28695652173913,39,0.169565217391304,128,-0.624390243902439,
2223798,1132.8125,4304,-2.63887185775598,-15344,-9.40772532188841,-2752,1.68730839975475,23,2.68292682926829,-44,-1.40243902439024,-10,0.609756097560976,-67,0.291304347826087,37,0.160869565217391,128,-0.624390243902439,
2224438,1152.34375,4320,-2.64868179031269,-15424,-9.45677498467198,-2608,1.59901900674433,22,2.6219512195122,-43,-1.34146341463415,-6,0.365853658536585,-67,0.291304347826087,38,0.165217391304348,128,-0.624390243902439,
2225078,1171.875,4240,-2.59963212752912,-15392,-9.43715511955855,-2592,1.58920907418761,16,2.5609756097561,-42,-0.975609756097561,-5,0.304878048780488,-66,0.28695652173913,37,0.160869565217391,127,-0.619512195121951,
2225718,1191.40625,4288,-2.62906192519926,-15440,-9.46658491722869,-2624,1.60882893930104,11,2.74390243902439,-45,-0.670731707317073,-5,0.304878048780488,-66,0.28695652173913,37,0.160869565217391,128,-0.624390243902439,
2226358,1210.9375,4288,-2.62906192519926,-15184,-9.30962599632127,-2672,1.63825873697118,4,2.86585365853659,-47,-0.24390243902439,-9,0.548780487804878,-66,0.28695652173913,43,0.18695652173913,128,-0.624390243902439,
2226998,1230.46875,4336,-2.6584917228694,-15360,-9.41753525444513,-2640,1.61863887185776,-6,2.80487804878049,-46,0.365853658536585,-14,0.853658536585366,-69,0.3,41,0.178260869565217,129,-0.629268292682927,
2227638,1250,4336,-2.6584917228694,-15312,-9.38810545677498,-2656,1.62844880441447,-15,3.23170731707317,-53,0.914634146341463,-14,0.853658536585366,-65,0.282608695652174,37,0.160869565217391,128,-0.624390243902439,
2228278,1269.53125,4384,-2.68792152053955,-15408,-9.44696505211527,-2624,1.60882893930104,-5,3.53658536585366,-58,0.304878048780488,-11,0.670731707317073,-66,0.28695652173913,37,0.160869565217391,129,-0.629268292682927,
2228918,1289.0625,4352,-2.66830165542612,-15456,-9.47639484978541,-2656,1.62844880441447,-9,3.78048780487805,-62,0.548780487804878,-11,0.670731707317073,-67,0.291304347826087,43,0.18695652173913,129,-0.629268292682927,
2229558,1308.59375,4272,-2.61925199264255,-15328,-9.3979153893317,-2608,1.59901900674433,-26,3.35365853658537,-55,1.58536585365854,-14,0.853658536585366,-67,0.291304347826087,40,0.173913043478261,127,-0.619512195121951,
2230198,1328.125,4352,-2.66830165542612,-15328,-9.3979153893317,-2560,1.56958920907419,-16,2.80487804878049,-46,0.975609756097561,-13,0.792682926829268,-66,0.28695652173913,37,0.160869565217391,129,-0.629268292682927,
2230838,1347.65625,4416,-2.70754138565297,-15312,-9.38810545677498,-2576,1.5793991416309,1,2.80487804878049,-46,-0.0609756097560976,-8,0.487804878048781,-66,0.28695652173913,37,0.160869565217391,130,-0.634146341463415,
2231478,1367.1875,4336,-2.6584917228694,-15360,-9.41753525444513,-2624,1.60882893930104,-1,3.17073170731707,-52,0.0609756097560976,-8,0.487804878048781,-66,0.28695652173913,40,0.173913043478261,127,-0.619512195121951,
2232118,1386.71875,4320,-2.64868179031269,-15376,-9.42734518700184,-2576,1.5793991416309,-13,3.41463414634146,-56,0.792682926829268,-6,0.365853658536585,-68,0.295652173913043,41,0.178260869565217,127,-0.619512195121951,
2232758,1406.25,4432,-2.71735131820969,-15424,-9.45677498467198,-2576,1.5793991416309,-30,3.41463414634146,-56,1.82926829268293,-12,0.731707317073171,-67,0.291304347826087,39,0.169565217391304,129,-0.629268292682927,
2233398,1425.78125,4432,-2.71735131820969,-15488,-9.49601471489883,-2608,1.59901900674433,-31,4.02439024390244,-66,1.89024390243902,-18,1.09756097560976,-67,0.291304347826087,38,0.165217391304348,129,-0.629268292682927,
2234038,1445.3125,4448,-2.7271612507664,-15552,-9.53525444512569,-2672,1.63825873697118,-23,3.90243902439024,-64,1.40243902439024,-19,1.15853658536585,-67,0.291304347826087,40,0.173913043478261,127,-0.619512195121951,
2234678,1464.84375,4384,-2.68792152053955,-15456,-9.47639484978541,-2608,1.59901900674433,-23,4.08536585365854,-67,1.40243902439024,-21,1.28048780487805,-67,0.291304347826087,43,0.18695652173913,127,-0.619512195121951,
2235318,1484.375,4352,-2.66830165542612,-15408,-9.44696505211527,-2640,1.61863887185776,-32,4.39024390243902,-72,1.95121951219512,-18,1.09756097560976,-68,0.295652173913043,38,0.165217391304348,129,-0.629268292682927,
2235958,1503.90625,4336,-2.6584917228694,-15344,-9.40772532188841,-2560,1.56958920907419,-40,4.32926829268293,-71,2.4390243902439,-10,0.609756097560976,-67,0.291304347826087,37,0.160869565217391,128,-0.624390243902439,
2236598,1523.4375,4400,-2.69773145309626,-15328,-9.3979153893317,-2640,1.61863887185776,-46,4.39024390243902,-72,2.80487804878049,-7,0.426829268292683,-67,0.291304347826087,37,0.160869565217391,129,-0.629268292682927,
2237238,1542.96875,4432,-2.71735131820969,-15408,-9.44696505211527,-2656,1.62844880441447,-41,4.08536585365854,-67,2.5,-8,0.487804878048781,-67,0.291304347826087,42,0.182608695652174,127,-0.619512195121951,
2237878,1562.5,4448,-2.7271612507664,-15392,-9.43715511955855,-2704,1.65787860208461,-28,4.20731707317073,-69,1.70731707317073,-2,0.121951219512195,-67,0.291304347826087,42,0.182608695652174,130,-0.634146341463415,
2238518,1582.03125,4464,-2.73697118332311,-15408,-9.44696505211527,-2672,1.63825873697118,-23,3.90243902439024,-64,1.40243902439024,-2,0.121951219512195,-68,0.295652173913043,41,0.178260869565217,128,-0.624390243902439,
2239158,1601.5625,4464,-2.73697118332311,-15408,-9.44696505211527,-2624,1.60882893930104,-18,3.96341463414634,-65,1.09756097560976,-3,0.182926829268293,-67,0.291304347826087,37,0.160869565217391,129,-0.629268292682927,
2239798,1621.09375,4544,-2.78602084610668,-15440,-9.46658491722869,-2736,1.67749846719804,-8,3.84146341463415,-63,0.487804878048781,-4,0.24390243902439,-68,0.295652173913043,37,0.160869565217391,129,-0.629268292682927,
2240438,1640.625,4480,-2.74678111587983,-15264,-9.35867565910484,-2800,1.71673819742489,2,3.71951219512195,-61,-0.121951219512195,-5,0.304878048780488,-67,0.291304347826087,41,0.178260869565217,128,-0.624390243902439,
2241078,1660.15625,4464,-2.73697118332311,-15280,-9.36848559166156,-2736,1.67749846719804,-1,3.41463414634146,-56,0.0609756097560976,-11,0.670731707317073,-67,0.291304347826087,40,0.173913043478261,127,-0.619512195121951,
2241718,1679.6875,4496,-2.75659104843654,-15376,-9.42734518700184,-2704,1.65787860208461,9,3.23170731707317,-53,-0.548780487804878,-10,0.609756097560976,-68,0.295652173913043,40,0.173913043478261,129,-0.629268292682927,
2242358,1699.21875,4544,-2.78602084610668,-15408,-9.44696505211527,-2816,1.72654812998161,33,3.59756097560976,-59,-2.01219512195122,-3,0.182926829268293,-69,0.3,40,0.173913043478261,129,-0.629268292682927,
2242998,1718.75,4608,-2.82526057633354,-15408,-9.44696505211527,-2768,1.69711833231147,49,3.96341463414634,-65,-2.98780487804878,-9,0.548780487804878,-67,0.291304347826087,39,0.169565217391304,127,-0.619512195121951,
2243638,1738.28125,4480,-2.74678111587983,-15376,-9.42734518700184,-2816,1.72654812998161,38,4.26829268292683,-70,-2.31707317073171,-17,1.03658536585366,-65,0.282608695652174,40,0.173913043478261,129,-0.629268292682927,
2244278,1757.8125,4496,-2.75659104843654,-15360,-9.41753525444513,-2800,1.71673819742489,26,4.81707317073171,-79,-1.58536585365854,-26,1.58536585365854,-69,0.3,37,0.160869565217391,129,-0.629268292682927,
2244918,1777.34375,4480,-2.74678111587983,-15392,-9.43715511955855,-2864,1.75597792765175,21,5.24390243902439,-86,-1.28048780487805,-27,1.64634146341463,-67,0.291304347826087,37,0.160869565217391,130,-0.634146341463415,
2245558,1796.875,4464,-2.73697118332311,-15440,-9.46658491722869,-2864,1.75597792765175,19,5.85365853658537,-96,-1.15853658536585,-29,1.76829268292683,-68,0.295652173913043,39,0.169565217391304,128,-0.624390243902439,
2246198,1816.40625,4464,-2.73697118332311,-15360,-9.41753525444513,-2896,1.77559779276517,26,5.85365853658537,-96,-1.58536585365854,-30,1.82926829268293,-67,0.291304347826087,37,0.160869565217391,128,-0.624390243902439,
2246838,1835.9375,4592,-2.81545064377682,-15264,-9.35867565910484,-2960,1.81483752299203,55,5.54878048780488,-91,-3.35365853658537,-28,1.70731707317073,-68,0.295652173913043,40,0.173913043478261,128,-0.624390243902439,
2247478,1855.46875,5120,-3.13917841814837,-15296,-9.37829552421827,-3440,2.10913549969344,182,4.02439024390244,-66,-11.0975609756098,-17,1.03658536585366,-67,0.291304347826087,41,0.178260869565217,130,-0.634146341463415,
2248118,1875,4912,-3.0116492949111,-15392,-9.43715511955855,-4096,2.5113427345187,308,3.29268292682927,-54,-18.780487804878,33,-2.01219512195122,-66,0.28695652173913,37,0.160869565217391,128,-0.624390243902439,
2248758,1894.53125,4832,-2.96259963212753,-15376,-9.42734518700184,-5136,3.14898835070509,234,4.9390243902439,-81,-14.2682926829268,77,-4.69512195121951,-67,0.291304347826087,42,0.182608695652174,128,-0.624390243902439,
2249398,1914.0625,5424,-3.32556713672594,-15344,-9.40772532188841,-6512,3.99264255058246,138,10.3048780487805,-169,-8.41463414634146,155,-9.45121951219512,-66,0.28695652173913,41,0.178260869565217,129,-0.629268292682927,
2250038,1933.59375,7120,-4.36541998773758,-15136,-9.28019619865113,-8608,5.27774371551196,225,17.0121951219512,-279,-13.719512195122,275,-16.7682926829268,-66,0.28695652173913,38,0.165217391304348,128,-0.624390243902439,
2250678,1953.125,8784,-5.38565297363581,-15312,-9.38810545677498,-11424,7.00429184549356,514,33.780487804878,-554,-31.3414634146341,377,-22.9878048780488,-65,0.282608695652174,40,0.173913043478261,130,-0.634146341463415,
2251318,1972.65625,9392,-5.75843041079093,-15776,-9.67259350091968,-13024,7.98528510116493,743,52.9268292682927,-868,-45.3048780487805,402,-24.5121951219512,-61,0.265217391304348,34,0.147826086956522,131,-0.639024390243902,
2251958,1992.1875,9264,-5.67995095033722,-16736,-10.2611894543225,-12928,7.92642550582465,800,68.5365853658537,-1124,-48.7804878048781,332,-20.2439024390244,-61,0.265217391304348,37,0.160869565217391,130,-0.634146341463415,
2252598,2011.71875,9296,-5.69957081545064,-18272,-11.202942979767,-12608,7.73022685469037,754,82.9878048780488,-1361,-45.9756097560976,171,-10.4268292682927,-59,0.256521739130435,36,0.156521739130435,133,-0.648780487804878,
2253238,2031.25,9360,-5.7388105456775,-19136,-11.7326793378296,-12096,7.41630901287554,790,96.7682926829268,-1587,-48.1707317073171,-72,4.39024390243902,-60,0.260869565217391,32,0.139130434782609,135,-0.658536585365854,
2253878,2050.78125,9040,-5.54261189454322,-19408,-11.8994481912937,-11568,7.09258123850398,833,106.40243902439,-1745,-50.7926829268293,-371,22.6219512195122,-59,0.256521739130435,29,0.126086956521739,138,-0.673170731707317,
2254518,2070.3125,8528,-5.22869405272839,-19744,-12.1054567749847,-11440,7.01410177805028,852,116.707317073171,-1914,-51.9512195121951,-664,40.4878048780488,-59,0.256521739130435,28,0.121739130434783,139,-0.678048780487805,
2255158,2089.84375,7744,-4.74800735744942,-19744,-12.1054567749847,-11344,6.95524218270999,833,126.036585365854,-2067,-50.7926829268293,-923,56.2804878048781,-56,0.243478260869565,24,0.104347826086957,142,-0.692682926829268,
2255798,2109.375,6832,-4.18884120171674,-19360,-11.8700183936235,-11360,6.96505211526671,677,133.59756097561,-2191,-41.280487804878,-1091,66.5243902439024,-58,0.252173913043478,22,0.0956521739130435,145,-0.707317073170732,
2256438,2128.90625,6624,-4.06131207847946,-19056,-11.683629675046,-11296,6.92581238503985,416,139.451219512195,-2287,-25.3658536585366,-1190,72.5609756097561,-57,0.247826086956522,23,0.1,148,-0.721951219512195,
2257078,2148.4375,6912,-4.23789086450031,-18832,-11.546290619252,-11200,6.86695278969957,206,144.878048780488,-2376,-12.5609756097561,-1259,76.7682926829268,-58,0.252173913043478,15,0.0652173913043478,150,-0.731707317073171,
2257718,2167.96875,7504,-4.60085836909871,-18384,-11.271612507664,-11120,6.817903126916,119,148.292682926829,-2432,-7.25609756097561,-1316,80.2439024390244,-62,0.269565217391304,20,0.0869565217391304,152,-0.741463414634146,
2258358,2187.5,8064,-4.94420600858369,-17904,-10.9773145309626,-11120,6.817903126916,262,149.634146341463,-2454,-15.9756097560976,-1346,82.0731707317073,-62,0.269565217391304,15,0.0652173913043478,155,-0.75609756097561,
2258998,2207.03125,7888,-4.83629675045984,-17312,-10.6143470263642,-11376,6.97486204782342,503,150.487804878049,-2468,-30.6707317073171,-1355,82.6219512195122,-61,0.265217391304348,6,0.0260869565217391,158,-0.770731707317073,
2259638,2226.5625,7088,-4.34580012262416,-16640,-10.2023298589822,-10944,6.70999386879215,559,150.548780487805,-2469,-34.0853658536585,-1336,81.4634146341463,-62,0.269565217391304,8,0.0347826086956522,159,-0.775609756097561,
2260278,2246.09375,7024,-4.3065603923973,-16048,-9.83936235438381,-10624,6.51379521765788,536,148.658536585366,-2438,-32.6829268292683,-1321,80.5487804878049,-62,0.269565217391304,2,0.00869565217391304,163,-0.795121951219512,
2260918,2265.625,7008,-4.29675045984059,-14928,-9.15266707541386,-10368,6.35683629675046,643,146.646341463415,-2405,-39.2073170731707,-1325,80.7926829268293,-60,0.260869565217391,-5,-0.0217391304347826,163,-0.795121951219512,
2261558,2285.15625,6560,-4.02207234825261,-13920,-8.53464132434089,-10224,6.26854690374004,827,144.024390243902,-2362,-50.4268292682927,-1303,79.4512195121951,-59,0.256521739130435,-10,-0.0434782608695652,167,-0.814634146341463,
2262198,2304.6875,5728,-3.51195585530349,-12912,-7.91661557326793,-10064,6.1704475781729,940,141.646341463415,-2323,-57.3170731707317,-1277,77.8658536585366,-59,0.256521739130435,-9,-0.0391304347826087,164,-0.8,
2262838,2324.21875,5136,-3.14898835070509,-11760,-7.21030042918455,-10048,6.16063764561619,910,137.256097560976,-2251,-55.4878048780488,-1253,76.4024390243902,-55,0.239130434782609,-16,-0.0695652173913043,169,-0.824390243902439,
2263478,2343.75,4928,-3.02145922746781,-10704,-6.56284488044145,-10096,6.19006744328633,840,132.012195121951,-2165,-51.219512195122,-1202,73.2926829268293,-53,0.230434782608696,-21,-0.091304347826087,168,-0.819512195121951,
2264118,2363.28125,4784,-2.93316983445739,-9616,-5.89576946658492,-10240,6.27835683629675,816,127.5,-2091,-49.7560975609756,-1164,70.9756097560976,-55,0.239130434782609,-27,-0.117391304347826,169,-0.824390243902439,
2264758,2382.8125,4528,-2.77621091354997,-8464,-5.18945432250153,-10288,6.30778663396689,795,122.560975609756,-2010,-48.4756097560976,-1108,67.5609756097561,-51,0.221739130434783,-30,-0.130434782608696,170,-0.829268292682927,
2265398,2402.34375,4272,-2.61925199264255,-7440,-4.56161863887186,-10144,6.21949724095647,764,115.792682926829,-1899,-46.5853658536585,-1050,64.0243902439024,-47,0.204347826086957,-35,-0.152173913043478,170,-0.829268292682927,
2266038,2421.875,3920,-2.40343347639485,-6368,-3.90435315757204,-10112,6.19987737584304,728,111.524390243902,-1829,-44.390243902439,-994,60.609756097561,-48,0.208695652173913,-37,-0.160869565217391,168,-0.819512195121951,
2266678,2441.40625,3664,-2.24647455548743,-5264,-3.2274678111588,-10032,6.15082771305947,722,104.878048780488,-1720,-44.0243902439024,-918,55.9756097560976,-45,0.195652173913043,-35,-0.152173913043478,170,-0.829268292682927,
2267318,2460.9375,3488,-2.13856529736358,-4272,-2.61925199264255,-10144,6.21949724095647,751,97.6829268292683,-1602,-45.7926829268293,-858,52.3170731707317,-44,0.191304347826087,-39,-0.169565217391304,168,-0.819512195121951,
2267958,2480.46875,3120,-1.91293684855917,-3440,-2.10913549969344,-10208,6.25873697118332,800,90.9756097560976,-1492,-48.7804878048781,-766,46.7073170731707,-40,0.173913043478261,-46,-0.2,168,-0.819512195121951,
2268598,2500,2672,-1.63825873697118,-2768,-1.69711833231147,-10208,6.25873697118332,778,84.8780487804878,-1392,-47.4390243902439,-694,42.3170731707317,-39,0.169565217391304,-45,-0.195652173913043,166,-0.809756097560976,
2269238,2519.53125,2320,-1.42244022072348,-1904,-1.16738197424893,-10416,6.3862660944206,678,78.2317073170732,-1283,-41.3414634146341,-624,38.0487804878049,-37,0.160869565217391,-47,-0.204347826086957,167,-0.814634146341463,
2269878,2539.0625,2272,-1.39301042305334,-1296,-0.794604537093807,-10688,6.55303494788473,584,71.5243902439024,-1173,-35.609756097561,-586,35.7317073170732,-37,0.160869565217391,-51,-0.221739130434783,164,-0.8,
2270518,2558.59375,2080,-1.27529123237278,-768,-0.470876762722256,-10688,6.55303494788473,523,65.8536585365854,-1080,-31.890243902439,-541,32.9878048780488,-33,0.143478260869565,-52,-0.226086956521739,164,-0.8,
2271158,2578.125,2016,-1.23605150214592,-112,-0.0686695278969957,-10800,6.62170447578173,477,59.390243902439,-974,-29.0853658536585,-502,30.609756097561,-32,0.139130434782609,-50,-0.217391304347826,164,-0.8,
2271798,2597.65625,1856,-1.13795217657879,336,0.206008583690987,-10960,6.71980380134887,468,53.4146341463415,-876,-28.5365853658537,-444,27.0731707317073,-30,0.130434782608696,-54,-0.234782608695652,162,-0.790243902439024,
2272438,2617.1875,1344,-0.824034334763949,736,0.451256897608829,-11200,6.86695278969957,391,48.6585365853659,-798,-23.8414634146341,-396,24.1463414634146,-30,0.130434782608696,-54,-0.234782608695652,160,-0.780487804878049,
2273078,2636.71875,1392,-0.853464132434089,1328,0.814224402207235,-11296,6.92581238503985,282,42.4390243902439,-696,-17.1951219512195,-341,20.7926829268293,-31,0.134782608695652,-53,-0.230434782608696,159,-0.775609756097561,
2273718,2656.25,1568,-0.96137339055794,1616,0.990803188228081,-11600,7.11220110361741,252,36.219512195122,-594,-15.3658536585366,-280,17.0731707317073,-29,0.126086956521739,-56,-0.243478260869565,159,-0.775609756097561,
2274358,2675.78125,1616,-0.990803188228081,1888,1.15757204169221,-11856,7.26916002452483,289,31.4634146341463,-516,-17.6219512195122,-229,13.9634146341463,-29,0.126086956521739,-54,-0.234782608695652,159,-0.775609756097561,
2274998,2695.3125,1712,-1.04966278356836,2208,1.35377069282649,-11952,7.32801961986511,308,26.0975609756098,-428,-18.780487804878,-195,11.890243902439,-27,0.117391304347826,-56,-0.243478260869565,159,-0.775609756097561,
2275638,2714.84375,1776,-1.08890251379522,2336,1.4322501532802,-11952,7.32801961986511,366,19.8780487804878,-326,-22.3170731707317,-157,9.57317073170732,-28,0.121739130434783,-57,-0.247826086956522,158,-0.770731707317073,
2276278,2734.375,1712,-1.04966278356836,2320,1.42244022072348,-12032,7.37706928264868,445,14.4512195121951,-237,-27.1341463414634,-122,7.4390243902439,-25,0.108695652173913,-57,-0.247826086956522,157,-0.765853658536585,
2276918,2753.90625,1472,-0.902513795217658,2432,1.49110974862048,-12480,7.65174739423666,485,10.2439024390244,-168,-29.5731707317073,-94,5.73170731707317,-25,0.108695652173913,-58,-0.252173913043478,156,-0.760975609756098,
2277558,2773.4375,1424,-0.873083997547517,2368,1.45187001839362,-12848,7.87737584304108,455,7.5,-123,-27.7439024390244,-82,5,-24,0.104347826086957,-54,-0.234782608695652,156,-0.760975609756098,
2278198,2792.96875,1616,-0.990803188228081,2320,1.42244022072348,-13280,8.14224402207235,401,4.14634146341463,-68,-24.4512195121951,-101,6.15853658536585,-23,0.1,-58,-0.252173913043478,157,-0.765853658536585,
2278838,2812.5,1488,-0.912323727774372,2352,1.44206008583691,-13664,8.37768240343348,416,1.82926829268293,-30,-25.3658536585366,-107,6.52439024390244,-21,0.091304347826087,-60,-0.260869565217391,155,-0.75609756097561,
2279478,2832.03125,1184,-0.725935009196812,2304,1.41263028816677,-14192,8.70141017780503,402,0.0609756097560976,-1,-24.5121951219512,-131,7.98780487804878,-19,0.0826086956521739,-59,-0.256521739130435,154,-0.751219512195122,
2280118,2851.5625,1168,-0.716125076640098,2352,1.44206008583691,-14720,9.02513795217658,330,-0.914634146341463,15,-20.1219512195122,-178,10.8536585365854,-20,0.0869565217391304,-55,-0.239130434782609,154,-0.751219512195122,
2280758,2871.09375,736,-0.451256897608829,2384,1.46167995095034,-14784,9.06437768240343,306,-0.487804878048781,8,-18.6585365853659,-212,12.9268292682927,-20,0.0869565217391304,-57,-0.247826086956522,154,-0.751219512195122,
2281398,2890.625,192,-0.117719190680564,2384,1.46167995095034,-14848,9.10361741263029,228,-1.52439024390244,25,-13.9024390243902,-248,15.1219512195122,-19,0.0826086956521739,-56,-0.243478260869565,153,-0.746341463414634,
2282038,2910.15625,0,0,2512,1.54015941140405,-15008,9.20171673819742,72,-3.84146341463415,63,-4.39024390243902,-263,16.0365853658537,-17,0.0739130434782609,-56,-0.243478260869565,153,-0.746341463414634,
2282678,2929.6875,416,-0.255058246474555,2640,1.61863887185776,-15248,9.34886572654813,-66,-5.42682926829268,89,4.02439024390244,-277,16.890243902439,-19,0.0826086956521739,-58,-0.252173913043478,153,-0.746341463414634,
2283318,2949.21875,576,-0.353157572041692,2880,1.76578786020846,-15312,9.38810545677498,20,-5.60975609756098,92,-1.21951219512195,-260,15.8536585365854,-19,0.0826086956521739,-53,-0.230434782608696,153,-0.746341463414634,
2283958,2968.75,448,-0.274678111587983,2800,1.71673819742489,-15232,9.33905579399141,127,-8.10975609756098,133,-7.74390243902439,-231,14.0853658536585,-16,0.0695652173913043,-56,-0.243478260869565,154,-0.751219512195122,
2284598,2988.28125,112,-0.0686695278969957,2752,1.68730839975475,-15328,9.3979153893317,261,-9.32926829268293,153,-15.9146341463415,-193,11.7682926829268,-18,0.0782608695652174,-57,-0.247826086956522,152,-0.741463414634146,
2285238,3007.8125,-192,0.117719190680564,2544,1.55977927651747,-15248,9.34886572654813,323,-10.4878048780488,172,-19.6951219512195,-150,9.14634146341463,-16,0.0695652173913043,-56,-0.243478260869565,154,-0.751219512195122,
2285878,3027.34375,-304,0.18638871857756,2528,1.54996934396076,-15536,9.52544451256898,258,-11.6463414634146,191,-15.7317073170732,-144,8.78048780487805,-16,0.0695652173913043,-53,-0.230434782608696,151,-0.736585365853659,
2286518,3046.875,80,-0.0490496627835684,2624,1.60882893930104,-15712,9.63335377069283,183,-13.3536585365854,219,-11.1585365853659,-153,9.32926829268293,-15,0.0652173913043478,-52,-0.226086956521739,152,-0.741463414634146,
2287158,3066.40625,192,-0.117719190680564,2464,1.51072961373391,-15856,9.72164316370325,233,-14.390243902439,236,-14.2073170731707,-141,8.59756097560976,-15,0.0652173913043478,-51,-0.221739130434783,153,-0.746341463414634,
2287798,3085.9375,-240,0.147148988350705,2368,1.45187001839362,-16000,9.80993255671367,307,-14.1463414634146,232,-18.719512195122,-116,7.07317073170732,-15,0.0652173913043478,-50,-0.217391304347826,153,-0.746341463414634,
2288438,3105.46875,-320,0.196198651134273,2304,1.41263028816677,-16432,10.0748007357449,274,-14.7560975609756,242,-16.7073170731707,-114,6.95121951219512,-15,0.0652173913043478,-55,-0.239130434782609,153,-0.746341463414634,
2289078,3125,-592,0.362967504598406,2176,1.33415082771306,-16704,10.2415695892091,221,-13.5975609756098,223,-13.4756097560976,-113,6.89024390243902,-13,0.0565217391304348,-52,-0.226086956521739,151,-0.736585365853659,
2289718,3144.53125,-544,0.333537706928265,2112,1.2949110974862,-16672,10.2219497240956,100,-12.5609756097561,206,-6.09756097560976,-105,6.40243902439024,-16,0.0695652173913043,-48,-0.208695652173913,149,-0.726829268292683,
2290358,3164.0625,-272,0.166768853464132,1728,1.05947271612508,-16784,10.2906192519926,15,-12.3170731707317,202,-0.914634146341463,-67,4.08536585365854,-12,0.0521739130434783,-49,-0.21304347826087,151,-0.736585365853659,
2290998,3183.59375,0,0,1552,0.951563458001226,-16912,10.3690987124464,16,-10.6707317073171,175,-0.975609756097561,-9,0.548780487804878,-13,0.0565217391304348,-50,-0.217391304347826,150,-0.731707317073171,
2291638,3203.125,16,-0.00980993255671367,1392,0.853464132434089,-17056,10.4573881054568,34,-9.39024390243902,154,-2.07317073170732,17,-1.03658536585366,-14,0.0608695652173913,-51,-0.221739130434783,153,-0.746341463414634,
2292278,3222.65625,64,-0.0392397302268547,1184,0.725935009196812,-17040,10.4475781729001,25,-7.68292682926829,126,-1.52439024390244,16,-0.975609756097561,-15,0.0652173913043478,-47,-0.204347826086957,150,-0.731707317073171,
2292918,3242.1875,32,-0.0196198651134273,1088,0.66707541385653,-16976,10.4083384426732,15,-6.46341463414634,106,-0.914634146341463,7,-0.426829268292683,-14,0.0608695652173913,-49,-0.21304347826087,152,-0.741463414634146,
2293558,3261.71875,80,-0.0490496627835684,992,0.608215818516248,-17104,10.4868179031269,13,-4.9390243902439,81,-0.792682926829268,2,-0.121951219512195,-14,0.0608695652173913,-50,-0.217391304347826,153,-0.746341463414634,
2294198,3281.25,176,-0.10790925812385,880,0.539546290619252,-17120,10.4966278356836,5,-3.47560975609756,57,-0.304878048780488,-8,0.487804878048781,-12,0.0521739130434783,-50,-0.217391304347826,152,-0.741463414634146,
2294838,3300.78125,80,-0.0490496627835684,912,0.559166155732679,-16944,10.3887185775598,36,-1.76829268292683,29,-2.19512195121951,-14,0.853658536585366,-12,0.0521739130434783,-51,-0.221739130434783,151,-0.736585365853659,
2295478,3320.3125,48,-0.029429797670141,960,0.58859595340282,-16800,10.3004291845494,54,-0.304878048780488,5,-3.29268292682927,-14,0.853658536585366,-13,0.0565217391304348,-49,-0.21304347826087,152,-0.741463414634146,
2296118,3339.84375,-16,0.00980993255671367,896,0.549356223175966,-16688,10.2317596566524,42,0.914634146341463,-15,-2.5609756097561,-10,0.609756097560976,-13,0.0565217391304348,-45,-0.195652173913043,152,-0.741463414634146,
2296758,3359.375,-48,0.029429797670141,960,0.58859595340282,-16432,10.0748007357449,37,1.76829268292683,-29,-2.25609756097561,-9,0.548780487804878,-13,0.0565217391304348,-51,-0.221739130434783,151,-0.736585365853659,
2297398,3378.90625,-80,0.0490496627835684,1008,0.618025751072961,-16368,10.0355610055181,34,2.25609756097561,-37,-2.07317073170732,6,-0.365853658536585,-12,0.0521739130434783,-51,-0.221739130434783,152,-0.741463414634146,
2298038,3398.4375,112,-0.0686695278969957,944,0.578786020846107,-16224,9.94727161250766,32,2.4390243902439,-40,-1.95121951219512,1,-0.0609756097560976,-13,0.0565217391304348,-48,-0.208695652173913,153,-0.746341463414634,
2298678,3417.96875,112,-0.0686695278969957,1040,0.637645616186389,-16256,9.96689147762109,45,2.19512195121951,-36,-2.74390243902439,-11,0.670731707317073,-15,0.0652173913043478,-47,-0.204347826086957,152,-0.741463414634146,
2299318,3437.5,-16,0.00980993255671367,944,0.578786020846107,-16160,9.90803188228081,55,2.68292682926829,-44,-3.35365853658537,-19,1.15853658536585,-12,0.0521739130434783,-52,-0.226086956521739,151,-0.736585365853659,
2299958,3457.03125,-192,0.117719190680564,976,0.598405885959534,-16096,9.86879215205395,10,3.41463414634146,-56,-0.609756097560976,-22,1.34146341463415,-12,0.0521739130434783,-50,-0.217391304347826,152,-0.741463414634146,
2300598,3476.5625,-144,0.088289393010423,1104,0.676885346413243,-16064,9.84917228694053,-32,3.78048780487805,-62,1.95121951219512,-25,1.52439024390244,-14,0.0608695652173913,-45,-0.195652173913043,151,-0.736585365853659,
2301238,3496.09375,-64,0.0392397302268547,1056,0.647455548743102,-16096,9.86879215205395,-50,4.02439024390244,-66,3.04878048780488,-27,1.64634146341463,-13,0.0565217391304348,-47,-0.204347826086957,152,-0.741463414634146,
2301878,3515.625,-80,0.0490496627835684,1184,0.725935009196812,-15968,9.79031269160024,-67,4.39024390243902,-72,4.08536585365854,-36,2.19512195121951,-14,0.0608695652173913,-49,-0.21304347826087,152,-0.741463414634146,
2302518,3535.15625,16,-0.00980993255671367,1264,0.77498467198038,-15904,9.75107296137339,-99,4.14634146341463,-68,6.03658536585366,-38,2.31707317073171,-15,0.0652173913043478,-50,-0.217391304347826,152,-0.741463414634146,
2303158,3554.6875,144,-0.088289393010423,1328,0.814224402207235,-15792,9.6824034334764,-102,3.78048780487805,-62,6.21951219512195,-34,2.07317073170732,-12,0.0521739130434783,-48,-0.208695652173913,151,-0.736585365853659,
2303798,3574.21875,224,-0.137339055793991,1376,0.843654199877376,-15792,9.6824034334764,-55,2.68292682926829,-44,3.35365853658537,-19,1.15853658536585,-15,0.0652173913043478,-50,-0.217391304347826,151,-0.736585365853659,
2304438,3593.75,144,-0.088289393010423,1296,0.794604537093807,-15856,9.72164316370325,-3,2.68292682926829,-44,0.182926829268293,-8,0.487804878048781,-14,0.0608695652173913,-49,-0.21304347826087,152,-0.741463414634146,
2305078,3613.28125,32,-0.0196198651134273,1280,0.784794604537094,-15904,9.75107296137339,-9,3.04878048780488,-50,0.548780487804878,-11,0.670731707317073,-14,0.0608695652173913,-49,-0.21304347826087,153,-0.746341463414634,
2305718,3632.8125,128,-0.0784794604537094,1360,0.833844267320662,-15824,9.70202329858982,-45,2.5609756097561,-42,2.74390243902439,-8,0.487804878048781,-12,0.0521739130434783,-52,-0.226086956521739,151,-0.736585365853659,
2306358,3652.34375,432,-0.264868179031269,1328,0.814224402207235,-15952,9.78050275904353,-48,1.70731707317073,-28,2.92682926829268,-4,0.24390243902439,-12,0.0521739130434783,-50,-0.217391304347826,152,-0.741463414634146,
2306998,3671.875,464,-0.284488044144696,1344,0.824034334763949,-16048,9.83936235438381,1,1.03658536585366,-17,-0.0609756097560976,-6,0.365853658536585,-15,0.0652173913043478,-45,-0.195652173913043,151,-0.736585365853659,
2307638,3691.40625,336,-0.206008583690987,1312,0.804414469650521,-16016,9.81974248927039,24,0.853658536585366,-14,-1.46341463414634,-12,0.731707317073171,-14,0.0608695652173913,-47,-0.204347826086957,153,-0.746341463414634,
2308278,3710.9375,304,-0.18638871857756,1248,0.765174739423666,-15888,9.74126302881668,19,0.914634146341463,-15,-1.15853658536585,-21,1.28048780487805,-14,0.0608695652173913,-49,-0.21304347826087,152,-0.741463414634146,
2308918,3730.46875,304,-0.18638871857756,1312,0.804414469650521,-15888,9.74126302881668,26,0.731707317073171,-12,-1.58536585365854,-30,1.82926829268293,-13,0.0565217391304348,-47,-0.204347826086957,150,-0.731707317073171,
2309558,3750,240,-0.147148988350705,1312,0.804414469650521,-15936,9.77069282648682,42,0.304878048780488,-5,-2.5609756097561,-28,1.70731707317073,-14,0.0608695652173913,-48,-0.208695652173913,151,-0.736585365853659,
2310198,3769.53125,160,-0.0980993255671367,1312,0.804414469650521,-16016,9.81974248927039,33,0.0609756097560976,-1,-2.01219512195122,-31,1.89024390243902,-16,0.0695652173913043,-45,-0.195652173913043,151,-0.736585365853659,
2310838,3789.0625,272,-0.166768853464132,1168,0.716125076640098,-16112,9.87860208461067,15,0.304878048780488,-5,-0.914634146341463,-44,2.68292682926829,-13,0.0565217391304348,-50,-0.217391304347826,153,-0.746341463414634,
2311478,3808.59375,208,-0.127529123237278,1152,0.706315144083384,-16080,9.85898221949724,22,0.853658536585366,-14,-1.34146341463415,-51,3.10975609756098,-13,0.0565217391304348,-45,-0.195652173913043,151,-0.736585365853659,
2312118,3828.125,144,-0.088289393010423,1184,0.725935009196812,-16176,9.91784181483752,22,0.365853658536585,-6,-1.34146341463415,-46,2.80487804878049,-14,0.0608695652173913,-46,-0.2,151,-0.736585365853659,
2312758,3847.65625,80,-0.0490496627835684,1168,0.716125076640098,-16208,9.93746167995095,7,0.365853658536585,-6,-0.426829268292683,-48,2.92682926829268,-14,0.0608695652173913,-42,-0.182608695652174,151,-0.736585365853659,
2313398,3867.1875,96,-0.058859595340282,1104,0.676885346413243,-16192,9.92765174739424,-21,0.914634146341463,-15,1.28048780487805,-47,2.86585365853659,-14,0.0608695652173913,-49,-0.21304347826087,153,-0.746341463414634,
2314038,3886.71875,112,-0.0686695278969957,1104,0.676885346413243,-16208,9.93746167995095,-24,1.40243902439024,-23,1.46341463414634,-39,2.37804878048781,-15,0.0652173913043478,-45,-0.195652173913043,151,-0.736585365853659,
2314678,3906.25,176,-0.10790925812385,1056,0.647455548743102,-16320,10.0061312078479,-17,1.76829268292683,-29,1.03658536585366,-35,2.13414634146341,-15,0.0652173913043478,-42,-0.182608695652174,150,-0.731707317073171,
2315318,3925.78125,224,-0.137339055793991,992,0.608215818516248,-16288,9.98651134273452,-17,2.13414634146341,-35,1.03658536585366,-40,2.4390243902439,-12,0.0521739130434783,-49,-0.21304347826087,151,-0.736585365853659,
2315958,3945.3125,208,-0.127529123237278,1008,0.618025751072961,-16192,9.92765174739424,-6,1.95121951219512,-32,0.365853658536585,-43,2.6219512195122,-13,0.0565217391304348,-46,-0.2,150,-0.731707317073171,
2316598,3964.84375,160,-0.0980993255671367,1072,0.657265481299816,-16240,9.95708154506438,0,2.5,-41,0,-37,2.25609756097561,-14,0.0608695652173913,-44,-0.191304347826087,152,-0.741463414634146,
2317238,3984.375,144,-0.088289393010423,1072,0.657265481299816,-16224,9.94727161250766,7,3.10975609756098,-51,-0.426829268292683,-39,2.37804878048781,-12,0.0521739130434783,-50,-0.217391304347826,151,-0.736585365853659,
2317878,4003.90625,96,-0.058859595340282,1056,0.647455548743102,-16160,9.90803188228081,11,3.04878048780488,-50,-0.670731707317073,-34,2.07317073170732,-12,0.0521739130434783,-49,-0.21304347826087,152,-0.741463414634146,
2318518,4023.4375,112,-0.0686695278969957,1040,0.637645616186389,-16176,9.91784181483752,1,3.23170731707317,-53,-0.0609756097560976,-31,1.89024390243902,-14,0.0608695652173913,-45,-0.195652173913043,152,-0.741463414634146,
2319158,4042.96875,32,-0.0196198651134273,1040,0.637645616186389,-16080,9.85898221949724,1,3.04878048780488,-50,-0.0609756097560976,-32,1.95121951219512,-15,0.0652173913043478,-46,-0.2,151,-0.736585365853659,
2319798,4062.5,32,-0.0196198651134273,960,0.58859595340282,-16064,9.84917228694053,6,3.17073170731707,-52,-0.365853658536585,-31,1.89024390243902,-13,0.0565217391304348,-46,-0.2,151,-0.736585365853659,
2320438,4082.03125,48,-0.029429797670141,1008,0.618025751072961,-16016,9.81974248927039,6,3.10975609756098,-51,-0.365853658536585,-26,1.58536585365854,-13,0.0565217391304348,-43,-0.18695652173913,152,-0.741463414634146,
2321078,4101.5625,0,0,1072,0.657265481299816,-16032,9.8295524218271,-10,3.04878048780488,-50,0.609756097560976,-21,1.28048780487805,-13,0.0565217391304348,-45,-0.195652173913043,152,-0.741463414634146,
2321718,4121.09375,96,-0.058859595340282,976,0.598405885959534,-15984,9.80012262415696,-9,3.04878048780488,-50,0.548780487804878,-19,1.15853658536585,-13,0.0565217391304348,-46,-0.2,151,-0.736585365853659,
2322358,4140.625,112,-0.0686695278969957,1024,0.627835683629675,-16000,9.80993255671367,-3,2.80487804878049,-46,0.182926829268293,-25,1.52439024390244,-13,0.0565217391304348,-44,-0.191304347826087,151,-0.736585365853659,
2322998,4160.15625,0,0,992,0.608215818516248,-15888,9.74126302881668,-21,2.92682926829268,-48,1.28048780487805,-25,1.52439024390244,-14,0.0608695652173913,-44,-0.191304347826087,150,-0.731707317073171,
2323638,4179.6875,0,0,1008,0.618025751072961,-15824,9.70202329858982,-35,2.4390243902439,-40,2.13414634146341,-24,1.46341463414634,-14,0.0608695652173913,-45,-0.195652173913043,151,-0.736585365853659,
2324278,4199.21875,144,-0.088289393010423,1008,0.618025751072961,-15856,9.72164316370325,-10,1.76829268292683,-29,0.609756097560976,-17,1.03658536585366,-15,0.0652173913043478,-43,-0.18695652173913,151,-0.736585365853659,
2324918,4218.75,96,-0.058859595340282,1072,0.657265481299816,-15936,9.77069282648682,-6,2.01219512195122,-33,0.365853658536585,-28,1.70731707317073,-15,0.0652173913043478,-47,-0.204347826086957,153,-0.746341463414634,
2325558,4238.28125,-32,0.0196198651134273,1152,0.706315144083384,-15936,9.77069282648682,-20,2.01219512195122,-33,1.21951219512195,-26,1.58536585365854,-15,0.0652173913043478,-45,-0.195652173913043,152,-0.741463414634146,
2326198,4257.8125,48,-0.029429797670141,1120,0.686695278969957,-15904,9.75107296137339,-1,1.46341463414634,-24,0.0609756097560976,-21,1.28048780487805,-15,0.0652173913043478,-45,-0.195652173913043,151,-0.736585365853659,
2326838,4277.34375,96,-0.058859595340282,1168,0.716125076640098,-16000,9.80993255671367,16,1.15853658536585,-19,-0.975609756097561,-22,1.34146341463415,-12,0.0521739130434783,-49,-0.21304347826087,152,-0.741463414634146,
2327478,4296.875,48,-0.029429797670141,1088,0.66707541385653,-16096,9.86879215205395,20,0.853658536585366,-14,-1.21951219512195,-23,1.40243902439024,-14,0.0608695652173913,-44,-0.191304347826087,152,-0.741463414634146,
2328118,4316.40625,-48,0.029429797670141,1104,0.676885346413243,-16176,9.91784181483752,12,1.03658536585366,-17,-0.731707317073171,-18,1.09756097560976,-14,0.0608695652173913,-45,-0.195652173913043,153,-0.746341463414634,
2328758,4335.9375,-32,0.0196198651134273,1088,0.66707541385653,-16288,9.98651134273452,2,1.70731707317073,-28,-0.121951219512195,-10,0.609756097560976,-13,0.0565217391304348,-48,-0.208695652173913,153,-0.746341463414634,
2329398,4355.46875,16,-0.00980993255671367,1040,0.637645616186389,-16336,10.0159411404047,18,2.31707317073171,-38,-1.09756097560976,-2,0.121951219512195,-15,0.0652173913043478,-42,-0.182608695652174,152,-0.741463414634146,
2330038,4375,0,0,1072,0.657265481299816,-16496,10.1140404659718,12,2.5609756097561,-42,-0.731707317073171,3,-0.182926829268293,-15,0.0652173913043478,-43,-0.18695652173913,152,-0.741463414634146,
2330678,4394.53125,-32,0.0196198651134273,992,0.608215818516248,-16480,10.1042305334151,-8,3.41463414634146,-56,0.487804878048781,-1,0.0609756097560976,-14,0.0608695652173913,-44,-0.191304347826087,150,-0.731707317073171,
2331318,4414.0625,32,-0.0196198651134273,1088,0.66707541385653,-16368,10.0355610055181,-11,3.53658536585366,-58,0.670731707317073,-1,0.0609756097560976,-14,0.0608695652173913,-43,-0.18695652173913,153,-0.746341463414634,
2331958,4433.59375,144,-0.088289393010423,1056,0.647455548743102,-16304,9.99632127529123,6,3.96341463414634,-65,-0.365853658536585,4,-0.24390243902439,-14,0.0608695652173913,-43,-0.18695652173913,150,-0.731707317073171,
2332598,4453.125,96,-0.058859595340282,1024,0.627835683629675,-16176,9.91784181483752,28,4.39024390243902,-72,-1.70731707317073,7,-0.426829268292683,-13,0.0565217391304348,-45,-0.195652173913043,150,-0.731707317073171,
2333238,4472.65625,-48,0.029429797670141,1136,0.696505211526671,-16176,9.91784181483752,14,4.20731707317073,-69,-0.853658536585366,9,-0.548780487804878,-14,0.0608695652173913,-46,-0.2,151,-0.736585365853659,
2333878,4492.1875,64,-0.0392397302268547,1216,0.745554874310239,-16144,9.89822194972409,-18,4.45121951219512,-73,1.09756097560976,3,-0.182926829268293,-16,0.0695652173913043,-46,-0.2,150,-0.731707317073171,
2334518,4511.71875,176,-0.10790925812385,1104,0.676885346413243,-16048,9.83936235438381,-12,4.51219512195122,-74,0.731707317073171,6,-0.365853658536585,-14,0.0608695652173913,-48,-0.208695652173913,151,-0.736585365853659,
2335158,4531.25,304,-0.18638871857756,1184,0.725935009196812,-15984,9.80012262415696,22,4.39024390243902,-72,-1.34146341463415,1,-0.0609756097560976,-14,0.0608695652173913,-47,-0.204347826086957,152,-0.741463414634146,
2335798,4550.78125,176,-0.10790925812385,1120,0.686695278969957,-15952,9.78050275904353,32,3.96341463414634,-65,-1.95121951219512,3,-0.182926829268293,-12,0.0521739130434783,-48,-0.208695652173913,151,-0.736585365853659,
2336438,4570.3125,128,-0.0784794604537094,1232,0.755364806866953,-15936,9.77069282648682,7,4.14634146341463,-68,-0.426829268292683,-11,0.670731707317073,-13,0.0565217391304348,-44,-0.191304347826087,151,-0.736585365853659,
2337078,4589.84375,176,-0.10790925812385,1216,0.745554874310239,-15952,9.78050275904353,-7,3.78048780487805,-62,0.426829268292683,-14,0.853658536585366,-12,0.0521739130434783,-48,-0.208695652173913,151,-0.736585365853659,
2337718,4609.375,176,-0.10790925812385,1216,0.745554874310239,-15920,9.7608828939301,8,3.41463414634146,-56,-0.487804878048781,-11,0.670731707317073,-15,0.0652173913043478,-45,-0.195652173913043,152,-0.741463414634146,
2338358,4628.90625,144,-0.088289393010423,1200,0.735744941753525,-15920,9.7608828939301,9,2.86585365853659,-47,-0.548780487804878,-9,0.548780487804878,-14,0.0608695652173913,-45,-0.195652173913043,152,-0.741463414634146,
2338998,4648.4375,128,-0.0784794604537094,1072,0.657265481299816,-15824,9.70202329858982,7,2.86585365853659,-47,-0.426829268292683,-12,0.731707317073171,-13,0.0565217391304348,-45,-0.195652173913043,152,-0.741463414634146,
2339638,4667.96875,128,-0.0784794604537094,1040,0.637645616186389,-15824,9.70202329858982,13,2.25609756097561,-37,-0.792682926829268,-6,0.365853658536585,-13,0.0565217391304348,-49,-0.21304347826087,153,-0.746341463414634,
2340278,4687.5,48,-0.029429797670141,1024,0.627835683629675,-15904,9.75107296137339,-2,1.64634146341463,-27,0.121951219512195,-8,0.487804878048781,-11,0.0478260869565217,-49,-0.21304347826087,152,-0.741463414634146,
2340918,4707.03125,48,-0.029429797670141,1008,0.618025751072961,-15968,9.79031269160024,-14,2.01219512195122,-33,0.853658536585366,-7,0.426829268292683,-13,0.0565217391304348,-46,-0.2,151,-0.736585365853659,
2341558,4726.5625,16,-0.00980993255671367,1040,0.637645616186389,-16000,9.80993255671367,-13,1.82926829268293,-30,0.792682926829268,-9,0.548780487804878,-12,0.0521739130434783,-45,-0.195652173913043,151,-0.736585365853659,
2342198,4746.09375,80,-0.0490496627835684,1008,0.618025751072961,-15904,9.75107296137339,-3,1.64634146341463,-27,0.182926829268293,-9,0.548780487804878,-12,0.0521739130434783,-48,-0.208695652173913,152,-0.741463414634146,
2342838,4765.625,48,-0.029429797670141,1056,0.647455548743102,-16048,9.83936235438381,-8,1.58536585365854,-26,0.487804878048781,-4,0.24390243902439,-13,0.0565217391304348,-47,-0.204347826086957,152,-0.741463414634146,
2343478,4785.15625,16,-0.00980993255671367,1072,0.657265481299816,-16048,9.83936235438381,-15,2.07317073170732,-34,0.914634146341463,-1,0.0609756097560976,-12,0.0521739130434783,-46,-0.2,152,-0.741463414634146,
2344118,4804.6875,64,-0.0392397302268547,1056,0.647455548743102,-16064,9.84917228694053,-20,1.89024390243902,-31,1.21951219512195,-8,0.487804878048781,-13,0.0565217391304348,-48,-0.208695652173913,152,-0.741463414634146,
2344758,4824.21875,112,-0.0686695278969957,1024,0.627835683629675,-16176,9.91784181483752,0,1.89024390243902,-31,0,-11,0.670731707317073,-15,0.0652173913043478,-43,-0.18695652173913,151,-0.736585365853659,
2345398,4843.75,48,-0.029429797670141,1040,0.637645616186389,-16160,9.90803188228081,9,1.70731707317073,-28,-0.548780487804878,-9,0.548780487804878,-14,0.0608695652173913,-48,-0.208695652173913,152,-0.741463414634146,
2346038,4863.28125,96,-0.058859595340282,928,0.568976088289393,-16224,9.94727161250766,22,2.5,-41,-1.34146341463415,-6,0.365853658536585,-14,0.0608695652173913,-47,-0.204347826086957,150,-0.731707317073171,
2346678,4882.8125,-16,0.00980993255671367,992,0.608215818516248,-16256,9.96689147762109,19,2.74390243902439,-45,-1.15853658536585,-3,0.182926829268293,-13,0.0565217391304348,-44,-0.191304347826087,150,-0.731707317073171,
2347318,4902.34375,-16,0.00980993255671367,1056,0.647455548743102,-16208,9.93746167995095,-6,3.04878048780488,-50,0.365853658536585,-2,0.121951219512195,-13,0.0565217391304348,-43,-0.18695652173913,151,-0.736585365853659,
2347958,4921.875,128,-0.0784794604537094,976,0.598405885959534,-16160,9.90803188228081,-6,2.92682926829268,-48,0.365853658536585,-1,0.0609756097560976,-13,0.0565217391304348,-43,-0.18695652173913,152,-0.741463414634146,
2348598,4941.40625,224,-0.137339055793991,1072,0.657265481299816,-16176,9.91784181483752,21,2.92682926829268,-48,-1.28048780487805,-2,0.121951219512195,-14,0.0608695652173913,-43,-0.18695652173913,150,-0.731707317073171,
2349238,4960.9375,80,-0.0490496627835684,1104,0.676885346413243,-16240,9.95708154506438,34,3.17073170731707,-52,-2.07317073170732,-2,0.121951219512195,-14,0.0608695652173913,-41,-0.178260869565217,150,-0.731707317073171,
2349878,4980.46875,-48,0.029429797670141,1072,0.657265481299816,-16240,9.95708154506438,8,3.47560975609756,-57,-0.487804878048781,-1,0.0609756097560976,-16,0.0695652173913043,-42,-0.182608695652174,151,-0.736585365853659,
2350518,5000,0,0,1088,0.66707541385653,-16192,9.92765174739424,-7,3.84146341463415,-63,0.426829268292683,0,0,-16,0.0695652173913043,-44,-0.191304347826087,151,-0.736585365853659,
2351158,5019.53125,112,-0.0686695278969957,1120,0.686695278969957,-16064,9.84917228694053,8,3.84146341463415,-63,-0.487804878048781,-3,0.182926829268293,-13,0.0565217391304348,-44,-0.191304347826087,152,-0.741463414634146,
2351798,5039.0625,128,-0.0784794604537094,1056,0.647455548743102,-16176,9.91784181483752,34,3.78048780487805,-62,-2.07317073170732,-8,0.487804878048781,-12,0.0521739130434783,-42,-0.182608695652174,148,-0.721951219512195,
2352438,5058.59375,48,-0.029429797670141,1024,0.627835683629675,-16080,9.85898221949724,24,3.65853658536585,-60,-1.46341463414634,-11,0.670731707317073,-14,0.0608695652173913,-44,-0.191304347826087,150,-0.731707317073171,
2353078,5078.125,32,-0.0196198651134273,1056,0.647455548743102,-16064,9.84917228694053,8,4.02439024390244,-66,-0.487804878048781,-13,0.792682926829268,-15,0.0652173913043478,-45,-0.195652173913043,150,-0.731707317073171,
2353718,5097.65625,48,-0.029429797670141,1024,0.627835683629675,-15984,9.80012262415696,7,3.78048780487805,-62,-0.426829268292683,-12,0.731707317073171,-14,0.0608695652173913,-49,-0.21304347826087,152,-0.741463414634146,
2354358,5117.1875,48,-0.029429797670141,1024,0.627835683629675,-16080,9.85898221949724,13,4.20731707317073,-69,-0.792682926829268,-13,0.792682926829268,-13,0.0565217391304348,-48,-0.208695652173913,153,-0.746341463414634,
2354998,5136.71875,0,0,1056,0.647455548743102,-16048,9.83936235438381,12,4.32926829268293,-71,-0.731707317073171,-14,0.853658536585366,-16,0.0695652173913043,-42,-0.182608695652174,150,-0.731707317073171,
2355638,5156.25,32,-0.0196198651134273,1040,0.637645616186389,-16064,9.84917228694053,0,4.14634146341463,-68,0,-15,0.914634146341463,-13,0.0565217391304348,-44,-0.191304347826087,150,-0.731707317073171,
2356278,5175.78125,16,-0.00980993255671367,1136,0.696505211526671,-16080,9.85898221949724,-8,4.26829268292683,-70,0.487804878048781,-13,0.792682926829268,-14,0.0608695652173913,-46,-0.2,151,-0.736585365853659,
2356918,5195.3125,112,-0.0686695278969957,1088,0.66707541385653,-15936,9.77069282648682,-14,4.20731707317073,-69,0.853658536585366,-15,0.914634146341463,-13,0.0565217391304348,-42,-0.182608695652174,151,-0.736585365853659,
2357558,5214.84375,96,-0.058859595340282,1168,0.716125076640098,-15936,9.77069282648682,4,3.90243902439024,-64,-0.24390243902439,-17,1.03658536585366,-13,0.0565217391304348,-43,-0.18695652173913,149,-0.726829268292683,
2358198,5234.375,176,-0.10790925812385,1120,0.686695278969957,-15968,9.79031269160024,-3,3.71951219512195,-61,0.182926829268293,-25,1.52439024390244,-15,0.0652173913043478,-43,-0.18695652173913,152,-0.741463414634146,
2358838,5253.90625,160,-0.0980993255671367,1200,0.735744941753525,-15952,9.78050275904353,4,3.59756097560976,-59,-0.24390243902439,-27,1.64634146341463,-14,0.0608695652173913,-41,-0.178260869565217,151,-0.736585365853659,
2359478,5273.4375,64,-0.0392397302268547,1104,0.676885346413243,-15904,9.75107296137339,9,3.23170731707317,-53,-0.548780487804878,-24,1.46341463414634,-14,0.0608695652173913,-45,-0.195652173913043,152,-0.741463414634146,
2360118,5292.96875,32,-0.0196198651134273,1120,0.686695278969957,-15872,9.73145309625996,8,3.29268292682927,-54,-0.487804878048781,-30,1.82926829268293,-13,0.0565217391304348,-42,-0.182608695652174,152,-0.741463414634146,
2360758,5312.5,64,-0.0392397302268547,1152,0.706315144083384,-15968,9.79031269160024,12,2.86585365853659,-47,-0.731707317073171,-33,2.01219512195122,-11,0.0478260869565217,-48,-0.208695652173913,153,-0.746341463414634,
2361398,5332.03125,128,-0.0784794604537094,1056,0.647455548743102,-15968,9.79031269160024,10,2.80487804878049,-46,-0.609756097560976,-31,1.89024390243902,-15,0.0652173913043478,-44,-0.191304347826087,150,-0.731707317073171,
2362038,5351.5625,144,-0.088289393010423,1072,0.657265481299816,-15936,9.77069282648682,17,2.4390243902439,-40,-1.03658536585366,-35,2.13414634146341,-12,0.0521739130434783,-44,-0.191304347826087,151,-0.736585365853659,
2362678,5371.09375,48,-0.029429797670141,1104,0.676885346413243,-16000,9.80993255671367,-1,2.37804878048781,-39,0.0609756097560976,-37,2.25609756097561,-12,0.0521739130434783,-49,-0.21304347826087,151,-0.736585365853659,
2363318,5390.625,0,0,1088,0.66707541385653,-15936,9.77069282648682,-11,2.31707317073171,-38,0.670731707317073,-35,2.13414634146341,-14,0.0608695652173913,-46,-0.2,151,-0.736585365853659,
2363958,5410.15625,-16,0.00980993255671367,1072,0.657265481299816,-16000,9.80993255671367,-9,1.95121951219512,-32,0.548780487804878,-28,1.70731707317073,-11,0.0478260869565217,-45,-0.195652173913043,151,-0.736585365853659,
2364598,5429.6875,0,0,1120,0.686695278969957,-15936,9.77069282648682,-19,1.70731707317073,-28,1.15853658536585,-30,1.82926829268293,-13,0.0565217391304348,-49,-0.21304347826087,152,-0.741463414634146,
2365238,5449.21875,32,-0.0196198651134273,1168,0.716125076640098,-15936,9.77069282648682,-17,1.95121951219512,-32,1.03658536585366,-36,2.19512195121951,-14,0.0608695652173913,-49,-0.21304347826087,152,-0.741463414634146,
2365878,5468.75,-16,0.00980993255671367,1120,0.686695278969957,-16000,9.80993255671367,-1,1.64634146341463,-27,0.0609756097560976,-32,1.95121951219512,-11,0.0478260869565217,-48,-0.208695652173913,150,-0.731707317073171,
2366518,5488.28125,-48,0.029429797670141,1120,0.686695278969957,-15968,9.79031269160024,3,1.40243902439024,-23,-0.182926829268293,-31,1.89024390243902,-15,0.0652173913043478,-47,-0.204347826086957,151,-0.736585365853659,
2367158,5507.8125,16,-0.00980993255671367,1184,0.725935009196812,-16112,9.87860208461067,5,1.21951219512195,-20,-0.304878048780488,-20,1.21951219512195,-13,0.0565217391304348,-44,-0.191304347826087,151,-0.736585365853659,
2367798,5527.34375,48,-0.029429797670141,1104,0.676885346413243,-16112,9.87860208461067,6,1.34146341463415,-22,-0.365853658536585,-19,1.15853658536585,-13,0.0565217391304348,-43,-0.18695652173913,152,-0.741463414634146,
2368438,5546.875,-48,0.029429797670141,1088,0.66707541385653,-16272,9.9767014101778,15,1.34146341463415,-22,-0.914634146341463,-13,0.792682926829268,-14,0.0608695652173913,-44,-0.191304347826087,151,-0.736585365853659,
2369078,5566.40625,-160,0.0980993255671367,1024,0.627835683629675,-16240,9.95708154506438,26,1.89024390243902,-31,-1.58536585365854,-17,1.03658536585366,-14,0.0608695652173913,-41,-0.178260869565217,150,-0.731707317073171,
2369718,5585.9375,-224,0.137339055793991,1040,0.637645616186389,-16192,9.92765174739424,7,2.13414634146341,-35,-0.426829268292683,-15,0.914634146341463,-13,0.0565217391304348,-45,-0.195652173913043,151,-0.736585365853659,
2370358,5605.46875,-64,0.0392397302268547,1008,0.618025751072961,-16128,9.88841201716738,-8,2.19512195121951,-36,0.487804878048781,-13,0.792682926829268,-15,0.0652173913043478,-46,-0.2,151,-0.736585365853659,
2370998,5625,48,-0.029429797670141,992,0.608215818516248,-16208,9.93746167995095,13,2.07317073170732,-34,-0.792682926829268,-9,0.548780487804878,-15,0.0652173913043478,-43,-0.18695652173913,151,-0.736585365853659,
2371638,5644.53125,32,-0.0196198651134273,1040,0.637645616186389,-16208,9.93746167995095,16,2.13414634146341,-35,-0.975609756097561,-13,0.792682926829268,-13,0.0565217391304348,-42,-0.182608695652174,149,-0.726829268292683,
2372278,5664.0625,-32,0.0196198651134273,1008,0.618025751072961,-16160,9.90803188228081,19,2.19512195121951,-36,-1.15853658536585,-11,0.670731707317073,-14,0.0608695652173913,-43,-0.18695652173913,150,-0.731707317073171,
2372918,5683.59375,-112,0.0686695278969957,992,0.608215818516248,-16192,9.92765174739424,12,2.6219512195122,-43,-0.731707317073171,-13,0.792682926829268,-14,0.0608695652173913,-44,-0.191304347826087,148,-0.721951219512195,
2373558,5703.125,0,0,928,0.568976088289393,-16272,9.9767014101778,6,2.80487804878049,-46,-0.365853658536585,-13,0.792682926829268,-13,0.0565217391304348,-46,-0.2,151,-0.736585365853659,
2374198,5722.65625,16,-0.00980993255671367,944,0.578786020846107,-16192,9.92765174739424,16,3.35365853658537,-55,-0.975609756097561,-18,1.09756097560976,-14,0.0608695652173913,-47,-0.204347826086957,152,-0.741463414634146,
2374838,5742.1875,-128,0.0784794604537094,992,0.608215818516248,-16096,9.86879215205395,7,3.23170731707317,-53,-0.426829268292683,-22,1.34146341463415,-11,0.0478260869565217,-46,-0.2,150,-0.731707317073171,
2375478,5761.71875,-96,0.058859595340282,928,0.568976088289393,-16032,9.8295524218271,-6,3.59756097560976,-59,0.365853658536585,-25,1.52439024390244,-12,0.0521739130434783,-47,-0.204347826086957,151,-0.736585365853659,
2376118,5781.25,-112,0.0686695278969957,944,0.578786020846107,-16048,9.83936235438381,0,3.29268292682927,-54,0,-25,1.52439024390244,-13,0.0565217391304348,-45,-0.195652173913043,150,-0.731707317073171,
2376758,5800.78125,-48,0.029429797670141,928,0.568976088289393,-16032,9.8295524218271,24,3.41463414634146,-56,-1.46341463414634,-13,0.792682926829268,-13,0.0565217391304348,-44,-0.191304347826087,151,-0.736585365853659,
2377398,5820.3125,-112,0.0686695278969957,992,0.608215818516248,-16080,9.85898221949724,11,3.47560975609756,-57,-0.670731707317073,-11,0.670731707317073,-11,0.0478260869565217,-48,-0.208695652173913,152,-0.741463414634146,
2378038,5839.84375,-112,0.0686695278969957,1024,0.627835683629675,-16000,9.80993255671367,-3,3.10975609756098,-51,0.182926829268293,-10,0.609756097560976,-12,0.0521739130434783,-44,-0.191304347826087,149,-0.726829268292683,
2378678,5859.375,-80,0.0490496627835684,960,0.58859595340282,-16032,9.8295524218271,0,2.92682926829268,-48,0,-8,0.487804878048781,-13,0.0565217391304348,-44,-0.191304347826087,151,-0.736585365853659,
2379318,5878.90625,-48,0.029429797670141,1072,0.657265481299816,-16000,9.80993255671367,12,2.80487804878049,-46,-0.731707317073171,-17,1.03658536585366,-13,0.0565217391304348,-41,-0.178260869565217,150,-0.731707317073171,
2379958,5898.4375,-64,0.0392397302268547,1024,0.627835683629675,-16000,9.80993255671367,12,2.80487804878049,-46,-0.731707317073171,-18,1.09756097560976,-12,0.0521739130434783,-47,-0.204347826086957,152,-0.741463414634146,
2380598,5917.96875,-112,0.0686695278969957,1024,0.627835683629675,-15968,9.79031269160024,19,2.5,-41,-1.15853658536585,-17,1.03658536585366,-13,0.0565217391304348,-48,-0.208695652173913,152,-0.741463414634146,
2381238,5937.5,-112,0.0686695278969957,1024,0.627835683629675,-16048,9.83936235438381,9,2.5609756097561,-42,-0.548780487804878,-17,1.03658536585366,-12,0.0521739130434783,-46,-0.2,150,-0.731707317073171,
2381878,5957.03125,16,-0.00980993255671367,1008,0.618025751072961,-16048,9.83936235438381,2,2.68292682926829,-44,-0.121951219512195,-18,1.09756097560976,-12,0.0521739130434783,-45,-0.195652173913043,150,-0.731707317073171,
2382518,5976.5625,-96,0.058859595340282,944,0.578786020846107,-16080,9.85898221949724,7,2.86585365853659,-47,-0.426829268292683,-15,0.914634146341463,-10,0.0434782608695652,-47,-0.204347826086957,153,-0.746341463414634,
2383158,5996.09375,-224,0.137339055793991,1008,0.618025751072961,-16016,9.81974248927039,7,2.98780487804878,-49,-0.426829268292683,-14,0.853658536585366,-12,0.0521739130434783,-46,-0.2,153,-0.746341463414634,
2383798,6015.625,-144,0.088289393010423,960,0.58859595340282,-16128,9.88841201716738,11,2.80487804878049,-46,-0.670731707317073,-6,0.365853658536585,-12,0.0521739130434783,-44,-0.191304347826087,151,-0.736585365853659,
2384438,6035.15625,-144,0.088289393010423,992,0.608215818516248,-16208,9.93746167995095,16,2.80487804878049,-46,-0.975609756097561,-11,0.670731707317073,-14,0.0608695652173913,-40,-0.173913043478261,151,-0.736585365853659,
2385078,6054.6875,-208,0.127529123237278,912,0.559166155732679,-16176,9.91784181483752,13,2.92682926829268,-48,-0.792682926829268,-10,0.609756097560976,-13,0.0565217391304348,-47,-0.204347826086957,151,-0.736585365853659,
2385718,6074.21875,-176,0.10790925812385,912,0.559166155732679,-16192,9.92765174739424,13,3.04878048780488,-50,-0.792682926829268,-8,0.487804878048781,-14,0.0608695652173913,-42,-0.182608695652174,149,-0.726829268292683,
2386358,6093.75,-272,0.166768853464132,944,0.578786020846107,-16176,9.91784181483752,14,3.35365853658537,-55,-0.853658536585366,-3,0.182926829268293,-12,0.0521739130434783,-47,-0.204347826086957,150,-0.731707317073171,
2386998,6113.28125,-176,0.10790925812385,992,0.608215818516248,-16144,9.89822194972409,5,3.35365853658537,-55,-0.304878048780488,2,-0.121951219512195,-11,0.0478260869565217,-49,-0.21304347826087,151,-0.736585365853659,
2387638,6132.8125,-144,0.088289393010423,976,0.598405885959534,-16128,9.88841201716738,-4,3.71951219512195,-61,0.24390243902439,4,-0.24390243902439,-11,0.0478260869565217,-42,-0.182608695652174,150,-0.731707317073171,
2388278,6152.34375,-112,0.0686695278969957,960,0.58859595340282,-16160,9.90803188228081,5,3.96341463414634,-65,-0.304878048780488,-2,0.121951219512195,-13,0.0565217391304348,-44,-0.191304347826087,151,-0.736585365853659,
2388918,6171.875,-112,0.0686695278969957,1056,0.647455548743102,-16160,9.90803188228081,-1,3.90243902439024,-64,0.0609756097560976,-4,0.24390243902439,-11,0.0478260869565217,-48,-0.208695652173913,151,-0.736585365853659,
2389558,6191.40625,-64,0.0392397302268547,1024,0.627835683629675,-16112,9.87860208461067,-9,3.96341463414634,-65,0.548780487804878,-3,0.182926829268293,-14,0.0608695652173913,-40,-0.173913043478261,149,-0.726829268292683,
2390198,6210.9375,-112,0.0686695278969957,1024,0.627835683629675,-16032,9.8295524218271,4,3.71951219512195,-61,-0.24390243902439,-4,0.24390243902439,-13,0.0565217391304348,-44,-0.191304347826087,151,-0.736585365853659,
2390838,6230.46875,-32,0.0196198651134273,992,0.608215818516248,-16016,9.81974248927039,17,3.65853658536585,-60,-1.03658536585366,-5,0.304878048780488,-14,0.0608695652173913,-44,-0.191304347826087,149,-0.726829268292683,
2391478,6250,-80,0.0490496627835684,896,0.549356223175966,-16080,9.85898221949724,14,3.78048780487805,-62,-0.853658536585366,-2,0.121951219512195,-10,0.0434782608695652,-48,-0.208695652173913,152,-0.741463414634146,
2392118,6269.53125,-80,0.0490496627835684,960,0.58859595340282,-16000,9.80993255671367,6,3.53658536585366,-58,-0.365853658536585,-7,0.426829268292683,-10,0.0434782608695652,-48,-0.208695652173913,152,-0.741463414634146,
2392758,6289.0625,-96,0.058859595340282,1008,0.618025751072961,-16000,9.80993255671367,-2,3.47560975609756,-57,0.121951219512195,-8,0.487804878048781,-12,0.0521739130434783,-45,-0.195652173913043,150,-0.731707317073171,
2393398,6308.59375,-128,0.0784794604537094,1072,0.657265481299816,-16016,9.81974248927039,4,3.53658536585366,-58,-0.24390243902439,-12,0.731707317073171,-11,0.0478260869565217,-44,-0.191304347826087,150,-0.731707317073171,
2394038,6328.125,-208,0.127529123237278,1152,0.706315144083384,-15904,9.75107296137339,-8,3.41463414634146,-56,0.487804878048781,-11,0.670731707317073,-13,0.0565217391304348,-46,-0.2,152,-0.741463414634146,
2394678,6347.65625,-96,0.058859595340282,1056,0.647455548743102,-15856,9.72164316370325,-24,3.17073170731707,-52,1.46341463414634,-10,0.609756097560976,-13,0.0565217391304348,-44,-0.191304347826087,149,-0.726829268292683,
2395318,6367.1875,-64,0.0392397302268547,976,0.598405885959534,-15952,9.78050275904353,-1,2.5,-41,0.0609756097560976,-8,0.487804878048781,-11,0.0478260869565217,-46,-0.2,151,-0.736585365853659,
2395958,6386.71875,-32,0.0196198651134273,992,0.608215818516248,-15936,9.77069282648682,21,1.95121951219512,-32,-1.28048780487805,-15,0.914634146341463,-13,0.0565217391304348,-44,-0.191304347826087,150,-0.731707317073171,
2396598,6406.25,-112,0.0686695278969957,864,0.529736358062538,-16016,9.81974248927039,32,1.34146341463415,-22,-1.95121951219512,-8,0.487804878048781,-13,0.0565217391304348,-47,-0.204347826086957,150,-0.731707317073171,
2397238,6425.78125,-208,0.127529123237278,928,0.568976088289393,-16048,9.83936235438381,27,1.64634146341463,-27,-1.64634146341463,-3,0.182926829268293,-12,0.0521739130434783,-45,-0.195652173913043,150,-0.731707317073171,
2397878,6445.3125,-160,0.0980993255671367,896,0.549356223175966,-16080,9.85898221949724,19,2.01219512195122,-33,-1.15853658536585,-7,0.426829268292683,-13,0.0565217391304348,-46,-0.2,151,-0.736585365853659,
2398518,6464.84375,-240,0.147148988350705,848,0.519926425505825,-16176,9.91784181483752,20,2.31707317073171,-38,-1.21951219512195,-7,0.426829268292683,-10,0.0434782608695652,-47,-0.204347826086957,151,-0.736585365853659,
2399158,6484.375,-240,0.147148988350705,976,0.598405885959534,-16192,9.92765174739424,16,2.80487804878049,-46,-0.975609756097561,-8,0.487804878048781,-12,0.0521739130434783,-43,-0.18695652173913,152,-0.741463414634146,
2399798,6503.90625,-208,0.127529123237278,912,0.559166155732679,-16208,9.93746167995095,-7,2.80487804878049,-46,0.426829268292683,-5,0.304878048780488,-12,0.0521739130434783,-45,-0.195652173913043,151,-0.736585365853659,
2400438,6523.4375,-96,0.058859595340282,960,0.58859595340282,-16240,9.95708154506438,-5,2.98780487804878,-49,0.304878048780488,-8,0.487804878048781,-11,0.0478260869565217,-48,-0.208695652173913,153,-0.746341463414634,
2401078,6542.96875,-176,0.10790925812385,912,0.559166155732679,-16256,9.96689147762109,17,3.29268292682927,-54,-1.03658536585366,-6,0.365853658536585,-14,0.0608695652173913,-45,-0.195652173913043,150,-0.731707317073171,
2401718,6562.5,-336,0.206008583690987,832,0.510116492949111,-16320,10.0061312078479,21,3.84146341463415,-63,-1.28048780487805,-8,0.487804878048781,-12,0.0521739130434783,-46,-0.2,150,-0.731707317073171,
2402358,6582.03125,-336,0.206008583690987,976,0.598405885959534,-16192,9.92765174739424,-13,4.32926829268293,-71,0.792682926829268,-5,0.304878048780488,-11,0.0478260869565217,-47,-0.204347826086957,152,-0.741463414634146,
2402998,6601.5625,-176,0.10790925812385,880,0.539546290619252,-16112,9.87860208461067,-22,4.32926829268293,-71,1.34146341463415,-3,0.182926829268293,-10,0.0434782608695652,-46,-0.2,151,-0.736585365853659,
2403638,6621.09375,-224,0.137339055793991,1008,0.618025751072961,-16112,9.87860208461067,6,4.63414634146342,-76,-0.365853658536585,0,0,-13,0.0565217391304348,-43,-0.18695652173913,149,-0.726829268292683,
2404278,6640.625,-240,0.147148988350705,1008,0.618025751072961,-16032,9.8295524218271,7,4.45121951219512,-73,-0.426829268292683,2,-0.121951219512195,-13,0.0565217391304348,-43,-0.18695652173913,150,-0.731707317073171,
2404918,6660.15625,-128,0.0784794604537094,1056,0.647455548743102,-16000,9.80993255671367,1,4.45121951219512,-73,-0.0609756097560976,-4,0.24390243902439,-12,0.0521739130434783,-45,-0.195652173913043,151,-0.736585365853659,
2405558,6679.6875,-112,0.0686695278969957,1088,0.66707541385653,-15984,9.80012262415696,-3,4.20731707317073,-69,0.182926829268293,-6,0.365853658536585,-12,0.0521739130434783,-46,-0.2,151,-0.736585365853659,
2406198,6699.21875,-144,0.088289393010423,1056,0.647455548743102,-15920,9.7608828939301,17,3.96341463414634,-65,-1.03658536585366,-1,0.0609756097560976,-10,0.0434782608695652,-45,-0.195652173913043,150,-0.731707317073171,
2406838,6718.75,-160,0.0980993255671367,1040,0.637645616186389,-15904,9.75107296137339,12,3.90243902439024,-64,-0.731707317073171,0,0,-13,0.0565217391304348,-46,-0.2,150,-0.731707317073171,
2407478,6738.28125,-80,0.0490496627835684,1040,0.637645616186389,-15968,9.79031269160024,-11,3.96341463414634,-65,0.670731707317073,-2,0.121951219512195,-12,0.0521739130434783,-45,-0.195652173913043,151,-0.736585365853659,
2408118,6757.8125,-48,0.029429797670141,1024,0.627835683629675,-16048,9.83936235438381,-4,3.59756097560976,-59,0.24390243902439,-1,0.0609756097560976,-11,0.0478260869565217,-43,-0.18695652173913,150,-0.731707317073171,
2408758,6777.34375,-96,0.058859595340282,960,0.58859595340282,-16080,9.85898221949724,20,3.35365853658537,-55,-1.21951219512195,-2,0.121951219512195,-14,0.0608695652173913,-42,-0.182608695652174,149,-0.726829268292683,
2409398,6796.875,-80,0.0490496627835684,960,0.58859595340282,-16112,9.87860208461067,20,3.47560975609756,-57,-1.21951219512195,-8,0.487804878048781,-11,0.0478260869565217,-44,-0.191304347826087,149,-0.726829268292683,
2410038,6816.40625,-160,0.0980993255671367,1024,0.627835683629675,-16032,9.8295524218271,3,3.53658536585366,-58,-0.182926829268293,-9,0.548780487804878,-12,0.0521739130434783,-45,-0.195652173913043,150,-0.731707317073171,
2410678,6835.9375,-80,0.0490496627835684,1104,0.676885346413243,-16016,9.81974248927039,-10,3.41463414634146,-56,0.609756097560976,-10,0.609756097560976,-12,0.0521739130434783,-44,-0.191304347826087,151,-0.736585365853659,
2411318,6855.46875,-112,0.0686695278969957,1072,0.657265481299816,-16032,9.8295524218271,5,3.04878048780488,-50,-0.304878048780488,-13,0.792682926829268,-14,0.0608695652173913,-44,-0.191304347826087,150,-0.731707317073171,
2411958,6875,-224,0.137339055793991,1088,0.66707541385653,-16048,9.83936235438381,19,2.98780487804878,-49,-1.15853658536585,-16,0.975609756097561,-10,0.0434782608695652,-48,-0.208695652173913,152,-0.741463414634146,
2412598,6894.53125,-240,0.147148988350705,1088,0.66707541385653,-16032,9.8295524218271,11,2.98780487804878,-49,-0.670731707317073,-15,0.914634146341463,-13,0.0565217391304348,-45,-0.195652173913043,149,-0.726829268292683,
2413238,6914.0625,-160,0.0980993255671367,1088,0.66707541385653,-16048,9.83936235438381,5,2.92682926829268,-48,-0.304878048780488,-19,1.15853658536585,-11,0.0478260869565217,-46,-0.2,149,-0.726829268292683,
2413878,6933.59375,-272,0.166768853464132,1184,0.725935009196812,-16000,9.80993255671367,16,2.92682926829268,-48,-0.975609756097561,-20,1.21951219512195,-9,0.0391304347826087,-48,-0.208695652173913,152,-0.741463414634146,
2414518,6953.125,-224,0.137339055793991,1200,0.735744941753525,-16000,9.80993255671367,16,3.10975609756098,-51,-0.975609756097561,-16,0.975609756097561,-10,0.0434782608695652,-42,-0.182608695652174,150,-0.731707317073171,
2415158,6972.65625,-224,0.137339055793991,1152,0.706315144083384,-15984,9.80012262415696,3,2.86585365853659,-47,-0.182926829268293,-16,0.975609756097561,-11,0.0478260869565217,-44,-0.191304347826087,149,-0.726829268292683,
2415798,6992.1875,-176,0.10790925812385,1104,0.676885346413243,-16032,9.8295524218271,13,2.98780487804878,-49,-0.792682926829268,-14,0.853658536585366,-13,0.0565217391304348,-43,-0.18695652173913,149,-0.726829268292683,
2416438,7011.71875,-288,0.176578786020846,1232,0.755364806866953,-16032,9.8295524218271,20,3.23170731707317,-53,-1.21951219512195,-18,1.09756097560976,-12,0.0521739130434783,-43,-0.18695652173913,148,-0.721951219512195,
2417078,7031.25,-288,0.176578786020846,1216,0.745554874310239,-16128,9.88841201716738,2,2.86585365853659,-47,-0.121951219512195,-18,1.09756097560976,-13,0.0565217391304348,-44,-0.191304347826087,151,-0.736585365853659,
2417718,7050.78125,-336,0.206008583690987,1232,0.755364806866953,-16128,9.88841201716738,-11,3.17073170731707,-52,0.670731707317073,-20,1.21951219512195,-11,0.0478260869565217,-47,-0.204347826086957,149,-0.726829268292683,
2418358,7070.3125,-288,0.176578786020846,1136,0.696505211526671,-16032,9.8295524218271,-7,3.53658536585366,-58,0.426829268292683,-19,1.15853658536585,-10,0.0434782608695652,-47,-0.204347826086957,150,-0.731707317073171,
2418998,7089.84375,-368,0.225628448804414,1088,0.66707541385653,-16016,9.81974248927039,-10,3.59756097560976,-59,0.609756097560976,-12,0.731707317073171,-12,0.0521739130434783,-48,-0.208695652173913,150,-0.731707317073171,
2419638,7109.375,-304,0.18638871857756,1248,0.765174739423666,-16064,9.84917228694053,-4,3.41463414634146,-56,0.24390243902439,-8,0.487804878048781,-11,0.0478260869565217,-46,-0.2,150,-0.731707317073171,
2420278,7128.90625,-464,0.284488044144696,1472,0.902513795217658,-16032,9.8295524218271,2,3.59756097560976,-59,-0.121951219512195,-13,0.792682926829268,-10,0.0434782608695652,-48,-0.208695652173913,150,-0.731707317073171,
2420918,7148.4375,-464,0.284488044144696,1552,0.951563458001226,-15936,9.77069282648682,-23,3.29268292682927,-54,1.40243902439024,-22,1.34146341463415,-10,0.0434782608695652,-48,-0.208695652173913,150,-0.731707317073171,
2421558,7167.96875,-352,0.215818516247701,1408,0.863274064990803,-15856,9.72164316370325,-37,2.80487804878049,-46,2.25609756097561,-37,2.25609756097561,-12,0.0521739130434783,-43,-0.18695652173913,152,-0.741463414634146,
2422198,7187.5,-224,0.137339055793991,1184,0.725935009196812,-15888,9.74126302881668,0,2.5,-41,0,-21,1.28048780487805,-13,0.0565217391304348,-41,-0.178260869565217,149,-0.726829268292683,
2422838,7207.03125,-304,0.18638871857756,1104,0.676885346413243,-15984,9.80012262415696,27,2.13414634146341,-35,-1.64634146341463,-7,0.426829268292683,-13,0.0565217391304348,-40,-0.173913043478261,148,-0.721951219512195,
2423478,7226.5625,-320,0.196198651134273,928,0.568976088289393,-16000,9.80993255671367,32,1.76829268292683,-29,-1.95121951219512,17,-1.03658536585366,-12,0.0521739130434783,-40,-0.173913043478261,149,-0.726829268292683,
2424118,7246.09375,-304,0.18638871857756,736,0.451256897608829,-15968,9.79031269160024,9,1.76829268292683,-29,-0.548780487804878,23,-1.40243902439024,-12,0.0521739130434783,-46,-0.2,150,-0.731707317073171,
2424758,7265.625,-256,0.156958920907419,704,0.431637032495402,-16016,9.81974248927039,-5,1.82926829268293,-30,0.304878048780488,28,-1.70731707317073,-13,0.0565217391304348,-42,-0.182608695652174,149,-0.726829268292683,
2425398,7285.15625,-160,0.0980993255671367,768,0.470876762722256,-16000,9.80993255671367,-14,1.82926829268293,-30,0.853658536585366,20,-1.21951219512195,-10,0.0434782608695652,-46,-0.2,150,-0.731707317073171,
2426038,7304.6875,-224,0.137339055793991,784,0.48068669527897,-16128,9.88841201716738,-8,2.19512195121951,-36,0.487804878048781,12,-0.731707317073171,-11,0.0478260869565217,-45,-0.195652173913043,151,-0.736585365853659,
2426678,7324.21875,-112,0.0686695278969957,800,0.490496627835684,-16208,9.93746167995095,-11,2.07317073170732,-34,0.670731707317073,7,-0.426829268292683,-11,0.0478260869565217,-46,-0.2,150,-0.731707317073171,
2427318,7343.75,-96,0.058859595340282,800,0.490496627835684,-16256,9.96689147762109,-20,2.25609756097561,-37,1.21951219512195,8,-0.487804878048781,-13,0.0565217391304348,-43,-0.18695652173913,149,-0.726829268292683,
2427958,7363.28125,-320,0.196198651134273,1024,0.627835683629675,-16176,9.91784181483752,0,2.5609756097561,-42,0,2,-0.121951219512195,-13,0.0565217391304348,-43,-0.18695652173913,148,-0.721951219512195,
2428598,7382.8125,-400,0.245248313917842,1280,0.784794604537094,-16112,9.87860208461067,-9,2.86585365853659,-47,0.548780487804878,-13,0.792682926829268,-13,0.0565217391304348,-47,-0.204347826086957,151,-0.736585365853659,
2429238,7402.34375,-400,0.245248313917842,1456,0.892703862660944,-16032,9.8295524218271,-45,2.86585365853659,-47,2.74390243902439,-23,1.40243902439024,-11,0.0478260869565217,-42,-0.182608695652174,149,-0.726829268292683,
2429878,7421.875,-256,0.156958920907419,1536,0.941753525444513,-16016,9.81974248927039,-13,2.01219512195122,-33,0.792682926829268,-6,0.365853658536585,-10,0.0434782608695652,-47,-0.204347826086957,149,-0.726829268292683,
2430518,7441.40625,-176,0.10790925812385,1408,0.863274064990803,-16032,9.8295524218271,9,1.58536585365854,-26,-0.548780487804878,14,-0.853658536585366,-13,0.0565217391304348,-43,-0.18695652173913,150,-0.731707317073171,
2431158,7460.9375,-80,0.0490496627835684,1232,0.755364806866953,-16112,9.87860208461067,35,1.46341463414634,-24,-2.13414634146341,29,-1.76829268292683,-13,0.0565217391304348,-43,-0.18695652173913,149,-0.726829268292683,
2431798,7480.46875,-96,0.058859595340282,992,0.608215818516248,-16096,9.86879215205395,31,1.40243902439024,-23,-1.89024390243902,31,-1.89024390243902,-12,0.0521739130434783,-46,-0.2,150,-0.731707317073171,
2432438,7500,-208,0.127529123237278,864,0.529736358062538,-16080,9.85898221949724,-2,1.76829268292683,-29,0.121951219512195,19,-1.15853658536585,-14,0.0608695652173913,-43,-0.18695652173913,151,-0.736585365853659,
2433078,7519.53125,-176,0.10790925812385,784,0.48068669527897,-16160,9.90803188228081,-27,2.13414634146341,-35,1.64634146341463,-3,0.182926829268293,-12,0.0521739130434783,-40,-0.173913043478261,150,-0.731707317073171,
2433718,7539.0625,-128,0.0784794604537094,800,0.490496627835684,-16176,9.91784181483752,-35,2.37804878048781,-39,2.13414634146341,-17,1.03658536585366,-12,0.0521739130434783,-45,-0.195652173913043,149,-0.726829268292683,
2434358,7558.59375,-16,0.00980993255671367,848,0.519926425505825,-16288,9.98651134273452,-18,2.80487804878049,-46,1.09756097560976,-20,1.21951219512195,-11,0.0478260869565217,-46,-0.2,150,-0.731707317073171,
2434998,7578.125,32,-0.0196198651134273,848,0.519926425505825,-16352,10.0257510729614,8,3.53658536585366,-58,-0.487804878048781,-18,1.09756097560976,-14,0.0608695652173913,-46,-0.2,149,-0.726829268292683,
2435638,7597.65625,-64,0.0392397302268547,848,0.519926425505825,-16384,10.0453709380748,12,4.02439024390244,-66,-0.731707317073171,-21,1.28048780487805,-13,0.0565217391304348,-43,-0.18695652173913,149,-0.726829268292683,
2436278,7617.1875,-288,0.176578786020846,1072,0.657265481299816,-16320,10.0061312078479,-17,4.39024390243902,-72,1.03658536585366,-32,1.95121951219512,-11,0.0478260869565217,-43,-0.18695652173913,149,-0.726829268292683,
2436918,7636.71875,-352,0.215818516247701,1136,0.696505211526671,-16176,9.91784181483752,-46,4.32926829268293,-71,2.80487804878049,-38,2.31707317073171,-13,0.0565217391304348,-43,-0.18695652173913,148,-0.721951219512195,
2437558,7656.25,-256,0.156958920907419,1216,0.745554874310239,-16016,9.81974248927039,-19,4.20731707317073,-69,1.15853658536585,-41,2.5,-13,0.0565217391304348,-41,-0.178260869565217,148,-0.721951219512195,
2438198,7675.78125,-32,0.0196198651134273,1232,0.755364806866953,-16096,9.86879215205395,28,3.78048780487805,-62,-1.70731707317073,-32,1.95121951219512,-12,0.0521739130434783,-46,-0.2,150,-0.731707317073171,
2438838,7695.3125,-192,0.117719190680564,1136,0.696505211526671,-16080,9.85898221949724,28,3.35365853658537,-55,-1.70731707317073,-21,1.28048780487805,-13,0.0565217391304348,-45,-0.195652173913043,151,-0.736585365853659,
2439478,7714.84375,-304,0.18638871857756,1152,0.706315144083384,-16032,9.8295524218271,13,3.47560975609756,-57,-0.792682926829268,-17,1.03658536585366,-12,0.0521739130434783,-47,-0.204347826086957,151,-0.736585365853659,
2440118,7734.375,-288,0.176578786020846,1072,0.657265481299816,-16032,9.8295524218271,9,3.84146341463415,-63,-0.548780487804878,-23,1.40243902439024,-11,0.0478260869565217,-48,-0.208695652173913,150,-0.731707317073171,
2440758,7753.90625,-288,0.176578786020846,1120,0.686695278969957,-15968,9.79031269160024,-5,3.65853658536585,-60,0.304878048780488,-18,1.09756097560976,-11,0.0478260869565217,-44,-0.191304347826087,149,-0.726829268292683,
2441398,7773.4375,-320,0.196198651134273,1152,0.706315144083384,-15872,9.73145309625996,-19,3.41463414634146,-56,1.15853658536585,-11,0.670731707317073,-13,0.0565217391304348,-43,-0.18695652173913,149,-0.726829268292683,
2442038,7792.96875,-208,0.127529123237278,1088,0.66707541385653,-15888,9.74126302881668,-8,2.74390243902439,-45,0.487804878048781,-8,0.487804878048781,-12,0.0521739130434783,-44,-0.191304347826087,151,-0.736585365853659,
2442678,7812.5,-112,0.0686695278969957,1120,0.686695278969957,-15904,9.75107296137339,20,2.5,-41,-1.21951219512195,-14,0.853658536585366,-10,0.0434782608695652,-46,-0.2,150,-0.731707317073171,
2443318,7832.03125,-272,0.166768853464132,1072,0.657265481299816,-15808,9.69221336603311,9,2.07317073170732,-34,-0.548780487804878,-11,0.670731707317073,-11,0.0478260869565217,-48,-0.208695652173913,153,-0.746341463414634,
2443958,7851.5625,-272,0.166768853464132,1040,0.637645616186389,-15872,9.73145309625996,-12,2.01219512195122,-33,0.731707317073171,-12,0.731707317073171,-14,0.0608695652173913,-44,-0.191304347826087,149,-0.726829268292683,
2444598,7871.09375,-192,0.117719190680564,992,0.608215818516248,-15776,9.67259350091968,-3,1.46341463414634,-24,0.182926829268293,-11,0.670731707317073,-12,0.0521739130434783,-46,-0.2,149,-0.726829268292683,
2445238,7890.625,-176,0.10790925812385,960,0.58859595340282,-15872,9.73145309625996,4,1.46341463414634,-24,-0.24390243902439,-18,1.09756097560976,-11,0.0478260869565217,-47,-0.204347826086957,150,-0.731707317073171,
2445878,7910.15625,-288,0.176578786020846,1024,0.627835683629675,-15888,9.74126302881668,-11,1.15853658536585,-19,0.670731707317073,-27,1.64634146341463,-14,0.0608695652173913,-43,-0.18695652173913,151,-0.736585365853659,
2446518,7929.6875,-288,0.176578786020846,1040,0.637645616186389,-16016,9.81974248927039,-24,1.15853658536585,-19,1.46341463414634,-30,1.82926829268293,-11,0.0478260869565217,-43,-0.18695652173913,150,-0.731707317073171,
2447158,7949.21875,-176,0.10790925812385,1040,0.637645616186389,-16032,9.8295524218271,0,0.914634146341463,-15,0,-25,1.52439024390244,-13,0.0565217391304348,-42,-0.182608695652174,150,-0.731707317073171,
2447798,7968.75,-208,0.127529123237278,976,0.598405885959534,-16080,9.85898221949724,20,1.15853658536585,-19,-1.21951219512195,-23,1.40243902439024,-13,0.0565217391304348,-43,-0.18695652173913,148,-0.721951219512195,
2448438,7988.28125,-368,0.225628448804414,1024,0.627835683629675,-16160,9.90803188228081,-3,1.15853658536585,-19,0.182926829268293,-22,1.34146341463415,-14,0.0608695652173913,-45,-0.195652173913043,150,-0.731707317073171,
2449078,8007.8125,-352,0.215818516247701,1056,0.647455548743102,-16192,9.92765174739424,-19,1.46341463414634,-24,1.15853658536585,-13,0.792682926829268,-10,0.0434782608695652,-44,-0.191304347826087,150,-0.731707317073171,
2449718,8027.34375,-224,0.137339055793991,992,0.608215818516248,-16208,9.93746167995095,-18,1.52439024390244,-25,1.09756097560976,-5,0.304878048780488,-12,0.0521739130434783,-41,-0.178260869565217,148,-0.721951219512195,
2450358,8046.875,-272,0.166768853464132,960,0.58859595340282,-16240,9.95708154506438,-14,1.58536585365854,-26,0.853658536585366,0,0,-13,0.0565217391304348,-45,-0.195652173913043,148,-0.721951219512195,
2450998,8066.40625,-208,0.127529123237278,912,0.559166155732679,-16272,9.9767014101778,-14,1.82926829268293,-30,0.853658536585366,0,0,-12,0.0521739130434783,-46,-0.2,150,-0.731707317073171,
2451638,8085.9375,-176,0.10790925812385,976,0.598405885959534,-16176,9.91784181483752,-3,2.01219512195122,-33,0.182926829268293,1,-0.0609756097560976,-14,0.0608695652173913,-41,-0.178260869565217,149,-0.726829268292683,
2452278,8105.46875,-192,0.117719190680564,928,0.568976088289393,-16160,9.90803188228081,-5,2.31707317073171,-38,0.304878048780488,0,0,-13,0.0565217391304348,-46,-0.2,150,-0.731707317073171,
2452918,8125,-224,0.137339055793991,928,0.568976088289393,-16064,9.84917228694053,-15,2.37804878048781,-39,0.914634146341463,-4,0.24390243902439,-12,0.0521739130434783,-42,-0.182608695652174,152,-0.741463414634146,
2453558,8144.53125,-160,0.0980993255671367,928,0.568976088289393,-16096,9.86879215205395,-13,2.68292682926829,-44,0.792682926829268,-4,0.24390243902439,-13,0.0565217391304348,-42,-0.182608695652174,150,-0.731707317073171,
2454198,8164.0625,-128,0.0784794604537094,944,0.578786020846107,-16128,9.88841201716738,-15,2.92682926829268,-48,0.914634146341463,-6,0.365853658536585,-11,0.0478260869565217,-44,-0.191304347826087,149,-0.726829268292683,
2454838,8183.59375,-112,0.0686695278969957,912,0.559166155732679,-16208,9.93746167995095,-8,3.17073170731707,-52,0.487804878048781,-7,0.426829268292683,-13,0.0565217391304348,-40,-0.173913043478261,149,-0.726829268292683,
2455478,8203.125,-160,0.0980993255671367,912,0.559166155732679,-16224,9.94727161250766,-16,2.98780487804878,-49,0.975609756097561,-12,0.731707317073171,-13,0.0565217391304348,-44,-0.191304347826087,151,-0.736585365853659,
2456118,8222.65625,-176,0.10790925812385,960,0.58859595340282,-16176,9.91784181483752,-13,3.04878048780488,-50,0.792682926829268,-15,0.914634146341463,-14,0.0608695652173913,-42,-0.182608695652174,149,-0.726829268292683,
2456758,8242.1875,-112,0.0686695278969957,896,0.549356223175966,-16112,9.87860208461067,4,3.53658536585366,-58,-0.24390243902439,-18,1.09756097560976,-12,0.0521739130434783,-41,-0.178260869565217,150,-0.731707317073171,
2457398,8261.71875,-240,0.147148988350705,928,0.568976088289393,-16128,9.88841201716738,-2,3.59756097560976,-59,0.121951219512195,-21,1.28048780487805,-15,0.0652173913043478,-46,-0.2,150,-0.731707317073171,
2458038,8281.25,-208,0.127529123237278,960,0.58859595340282,-16096,9.86879215205395,-13,3.59756097560976,-59,0.792682926829268,-22,1.34146341463415,-12,0.0521739130434783,-43,-0.18695652173913,150,-0.731707317073171,
2458678,8300.78125,-128,0.0784794604537094,960,0.58859595340282,-16112,9.87860208461067,-15,3.90243902439024,-64,0.914634146341463,-19,1.15853658536585,-14,0.0608695652173913,-43,-0.18695652173913,149,-0.726829268292683,
2459318,8320.3125,-192,0.117719190680564,944,0.578786020846107,-16112,9.87860208461067,1,4.14634146341463,-68,-0.0609756097560976,-13,0.792682926829268,-14,0.0608695652173913,-42,-0.182608695652174,151,-0.736585365853659,
2459958,8339.84375,-272,0.166768853464132,992,0.608215818516248,-16048,9.83936235438381,-11,4.02439024390244,-66,0.670731707317073,-18,1.09756097560976,-13,0.0565217391304348,-41,-0.178260869565217,150,-0.731707317073171,
2460598,8359.375,-208,0.127529123237278,1008,0.618025751072961,-16000,9.80993255671367,-15,3.59756097560976,-59,0.914634146341463,-17,1.03658536585366,-13,0.0565217391304348,-41,-0.178260869565217,150,-0.731707317073171,
2461238,8378.90625,-96,0.058859595340282,960,0.58859595340282,-16000,9.80993255671367,0,3.59756097560976,-59,0,-17,1.03658536585366,-13,0.0565217391304348,-45,-0.195652173913043,149,-0.726829268292683,
2461878,8398.4375,-224,0.137339055793991,864,0.529736358062538,-16032,9.8295524218271,1,3.84146341463415,-63,-0.0609756097560976,-16,0.975609756097561,-13,0.0565217391304348,-43,-0.18695652173913,150,-0.731707317073171,
2462518,8417.96875,-272,0.166768853464132,928,0.568976088289393,-15968,9.79031269160024,-23,3.35365853658537,-55,1.40243902439024,-16,0.975609756097561,-13,0.0565217391304348,-42,-0.182608695652174,150,-0.731707317073171,
2463158,8437.5,-96,0.058859595340282,912,0.559166155732679,-15952,9.78050275904353,-8,3.10975609756098,-51,0.487804878048781,-10,0.609756097560976,-11,0.0478260869565217,-47,-0.204347826086957,150,-0.731707317073171,
2463798,8457.03125,-80,0.0490496627835684,960,0.58859595340282,-15984,9.80012262415696,13,2.6219512195122,-43,-0.792682926829268,-6,0.365853658536585,-12,0.0521739130434783,-44,-0.191304347826087,148,-0.721951219512195,
2464438,8476.5625,-224,0.137339055793991,944,0.578786020846107,-16016,9.81974248927039,1,2.31707317073171,-38,-0.0609756097560976,-8,0.487804878048781,-13,0.0565217391304348,-43,-0.18695652173913,151,-0.736585365853659,
2465078,8496.09375,-272,0.166768853464132,960,0.58859595340282,-15952,9.78050275904353,-12,2.25609756097561,-37,0.731707317073171,-12,0.731707317073171,-15,0.0652173913043478,-43,-0.18695652173913,149,-0.726829268292683,
2465718,8515.625,-224,0.137339055793991,912,0.559166155732679,-16000,9.80993255671367,3,2.25609756097561,-37,-0.182926829268293,-6,0.365853658536585,-10,0.0434782608695652,-46,-0.2,153,-0.746341463414634,
2466358,8535.15625,-256,0.156958920907419,976,0.598405885959534,-16032,9.8295524218271,9,2.01219512195122,-33,-0.548780487804878,-3,0.182926829268293,-10,0.0434782608695652,-47,-0.204347826086957,151,-0.736585365853659,
2466998,8554.6875,-192,0.117719190680564,944,0.578786020846107,-16112,9.87860208461067,3,2.07317073170732,-34,-0.182926829268293,-5,0.304878048780488,-13,0.0565217391304348,-42,-0.182608695652174,149,-0.726829268292683,
2467638,8574.21875,-224,0.137339055793991,912,0.559166155732679,-16064,9.84917228694053,9,2.13414634146341,-35,-0.548780487804878,-4,0.24390243902439,-11,0.0478260869565217,-45,-0.195652173913043,150,-0.731707317073171,
2468278,8593.75,-144,0.088289393010423,992,0.608215818516248,-16144,9.89822194972409,2,1.89024390243902,-31,-0.121951219512195,-2,0.121951219512195,-13,0.0565217391304348,-44,-0.191304347826087,152,-0.741463414634146,
2468918,8613.28125,-160,0.0980993255671367,960,0.58859595340282,-16176,9.91784181483752,1,2.25609756097561,-37,-0.0609756097560976,2,-0.121951219512195,-13,0.0565217391304348,-46,-0.2,152,-0.741463414634146,
2469558,8632.8125,-240,0.147148988350705,928,0.568976088289393,-16208,9.93746167995095,5,2.37804878048781,-39,-0.304878048780488,1,-0.0609756097560976,-11,0.0478260869565217,-46,-0.2,150,-0.731707317073171,
2470198,8652.34375,-208,0.127529123237278,960,0.58859595340282,-16192,9.92765174739424,2,2.4390243902439,-40,-0.121951219512195,4,-0.24390243902439,-12,0.0521739130434783,-45,-0.195652173913043,151,-0.736585365853659,
2470838,8671.875,-272,0.166768853464132,864,0.529736358062538,-16160,9.90803188228081,-2,2.68292682926829,-44,0.121951219512195,6,-0.365853658536585,-14,0.0608695652173913,-44,-0.191304347826087,149,-0.726829268292683,
2471478,8691.40625,-208,0.127529123237278,864,0.529736358062538,-16080,9.85898221949724,-10,2.74390243902439,-45,0.609756097560976,8,-0.487804878048781,-13,0.0565217391304348,-45,-0.195652173913043,149,-0.726829268292683,
2472118,8710.9375,-144,0.088289393010423,864,0.529736358062538,-16096,9.86879215205395,-7,2.68292682926829,-44,0.426829268292683,6,-0.365853658536585,-10,0.0434782608695652,-47,-0.204347826086957,150,-0.731707317073171,
2472758,8730.46875,-64,0.0392397302268547,912,0.559166155732679,-16112,9.87860208461067,0,2.5609756097561,-42,0,6,-0.365853658536585,-13,0.0565217391304348,-42,-0.182608695652174,151,-0.736585365853659,
2473398,8750,-96,0.058859595340282,944,0.578786020846107,-16096,9.86879215205395,10,2.74390243902439,-45,-0.609756097560976,8,-0.487804878048781,-13,0.0565217391304348,-42,-0.182608695652174,151,-0.736585365853659,
2474038,8769.53125,-224,0.137339055793991,896,0.549356223175966,-16144,9.89822194972409,-2,2.68292682926829,-44,0.121951219512195,3,-0.182926829268293,-11,0.0478260869565217,-46,-0.2,152,-0.741463414634146,
2474678,8789.0625,-48,0.029429797670141,848,0.519926425505825,-16208,9.93746167995095,-11,2.74390243902439,-45,0.670731707317073,-2,0.121951219512195,-13,0.0565217391304348,-40,-0.173913043478261,149,-0.726829268292683,
2475318,8808.59375,-64,0.0392397302268547,960,0.58859595340282,-16128,9.88841201716738,-5,2.68292682926829,-44,0.304878048780488,2,-0.121951219512195,-12,0.0521739130434783,-44,-0.191304347826087,150,-0.731707317073171,
2475958,8828.125,-96,0.058859595340282,912,0.559166155732679,-16000,9.80993255671367,-6,2.92682926829268,-48,0.365853658536585,-2,0.121951219512195,-13,0.0565217391304348,-42,-0.182608695652174,149,-0.726829268292683,
2476598,8847.65625,-144,0.088289393010423,848,0.519926425505825,-16032,9.8295524218271,0,2.68292682926829,-44,0,0,0,-12,0.0521739130434783,-40,-0.173913043478261,148,-0.721951219512195,
2477238,8867.1875,-144,0.088289393010423,928,0.568976088289393,-16016,9.81974248927039,-1,2.92682926829268,-48,0.0609756097560976,-1,0.0609756097560976,-12,0.0521739130434783,-40,-0.173913043478261,147,-0.717073170731707,
2477878,8886.71875,-96,0.058859595340282,992,0.608215818516248,-16064,9.84917228694053,2,2.68292682926829,-44,-0.121951219512195,-3,0.182926829268293,-13,0.0565217391304348,-41,-0.178260869565217,150,-0.731707317073171,
2478518,8906.25,-176,0.10790925812385,912,0.559166155732679,-16080,9.85898221949724,3,2.86585365853659,-47,-0.182926829268293,-7,0.426829268292683,-13,0.0565217391304348,-43,-0.18695652173913,150,-0.731707317073171,
2479158,8925.78125,-112,0.0686695278969957,944,0.578786020846107,-16096,9.86879215205395,-10,2.86585365853659,-47,0.609756097560976,-13,0.792682926829268,-13,0.0565217391304348,-46,-0.2,152,-0.741463414634146,
2479798,8945.3125,-208,0.127529123237278,944,0.578786020846107,-16112,9.87860208461067,-7,2.80487804878049,-46,0.426829268292683,-11,0.670731707317073,-12,0.0521739130434783,-45,-0.195652173913043,151,-0.736585365853659,
2480438,8964.84375,-160,0.0980993255671367,1024,0.627835683629675,-16064,9.84917228694053,-4,2.68292682926829,-44,0.24390243902439,-7,0.426829268292683,-15,0.0652173913043478,-41,-0.178260869565217,149,-0.726829268292683,
2481078,8984.375,-112,0.0686695278969957,912,0.559166155732679,-16000,9.80993255671367,-2,2.5609756097561,-42,0.121951219512195,-4,0.24390243902439,-12,0.0521739130434783,-41,-0.178260869565217,149,-0.726829268292683,
2481718,9003.90625,-16,0.00980993255671367,896,0.549356223175966,-16096,9.86879215205395,0,2.68292682926829,-44,0,-5,0.304878048780488,-12,0.0521739130434783,-43,-0.18695652173913,149,-0.726829268292683,
2482358,9023.4375,-96,0.058859595340282,848,0.519926425505825,-16064,9.84917228694053,2,2.86585365853659,-47,-0.121951219512195,-7,0.426829268292683,-11,0.0478260869565217,-42,-0.182608695652174,150,-0.731707317073171,
2482998,9042.96875,-192,0.117719190680564,928,0.568976088289393,-16064,9.84917228694053,-4,2.25609756097561,-37,0.24390243902439,-11,0.670731707317073,-13,0.0565217391304348,-41,-0.178260869565217,149,-0.726829268292683,
2483638,9062.5,-96,0.058859595340282,896,0.549356223175966,-16080,9.85898221949724,-2,2.68292682926829,-44,0.121951219512195,-10,0.609756097560976,-14,0.0608695652173913,-40,-0.173913043478261,148,-0.721951219512195,
2484278,9082.03125,-128,0.0784794604537094,896,0.549356223175966,-16048,9.83936235438381,4,3.04878048780488,-50,-0.24390243902439,-16,0.975609756097561,-14,0.0608695652173913,-42,-0.182608695652174,150,-0.731707317073171,
2484918,9101.5625,-128,0.0784794604537094,944,0.578786020846107,-16032,9.8295524218271,-8,2.80487804878049,-46,0.487804878048781,-11,0.670731707317073,-13,0.0565217391304348,-39,-0.169565217391304,150,-0.731707317073171,
2485558,9121.09375,-112,0.0686695278969957,944,0.578786020846107,-16112,9.87860208461067,1,2.19512195121951,-36,-0.0609756097560976,-6,0.365853658536585,-11,0.0478260869565217,-47,-0.204347826086957,152,-0.741463414634146,
2486198,9140.625,-208,0.127529123237278,912,0.559166155732679,-16160,9.90803188228081,7,2.13414634146341,-35,-0.426829268292683,-6,0.365853658536585,-12,0.0521739130434783,-43,-0.18695652173913,151,-0.736585365853659,
2486838,9160.15625,-96,0.058859595340282,944,0.578786020846107,-16208,9.93746167995095,4,1.70731707317073,-28,-0.24390243902439,-9,0.548780487804878,-14,0.0608695652173913,-42,-0.182608695652174,150,-0.731707317073171,
2487478,9179.6875,-144,0.088289393010423,832,0.510116492949111,-16224,9.94727161250766,8,2.25609756097561,-37,-0.487804878048781,-10,0.609756097560976,-11,0.0478260869565217,-43,-0.18695652173913,150,-0.731707317073171,
2488118,9199.21875,-144,0.088289393010423,912,0.559166155732679,-16240,9.95708154506438,2,2.68292682926829,-44,-0.121951219512195,-13,0.792682926829268,-15,0.0652173913043478,-46,-0.2,150,-0.731707317073171,
2488758,9218.75,-176,0.10790925812385,832,0.510116492949111,-16192,9.92765174739424,0,2.68292682926829,-44,0,-14,0.853658536585366,-13,0.0565217391304348,-41,-0.178260869565217,148,-0.721951219512195,
2489398,9238.28125,-48,0.029429797670141,800,0.490496627835684,-16208,9.93746167995095,-1,2.74390243902439,-45,0.0609756097560976,-11,0.670731707317073,-11,0.0478260869565217,-43,-0.18695652173913,149,-0.726829268292683,
2490038,9257.8125,-112,0.0686695278969957,864,0.529736358062538,-16240,9.95708154506438,7,2.92682926829268,-48,-0.426829268292683,-18,1.09756097560976,-12,0.0521739130434783,-39,-0.169565217391304,150,-0.731707317073171,
2490678,9277.34375,-144,0.088289393010423,800,0.490496627835684,-16144,9.89822194972409,1,2.98780487804878,-49,-0.0609756097560976,-18,1.09756097560976,-13,0.0565217391304348,-43,-0.18695652173913,149,-0.726829268292683,
2491318,9296.875,-144,0.088289393010423,832,0.510116492949111,-16128,9.88841201716738,-6,3.29268292682927,-54,0.365853658536585,-14,0.853658536585366,-15,0.0652173913043478,-43,-0.18695652173913,148,-0.721951219512195,
2491958,9316.40625,-256,0.156958920907419,848,0.519926425505825,-16096,9.86879215205395,8,3.29268292682927,-54,-0.487804878048781,-7,0.426829268292683,-10,0.0434782608695652,-46,-0.2,151,-0.736585365853659,
2492598,9335.9375,-208,0.127529123237278,864,0.529736358062538,-16112,9.87860208461067,3,3.47560975609756,-57,-0.182926829268293,-9,0.548780487804878,-13,0.0565217391304348,-45,-0.195652173913043,151,-0.736585365853659,
2493238,9355.46875,-192,0.117719190680564,880,0.539546290619252,-16112,9.87860208461067,-2,3.71951219512195,-61,0.121951219512195,-4,0.24390243902439,-12,0.0521739130434783,-42,-0.182608695652174,150,-0.731707317073171,
2493878,9375,-80,0.0490496627835684,912,0.559166155732679,-16048,9.83936235438381,-18,3.71951219512195,-61,1.09756097560976,-4,0.24390243902439,-13,0.0565217391304348,-41,-0.178260869565217,149,-0.726829268292683,
2494518,9394.53125,-112,0.0686695278969957,832,0.510116492949111,-16064,9.84917228694053,-4,3.53658536585366,-58,0.24390243902439,-3,0.182926829268293,-13,0.0565217391304348,-44,-0.191304347826087,150,-0.731707317073171,
2495158,9414.0625,-176,0.10790925812385,848,0.519926425505825,-16080,9.85898221949724,5,3.29268292682927,-54,-0.304878048780488,-8,0.487804878048781,-12,0.0521739130434783,-47,-0.204347826086957,151,-0.736585365853659,
2495798,9433.59375,-192,0.117719190680564,944,0.578786020846107,-16080,9.85898221949724,4,2.92682926829268,-48,-0.24390243902439,-7,0.426829268292683,-13,0.0565217391304348,-43,-0.18695652173913,151,-0.736585365853659,
2496438,9453.125,-160,0.0980993255671367,912,0.559166155732679,-16048,9.83936235438381,-7,2.68292682926829,-44,0.426829268292683,-9,0.548780487804878,-12,0.0521739130434783,-45,-0.195652173913043,151,-0.736585365853659,
2497078,9472.65625,-192,0.117719190680564,896,0.549356223175966,-16048,9.83936235438381,6,3.23170731707317,-53,-0.365853658536585,-4,0.24390243902439,-13,0.0565217391304348,-39,-0.169565217391304,149,-0.726829268292683,
2497718,9492.1875,-240,0.147148988350705,864,0.529736358062538,-16000,9.80993255671367,7,2.74390243902439,-45,-0.426829268292683,-2,0.121951219512195,-10,0.0434782608695652,-46,-0.2,151,-0.736585365853659,
2498358,9511.71875,-240,0.147148988350705,832,0.510116492949111,-16032,9.8295524218271,10,2.37804878048781,-39,-0.609756097560976,-1,0.0609756097560976,-11,0.0478260869565217,-45,-0.195652173913043,150,-0.731707317073171,
2498998,9531.25,-160,0.0980993255671367,880,0.539546290619252,-16000,9.80993255671367,-8,2.5609756097561,-42,0.487804878048781,-3,0.182926829268293,-14,0.0608695652173913,-42,-0.182608695652174,149,-0.726829268292683,
2499638,9550.78125,-80,0.0490496627835684,832,0.510116492949111,-16112,9.87860208461067,4,2.5609756097561,-42,-0.24390243902439,2,-0.121951219512195,-11,0.0478260869565217,-45,-0.195652173913043,151,-0.736585365853659,
2500278,9570.3125,-112,0.0686695278969957,800,0.490496627835684,-16096,9.86879215205395,19,2.25609756097561,-37,-1.15853658536585,1,-0.0609756097560976,-12,0.0521739130434783,-45,-0.195652173913043,151,-0.736585365853659,
2500918,9589.84375,-192,0.117719190680564,880,0.539546290619252,-16176,9.91784181483752,15,2.37804878048781,-39,-0.914634146341463,-5,0.304878048780488,-13,0.0565217391304348,-39,-0.169565217391304,149,-0.726829268292683,
2501558,9609.375,-192,0.117719190680564,832,0.510116492949111,-16112,9.87860208461067,0,2.5609756097561,-42,0,-8,0.487804878048781,-11,0.0478260869565217,-45,-0.195652173913043,151,-0.736585365853659,
2502198,9628.90625,-176,0.10790925812385,880,0.539546290619252,-16096,9.86879215205395,3,2.68292682926829,-44,-0.182926829268293,-11,0.670731707317073,-12,0.0521739130434783,-45,-0.195652173913043,149,-0.726829268292683,
2502838,9648.4375,-208,0.127529123237278,864,0.529736358062538,-16096,9.86879215205395,11,2.98780487804878,-49,-0.670731707317073,-7,0.426829268292683,-12,0.0521739130434783,-41,-0.178260869565217,149,-0.726829268292683,
2503478,9667.96875,-192,0.117719190680564,848,0.519926425505825,-16016,9.81974248927039,10,2.6219512195122,-43,-0.609756097560976,-9,0.548780487804878,-15,0.0652173913043478,-46,-0.2,150,-0.731707317073171,
2504118,9687.5,-208,0.127529123237278,784,0.48068669527897,-16096,9.86879215205395,8,2.86585365853659,-47,-0.487804878048781,-6,0.365853658536585,-13,0.0565217391304348,-41,-0.178260869565217,148,-0.721951219512195,
2504758,9707.03125,-176,0.10790925812385,736,0.451256897608829,-16096,9.86879215205395,12,2.86585365853659,-47,-0.731707317073171,-3,0.182926829268293,-13,0.0565217391304348,-42,-0.182608695652174,151,-0.736585365853659,
2505398,9726.5625,-208,0.127529123237278,864,0.529736358062538,-16192,9.92765174739424,8,2.68292682926829,-44,-0.487804878048781,-4,0.24390243902439,-10,0.0434782608695652,-43,-0.18695652173913,150,-0.731707317073171,
2506038,9746.09375,-176,0.10790925812385,864,0.529736358062538,-16224,9.94727161250766,3,2.92682926829268,-48,-0.182926829268293,-8,0.487804878048781,-11,0.0478260869565217,-48,-0.208695652173913,152,-0.741463414634146,
2506678,9765.625,-256,0.156958920907419,912,0.559166155732679,-16128,9.88841201716738,-5,3.29268292682927,-54,0.304878048780488,-6,0.365853658536585,-14,0.0608695652173913,-42,-0.182608695652174,151,-0.736585365853659,
2507318,9785.15625,-208,0.127529123237278,896,0.549356223175966,-16032,9.8295524218271,-11,3.04878048780488,-50,0.670731707317073,-1,0.0609756097560976,-11,0.0478260869565217,-43,-0.18695652173913,149,-0.726829268292683,
2507958,9804.6875,-128,0.0784794604537094,880,0.539546290619252,-15984,9.80012262415696,7,2.98780487804878,-49,-0.426829268292683,6,-0.365853658536585,-11,0.0478260869565217,-40,-0.173913043478261,149,-0.726829268292683,
2508598,9824.21875,-208,0.127529123237278,896,0.549356223175966,-16064,9.84917228694053,31,2.19512195121951,-36,-1.89024390243902,0,0,-13,0.0565217391304348,-40,-0.173913043478261,148,-0.721951219512195,
2509238,9843.75,-272,0.166768853464132,832,0.510116492949111,-16016,9.81974248927039,14,2.19512195121951,-36,-0.853658536585366,-1,0.0609756097560976,-11,0.0478260869565217,-42,-0.182608695652174,150,-0.731707317073171,
2509878,9863.28125,-288,0.176578786020846,768,0.470876762722256,-16144,9.89822194972409,1,2.80487804878049,-46,-0.0609756097560976,1,-0.0609756097560976,-14,0.0608695652173913,-43,-0.18695652173913,150,-0.731707317073171,
2510518,9882.8125,-272,0.166768853464132,784,0.48068669527897,-16144,9.89822194972409,2,3.35365853658537,-55,-0.121951219512195,-2,0.121951219512195,-13,0.0565217391304348,-41,-0.178260869565217,149,-0.726829268292683,
2511158,9902.34375,-272,0.166768853464132,768,0.470876762722256,-16080,9.85898221949724,2,3.29268292682927,-54,-0.121951219512195,-9,0.548780487804878,-14,0.0608695652173913,-45,-0.195652173913043,150,-0.731707317073171,
2511798,9921.875,-208,0.127529123237278,784,0.48068669527897,-16080,9.85898221949724,-3,3.35365853658537,-55,0.182926829268293,-14,0.853658536585366,-11,0.0478260869565217,-46,-0.2,150,-0.731707317073171,
2512438,9941.40625,-208,0.127529123237278,832,0.510116492949111,-16128,9.88841201716738,-5,3.47560975609756,-57,0.304878048780488,-12,0.731707317073171,-11,0.0478260869565217,-47,-0.204347826086957,151,-0.736585365853659,
2513078,9960.9375,-240,0.147148988350705,800,0.490496627835684,-16128,9.88841201716738,2,3.29268292682927,-54,-0.121951219512195,-9,0.548780487804878,-13,0.0565217391304348,-42,-0.182608695652174,149,-0.726829268292683,
2513718,9980.46875,-256,0.156958920907419,832,0.510116492949111,-16144,9.89822194972409,9,3.41463414634146,-56,-0.548780487804878,-2,0.121951219512195,-12,0.0521739130434783,-41,-0.178260869565217,149,-0.726829268292683,
2514358,10000,-400,0.245248313917842,896,0.549356223175966,-16048,9.83936235438381,-2,3.71951219512195,-61,0.121951219512195,-6,0.365853658536585,-11,0.0478260869565217,-41,-0.178260869565217,148,-0.721951219512195,
2514998,10019.53125,-352,0.215818516247701,752,0.461066830165543,-16000,9.80993255671367,-20,4.08536585365854,-67,1.21951219512195,-11,0.670731707317073,-13,0.0565217391304348,-41,-0.178260869565217,151,-0.736585365853659,
2515638,10039.0625,-192,0.117719190680564,816,0.500306560392397,-16048,9.83936235438381,-13,3.65853658536585,-60,0.792682926829268,0,0,-13,0.0565217391304348,-42,-0.182608695652174,150,-0.731707317073171,
2516278,10058.59375,-208,0.127529123237278,816,0.500306560392397,-15968,9.79031269160024,3,3.53658536585366,-58,-0.182926829268293,-2,0.121951219512195,-13,0.0565217391304348,-43,-0.18695652173913,150,-0.731707317073171,
2516918,10078.125,-304,0.18638871857756,800,0.490496627835684,-16048,9.83936235438381,2,3.47560975609756,-57,-0.121951219512195,2,-0.121951219512195,-12,0.0521739130434783,-42,-0.182608695652174,151,-0.736585365853659,
2517558,10097.65625,-288,0.176578786020846,864,0.529736358062538,-16128,9.88841201716738,-14,3.47560975609756,-57,0.853658536585366,2,-0.121951219512195,-11,0.0478260869565217,-44,-0.191304347826087,150,-0.731707317073171,
2518198,10117.1875,-192,0.117719190680564,896,0.549356223175966,-16048,9.83936235438381,-15,3.53658536585366,-58,0.914634146341463,3,-0.182926829268293,-10,0.0434782608695652,-43,-0.18695652173913,150,-0.731707317073171,
2518838,10136.71875,-256,0.156958920907419,928,0.568976088289393,-16064,9.84917228694053,4,3.41463414634146,-56,-0.24390243902439,3,-0.182926829268293,-12,0.0521739130434783,-44,-0.191304347826087,150,-0.731707317073171,
2519478,10156.25,-240,0.147148988350705,944,0.578786020846107,-16064,9.84917228694053,3,3.65853658536585,-60,-0.182926829268293,1,-0.0609756097560976,-12,0.0521739130434783,-44,-0.191304347826087,149,-0.726829268292683,
2520118,10175.78125,-128,0.0784794604537094,960,0.58859595340282,-16048,9.83936235438381,-25,3.17073170731707,-52,1.52439024390244,-2,0.121951219512195,-13,0.0565217391304348,-44,-0.191304347826087,150,-0.731707317073171,
2520758,10195.3125,-64,0.0392397302268547,912,0.559166155732679,-15968,9.79031269160024,-20,2.86585365853659,-47,1.21951219512195,-4,0.24390243902439,-15,0.0652173913043478,-41,-0.178260869565217,149,-0.726829268292683,
2521398,10214.84375,-192,0.117719190680564,944,0.578786020846107,-16080,9.85898221949724,11,2.6219512195122,-43,-0.670731707317073,-5,0.304878048780488,-14,0.0608695652173913,-41,-0.178260869565217,150,-0.731707317073171,
2522038,10234.375,-208,0.127529123237278,928,0.568976088289393,-16032,9.8295524218271,5,2.37804878048781,-39,-0.304878048780488,-9,0.548780487804878,-12,0.0521739130434783,-41,-0.178260869565217,149,-0.726829268292683,
2522678,10253.90625,-224,0.137339055793991,976,0.598405885959534,-16096,9.86879215205395,-6,2.6219512195122,-43,0.365853658536585,-9,0.548780487804878,-13,0.0565217391304348,-41,-0.178260869565217,150,-0.731707317073171,
2523318,10273.4375,-144,0.088289393010423,928,0.568976088289393,-16080,9.85898221949724,-11,2.5,-41,0.670731707317073,-12,0.731707317073171,-14,0.0608695652173913,-44,-0.191304347826087,150,-0.731707317073171,
2523958,10292.96875,-160,0.0980993255671367,928,0.568976088289393,-16064,9.84917228694053,3,2.6219512195122,-43,-0.182926829268293,-12,0.731707317073171,-12,0.0521739130434783,-42,-0.182608695652174,149,-0.726829268292683,
2524598,10312.5,-240,0.147148988350705,896,0.549356223175966,-15984,9.80012262415696,3,2.5609756097561,-42,-0.182926829268293,-13,0.792682926829268,-11,0.0478260869565217,-39,-0.169565217391304,150,-0.731707317073171,
2525238,10332.03125,-192,0.117719190680564,976,0.598405885959534,-16080,9.85898221949724,-1,2.4390243902439,-40,0.0609756097560976,-12,0.731707317073171,-11,0.0478260869565217,-43,-0.18695652173913,151,-0.736585365853659,
2525878,10351.5625,-176,0.10790925812385,992,0.608215818516248,-16048,9.83936235438381,13,2.5,-41,-0.792682926829268,-5,0.304878048780488,-10,0.0434782608695652,-46,-0.2,151,-0.736585365853659,
2526518,10371.09375,-144,0.088289393010423,944,0.578786020846107,-16096,9.86879215205395,8,2.01219512195122,-33,-0.487804878048781,-8,0.487804878048781,-10,0.0434782608695652,-46,-0.2,152,-0.741463414634146,
2527158,10390.625,-256,0.156958920907419,944,0.578786020846107,-16032,9.8295524218271,8,2.25609756097561,-37,-0.487804878048781,-10,0.609756097560976,-13,0.0565217391304348,-42,-0.182608695652174,149,-0.726829268292683,
2527798,10410.15625,-240,0.147148988350705,944,0.578786020846107,-16000,9.80993255671367,-1,2.19512195121951,-36,0.0609756097560976,-15,0.914634146341463,-11,0.0478260869565217,-42,-0.182608695652174,150,-0.731707317073171,
2528438,10429.6875,-96,0.058859595340282,880,0.539546290619252,-15952,9.78050275904353,-10,2.01219512195122,-33,0.609756097560976,-20,1.21951219512195,-14,0.0608695652173913,-41,-0.178260869565217,147,-0.717073170731707,
2529078,10449.21875,-32,0.0196198651134273,816,0.500306560392397,-15936,9.77069282648682,6,1.82926829268293,-30,-0.365853658536585,-8,0.487804878048781,-13,0.0565217391304348,-41,-0.178260869565217,147,-0.717073170731707,
2529718,10468.75,-160,0.0980993255671367,848,0.519926425505825,-16032,9.8295524218271,22,1.46341463414634,-24,-1.34146341463415,-15,0.914634146341463,-13,0.0565217391304348,-38,-0.165217391304348,149,-0.726829268292683,
2530358,10488.28125,-240,0.147148988350705,848,0.519926425505825,-16128,9.88841201716738,10,0.853658536585366,-14,-0.609756097560976,-17,1.03658536585366,-13,0.0565217391304348,-40,-0.173913043478261,149,-0.726829268292683,
2530998,10507.8125,-224,0.137339055793991,784,0.48068669527897,-16048,9.83936235438381,-5,1.28048780487805,-21,0.304878048780488,-28,1.70731707317073,-13,0.0565217391304348,-44,-0.191304347826087,149,-0.726829268292683,
2531638,10527.34375,-208,0.127529123237278,800,0.490496627835684,-16080,9.85898221949724,0,1.76829268292683,-29,0,-27,1.64634146341463,-11,0.0478260869565217,-46,-0.2,151,-0.736585365853659,
2532278,10546.875,-208,0.127529123237278,832,0.510116492949111,-16128,9.88841201716738,7,1.76829268292683,-29,-0.426829268292683,-22,1.34146341463415,-11,0.0478260869565217,-41,-0.178260869565217,149,-0.726829268292683,
2532918,10566.40625,-240,0.147148988350705,832,0.510116492949111,-16112,9.87860208461067,5,1.70731707317073,-28,-0.304878048780488,-30,1.82926829268293,-13,0.0565217391304348,-40,-0.173913043478261,149,-0.726829268292683,
2533558,10585.9375,-224,0.137339055793991,816,0.500306560392397,-16080,9.85898221949724,-9,1.70731707317073,-28,0.548780487804878,-36,2.19512195121951,-13,0.0565217391304348,-41,-0.178260869565217,149,-0.726829268292683,
2534198,10605.46875,-176,0.10790925812385,768,0.470876762722256,-16096,9.86879215205395,0,1.64634146341463,-27,0,-39,2.37804878048781,-14,0.0608695652173913,-41,-0.178260869565217,150,-0.731707317073171,
2534838,10625,-240,0.147148988350705,736,0.451256897608829,-16208,9.93746167995095,8,2.13414634146341,-35,-0.487804878048781,-36,2.19512195121951,-11,0.0478260869565217,-45,-0.195652173913043,150,-0.731707317073171,
2535478,10644.53125,-320,0.196198651134273,752,0.461066830165543,-16176,9.91784181483752,13,2.31707317073171,-38,-0.792682926829268,-31,1.89024390243902,-12,0.0521739130434783,-40,-0.173913043478261,150,-0.731707317073171,
2536118,10664.0625,-368,0.225628448804414,704,0.431637032495402,-16192,9.92765174739424,-5,2.31707317073171,-38,0.304878048780488,-31,1.89024390243902,-12,0.0521739130434783,-43,-0.18695652173913,149,-0.726829268292683,
