Shimmer,Shimmer,Shimmer,Shimmer,Shimmer,Shimmer,Shimmer,Shimmer,Shimmer,Shimmer,Shimmer,Shimmer,Shimmer,Shimmer,Shimmer,Shimmer,Shimmer,Shimmer,Shimmer,Shimmer,
Timestamp,Timestamp,Wide Range Accelerometer X,Wide Range Accelerometer X,Wide Range Accelerometer Y,Wide Range Accelerometer Y,Wide Range Accelerometer Z,Wide Range Accelerometer Z,Gyroscope X,Gyroscope X,Gyroscope Y,Gyroscope Y,Gyroscope Z,Gyroscope Z,Magnetometer X,Magnetometer X,Magnetometer Y,Magnetometer Y,Magnetometer Z,Magnetometer Z,
RAW,CAL,RAW,CAL,RAW,CAL,RAW,CAL,RAW,CAL,RAW,CAL,RAW,CAL,RAW,CAL,RAW,CAL,RAW,CAL,
no units,mSecs,no units,m/(sec^2),no units,m/(sec^2),no units,m/(sec^2),no units,deg/sec,no units,deg/sec,no units,deg/sec,no units,local,no units,local,no units,local,
4162998,0,4528,-2.77621091354997,-15376,-9.42734518700184,-1952,1.19681177191907,40,-0.792682926829268,13,-2.4390243902439,35,-2.13414634146341,-77,0.334782608695652,36,0.156521739130435,132,-0.64390243902439,
4163638,19.53125,4464,-2.73697118332311,-15424,-9.45677498467198,-2000,1.22624156958921,44,-0.853658536585366,14,-2.68292682926829,41,-2.5,-76,0.330434782608696,38,0.165217391304348,129,-0.629268292682927,
4164278,39.0625,4464,-2.73697118332311,-15504,-9.50582464745555,-1984,1.2164316370325,37,-0.670731707317073,11,-2.25609756097561,39,-2.37804878048781,-75,0.326086956521739,40,0.173913043478261,129,-0.629268292682927,
4164918,58.59375,4592,-2.81545064377682,-15488,-9.49601471489883,-2000,1.22624156958921,43,-0.792682926829268,13,-2.6219512195122,26,-1.58536585365854,-74,0.321739130434783,36,0.156521739130435,131,-0.639024390243902,
4165558,78.125,4624,-2.83507050889025,-15552,-9.53525444512569,-2064,1.26548129981606,52,-0.487804878048781,8,-3.17073170731707,15,-0.914634146341463,-74,0.321739130434783,39,0.169565217391304,131,-0.639024390243902,
4166198,97.65625,4720,-2.89393010423053,-15504,-9.50582464745555,-2064,1.26548129981606,60,-0.853658536585366,14,-3.65853658536585,11,-0.670731707317073,-74,0.321739130434783,39,0.169565217391304,129,-0.629268292682927,
4166838,117.1875,4720,-2.89393010423053,-15392,-9.43715511955855,-2048,1.25567136725935,78,-0.426829268292683,7,-4.75609756097561,8,-0.487804878048781,-74,0.321739130434783,39,0.169565217391304,129,-0.629268292682927,
4167478,136.71875,4608,-2.82526057633354,-15312,-9.38810545677498,-2016,1.23605150214592,74,-0.304878048780488,5,-4.51219512195122,7,-0.426829268292683,-75,0.326086956521739,40,0.173913043478261,130,-0.634146341463415,
4168118,156.25,4544,-2.78602084610668,-15344,-9.40772532188841,-1920,1.17719190680564,56,0.121951219512195,-2,-3.41463414634146,6,-0.365853658536585,-75,0.326086956521739,38,0.165217391304348,130,-0.634146341463415,
4168758,175.78125,4576,-2.80564071122011,-15504,-9.50582464745555,-1936,1.18700183936235,48,0.792682926829268,-13,-2.92682926829268,3,-0.182926829268293,-76,0.330434782608696,39,0.169565217391304,129,-0.629268292682927,
4169398,195.3125,4656,-2.85469037400368,-15552,-9.53525444512569,-2000,1.22624156958921,57,1.21951219512195,-20,-3.47560975609756,-6,0.365853658536585,-73,0.317391304347826,36,0.156521739130435,130,-0.634146341463415,
4170038,214.84375,4592,-2.81545064377682,-15520,-9.51563458001226,-1824,1.11833231146536,94,1.34146341463415,-22,-5.73170731707317,-13,0.792682926829268,-75,0.326086956521739,40,0.173913043478261,130,-0.634146341463415,
4170678,234.375,4544,-2.78602084610668,-15488,-9.49601471489883,-1888,1.15757204169221,118,1.21951219512195,-20,-7.19512195121951,-19,1.15853658536585,-75,0.326086956521739,42,0.182608695652174,129,-0.629268292682927,
4171318,253.90625,4352,-2.66830165542612,-15520,-9.51563458001226,-1824,1.11833231146536,130,1.40243902439024,-23,-7.92682926829268,-21,1.28048780487805,-73,0.317391304347826,37,0.160869565217391,129,-0.629268292682927,
4171958,273.4375,4288,-2.62906192519926,-15536,-9.52544451256898,-1808,1.10852237890864,124,1.09756097560976,-18,-7.5609756097561,-15,0.914634146341463,-75,0.326086956521739,41,0.178260869565217,130,-0.634146341463415,
4172598,292.96875,4256,-2.60944206008584,-15552,-9.53525444512569,-1840,1.12814224402207,112,0.975609756097561,-16,-6.82926829268293,-13,0.792682926829268,-74,0.321739130434783,40,0.173913043478261,129,-0.629268292682927,
4173238,312.5,4256,-2.60944206008584,-15584,-9.55487431023912,-1760,1.0790925812385,113,0.792682926829268,-13,-6.89024390243902,-6,0.365853658536585,-73,0.317391304347826,44,0.191304347826087,129,-0.629268292682927,
4173878,332.03125,4240,-2.59963212752912,-15632,-9.58430410790926,-1808,1.10852237890864,113,0.792682926829268,-13,-6.89024390243902,-4,0.24390243902439,-74,0.321739130434783,37,0.160869565217391,130,-0.634146341463415,
4174518,351.5625,4096,-2.5113427345187,-15584,-9.55487431023912,-1792,1.09871244635193,81,0.792682926829268,-13,-4.9390243902439,-5,0.304878048780488,-72,0.31304347826087,38,0.165217391304348,129,-0.629268292682927,
4175158,371.09375,4112,-2.52115266707541,-15504,-9.50582464745555,-1760,1.0790925812385,37,0.914634146341463,-15,-2.25609756097561,-3,0.182926829268293,-73,0.317391304347826,38,0.165217391304348,128,-0.624390243902439,
4175798,390.625,4128,-2.53096259963213,-15472,-9.48620478234212,-1824,1.11833231146536,-3,1.28048780487805,-21,0.182926829268293,-10,0.609756097560976,-73,0.317391304347826,42,0.182608695652174,128,-0.624390243902439,
4176438,410.15625,4208,-2.5800122624157,-15520,-9.51563458001226,-1888,1.15757204169221,-39,1.95121951219512,-32,2.37804878048781,-8,0.487804878048781,-73,0.317391304347826,37,0.160869565217391,131,-0.639024390243902,
4177078,429.6875,4208,-2.5800122624157,-15536,-9.52544451256898,-1872,1.1477621091355,-60,2.5609756097561,-42,3.65853658536585,-4,0.24390243902439,-73,0.317391304347826,39,0.169565217391304,130,-0.634146341463415,
4177718,449.21875,4336,-2.6584917228694,-15552,-9.53525444512569,-1872,1.1477621091355,-67,3.23170731707317,-53,4.08536585365854,-8,0.487804878048781,-73,0.317391304347826,41,0.178260869565217,129,-0.629268292682927,
4178358,468.75,4384,-2.68792152053955,-15552,-9.53525444512569,-1872,1.1477621091355,-69,3.47560975609756,-57,4.20731707317073,-12,0.731707317073171,-74,0.321739130434783,40,0.173913043478261,129,-0.629268292682927,
4178998,488.28125,4496,-2.75659104843654,-15600,-9.56468424279583,-1936,1.18700183936235,-54,3.84146341463415,-63,3.29268292682927,-15,0.914634146341463,-74,0.321739130434783,40,0.173913043478261,130,-0.634146341463415,
4179638,507.8125,4528,-2.77621091354997,-15632,-9.58430410790926,-1936,1.18700183936235,-41,4.14634146341463,-68,2.5,-18,1.09756097560976,-74,0.321739130434783,39,0.169565217391304,130,-0.634146341463415,
4180278,527.34375,4512,-2.76640098099326,-15600,-9.56468424279583,-1952,1.19681177191907,-19,4.9390243902439,-81,1.15853658536585,-12,0.731707317073171,-74,0.321739130434783,44,0.191304347826087,128,-0.624390243902439,
4180918,546.875,4512,-2.76640098099326,-15536,-9.52544451256898,-1936,1.18700183936235,-3,5.42682926829268,-89,0.182926829268293,-20,1.21951219512195,-73,0.317391304347826,38,0.165217391304348,129,-0.629268292682927,
4181558,566.40625,4512,-2.76640098099326,-15504,-9.50582464745555,-1936,1.18700183936235,21,5.42682926829268,-89,-1.28048780487805,-23,1.40243902439024,-74,0.321739130434783,38,0.165217391304348,129,-0.629268292682927,
4182198,585.9375,4608,-2.82526057633354,-15504,-9.50582464745555,-1984,1.2164316370325,45,5.73170731707317,-94,-2.74390243902439,-29,1.76829268292683,-73,0.317391304347826,41,0.178260869565217,130,-0.634146341463415,
4182838,605.46875,4576,-2.80564071122011,-15456,-9.47639484978541,-1968,1.20662170447578,65,5.54878048780488,-91,-3.96341463414634,-38,2.31707317073171,-73,0.317391304347826,37,0.160869565217391,129,-0.629268292682927,
4183478,625,4352,-2.66830165542612,-15456,-9.47639484978541,-1952,1.19681177191907,58,6.28048780487805,-103,-3.53658536585366,-49,2.98780487804878,-73,0.317391304347826,37,0.160869565217391,130,-0.634146341463415,
4184118,644.53125,4288,-2.62906192519926,-15504,-9.50582464745555,-1984,1.2164316370325,25,7.25609756097561,-119,-1.52439024390244,-60,3.65853658536585,-74,0.321739130434783,41,0.178260869565217,130,-0.634146341463415,
4184758,664.0625,4240,-2.59963212752912,-15472,-9.48620478234212,-1968,1.20662170447578,-17,8.10975609756098,-133,1.03658536585366,-63,3.84146341463415,-74,0.321739130434783,42,0.182608695652174,129,-0.629268292682927,
4185398,683.59375,4256,-2.60944206008584,-15488,-9.49601471489883,-1968,1.20662170447578,-59,8.84146341463415,-145,3.59756097560976,-62,3.78048780487805,-73,0.317391304347826,37,0.160869565217391,130,-0.634146341463415,
4186038,703.125,4272,-2.61925199264255,-15536,-9.52544451256898,-1904,1.16738197424893,-74,9.02439024390244,-148,4.51219512195122,-57,3.47560975609756,-74,0.321739130434783,37,0.160869565217391,131,-0.639024390243902,
4186678,722.65625,4336,-2.6584917228694,-15568,-9.5450643776824,-1840,1.12814224402207,-70,8.59756097560976,-141,4.26829268292683,-50,3.04878048780488,-74,0.321739130434783,39,0.169565217391304,129,-0.629268292682927,
4187318,742.1875,4224,-2.58982219497241,-15488,-9.49601471489883,-1776,1.08890251379522,-80,7.68292682926829,-126,4.87804878048781,-43,2.6219512195122,-76,0.330434782608696,42,0.182608695652174,129,-0.629268292682927,
4187958,761.71875,4192,-2.57020232985898,-15472,-9.48620478234212,-1808,1.10852237890864,-78,6.34146341463415,-104,4.75609756097561,-28,1.70731707317073,-73,0.317391304347826,36,0.156521739130435,131,-0.639024390243902,
4188598,781.25,4176,-2.56039239730227,-15408,-9.44696505211527,-1824,1.11833231146536,-64,5.24390243902439,-86,3.90243902439024,-12,0.731707317073171,-75,0.326086956521739,38,0.165217391304348,130,-0.634146341463415,
4189238,800.78125,4096,-2.5113427345187,-15328,-9.3979153893317,-1872,1.1477621091355,-98,4.39024390243902,-72,5.97560975609756,3,-0.182926829268293,-74,0.321739130434783,40,0.173913043478261,130,-0.634146341463415,
4189878,820.3125,4192,-2.57020232985898,-15392,-9.43715511955855,-1888,1.15757204169221,-125,3.71951219512195,-61,7.6219512195122,20,-1.21951219512195,-76,0.330434782608696,38,0.165217391304348,132,-0.64390243902439,
4190518,839.84375,4480,-2.74678111587983,-15440,-9.46658491722869,-1936,1.18700183936235,-108,3.17073170731707,-52,6.58536585365854,41,-2.5,-75,0.326086956521739,39,0.169565217391304,131,-0.639024390243902,
4191158,859.375,4592,-2.81545064377682,-15456,-9.47639484978541,-2016,1.23605150214592,-85,2.6219512195122,-43,5.18292682926829,48,-2.92682926829268,-73,0.317391304347826,39,0.169565217391304,130,-0.634146341463415,
4191798,878.90625,4720,-2.89393010423053,-15408,-9.44696505211527,-2096,1.28510116492949,-79,1.89024390243902,-31,4.81707317073171,48,-2.92682926829268,-73,0.317391304347826,38,0.165217391304348,131,-0.639024390243902,
4192438,898.4375,4864,-2.98221949724096,-15360,-9.41753525444513,-2080,1.27529123237278,-65,1.40243902439024,-23,3.96341463414634,34,-2.07317073170732,-75,0.326086956521739,37,0.160869565217391,132,-0.64390243902439,
4193078,917.96875,4896,-3.00183936235438,-15344,-9.40772532188841,-2128,1.30472103004292,-52,1.52439024390244,-25,3.17073170731707,19,-1.15853658536585,-74,0.321739130434783,38,0.165217391304348,131,-0.639024390243902,
4193718,937.5,5024,-3.08031882280809,-15376,-9.42734518700184,-2224,1.3635806253832,-40,1.70731707317073,-28,2.4390243902439,4,-0.24390243902439,-76,0.330434782608696,36,0.156521739130435,130,-0.634146341463415,
4194358,957.03125,4944,-3.03126916002452,-15312,-9.38810545677498,-2224,1.3635806253832,-27,1.95121951219512,-32,1.64634146341463,-3,0.182926829268293,-73,0.317391304347826,37,0.160869565217391,130,-0.634146341463415,
4194998,976.5625,4944,-3.03126916002452,-15408,-9.44696505211527,-2176,1.33415082771306,-23,2.01219512195122,-33,1.40243902439024,-23,1.40243902439024,-76,0.330434782608696,43,0.18695652173913,131,-0.639024390243902,
4195638,996.09375,5024,-3.08031882280809,-15392,-9.43715511955855,-2128,1.30472103004292,19,2.25609756097561,-37,-1.15853658536585,-32,1.95121951219512,-75,0.326086956521739,40,0.173913043478261,131,-0.639024390243902,
4196278,1015.625,4896,-3.00183936235438,-15392,-9.43715511955855,-2176,1.33415082771306,62,2.4390243902439,-40,-3.78048780487805,-38,2.31707317073171,-74,0.321739130434783,37,0.160869565217391,131,-0.639024390243902,
4196918,1035.15625,4800,-2.9429797670141,-15440,-9.46658491722869,-2176,1.33415082771306,79,2.6219512195122,-43,-4.81707317073171,-46,2.80487804878049,-74,0.321739130434783,38,0.165217391304348,131,-0.639024390243902,
4197558,1054.6875,4624,-2.83507050889025,-15408,-9.44696505211527,-2112,1.2949110974862,78,2.5,-41,-4.75609756097561,-51,3.10975609756098,-76,0.330434782608696,40,0.173913043478261,130,-0.634146341463415,
4198198,1074.21875,4592,-2.81545064377682,-15424,-9.45677498467198,-2016,1.23605150214592,77,2.68292682926829,-44,-4.69512195121951,-47,2.86585365853659,-76,0.330434782608696,38,0.165217391304348,129,-0.629268292682927,
4198838,1093.75,4560,-2.7958307786634,-15472,-9.48620478234212,-2032,1.24586143470264,84,2.37804878048781,-39,-5.1219512195122,-43,2.6219512195122,-74,0.321739130434783,37,0.160869565217391,132,-0.64390243902439,
4199478,1113.28125,4448,-2.7271612507664,-15504,-9.50582464745555,-1968,1.20662170447578,83,2.07317073170732,-34,-5.0609756097561,-38,2.31707317073171,-74,0.321739130434783,36,0.156521739130435,132,-0.64390243902439,
4200118,1132.8125,4304,-2.63887185775598,-15504,-9.50582464745555,-2032,1.24586143470264,85,2.01219512195122,-33,-5.18292682926829,-37,2.25609756097561,-75,0.326086956521739,40,0.173913043478261,130,-0.634146341463415,
4200758,1152.34375,4304,-2.63887185775598,-15552,-9.53525444512569,-1952,1.19681177191907,57,2.07317073170732,-34,-3.47560975609756,-31,1.89024390243902,-73,0.317391304347826,39,0.169565217391304,130,-0.634146341463415,
4201398,1171.875,4288,-2.62906192519926,-15456,-9.47639484978541,-1888,1.15757204169221,59,1.95121951219512,-32,-3.59756097560976,-28,1.70731707317073,-75,0.326086956521739,38,0.165217391304348,130,-0.634146341463415,
4202038,1191.40625,4192,-2.57020232985898,-15488,-9.49601471489883,-2000,1.22624156958921,53,1.89024390243902,-31,-3.23170731707317,-19,1.15853658536585,-76,0.330434782608696,38,0.165217391304348,130,-0.634146341463415,
4202678,1210.9375,4224,-2.58982219497241,-15536,-9.52544451256898,-1952,1.19681177191907,8,2.19512195121951,-36,-0.487804878048781,-19,1.15853658536585,-75,0.326086956521739,39,0.169565217391304,129,-0.629268292682927,
4203318,1230.46875,4320,-2.64868179031269,-15552,-9.53525444512569,-2032,1.24586143470264,3,2.5,-41,-0.182926829268293,-15,0.914634146341463,-74,0.321739130434783,38,0.165217391304348,130,-0.634146341463415,
4203958,1250,4240,-2.59963212752912,-15504,-9.50582464745555,-1984,1.2164316370325,-27,2.86585365853659,-47,1.64634146341463,-15,0.914634146341463,-76,0.330434782608696,38,0.165217391304348,131,-0.639024390243902,
4204598,1269.53125,4240,-2.59963212752912,-15552,-9.53525444512569,-2016,1.23605150214592,-58,3.35365853658537,-55,3.53658536585366,-18,1.09756097560976,-76,0.330434782608696,40,0.173913043478261,130,-0.634146341463415,
4205238,1289.0625,4368,-2.67811158798283,-15552,-9.53525444512569,-2016,1.23605150214592,-90,4.20731707317073,-69,5.48780487804878,-16,0.975609756097561,-74,0.321739130434783,37,0.160869565217391,129,-0.629268292682927,
4205878,1308.59375,4512,-2.76640098099326,-15552,-9.53525444512569,-2000,1.22624156958921,-102,4.75609756097561,-78,6.21951219512195,-14,0.853658536585366,-75,0.326086956521739,37,0.160869565217391,129,-0.629268292682927,
4206518,1328.125,4560,-2.7958307786634,-15584,-9.55487431023912,-2016,1.23605150214592,-109,5.18292682926829,-85,6.64634146341464,-14,0.853658536585366,-76,0.330434782608696,42,0.182608695652174,131,-0.639024390243902,
4207158,1347.65625,4544,-2.78602084610668,-15504,-9.50582464745555,-2000,1.22624156958921,-97,5.24390243902439,-86,5.91463414634146,-15,0.914634146341463,-76,0.330434782608696,41,0.178260869565217,131,-0.639024390243902,
4207798,1367.1875,4640,-2.84488044144697,-15488,-9.49601471489883,-1904,1.16738197424893,-84,5.36585365853659,-88,5.1219512195122,-10,0.609756097560976,-76,0.330434782608696,41,0.178260869565217,130,-0.634146341463415,
4208438,1386.71875,4704,-2.88412017167382,-15520,-9.51563458001226,-1936,1.18700183936235,-62,5.36585365853659,-88,3.78048780487805,-7,0.426829268292683,-75,0.326086956521739,36,0.156521739130435,131,-0.639024390243902,
4209078,1406.25,4736,-2.90374003678725,-15488,-9.49601471489883,-1936,1.18700183936235,-42,5.18292682926829,-85,2.5609756097561,-3,0.182926829268293,-78,0.339130434782609,39,0.169565217391304,130,-0.634146341463415,
4209718,1425.78125,4720,-2.89393010423053,-15456,-9.47639484978541,-2032,1.24586143470264,-15,4.87804878048781,-80,0.914634146341463,0,0,-75,0.326086956521739,40,0.173913043478261,130,-0.634146341463415,
4210358,1445.3125,4640,-2.84488044144697,-15408,-9.44696505211527,-2000,1.22624156958921,8,4.69512195121951,-77,-0.487804878048781,1,-0.0609756097560976,-75,0.326086956521739,41,0.178260869565217,129,-0.629268292682927,
4210998,1464.84375,4576,-2.80564071122011,-15392,-9.43715511955855,-2000,1.22624156958921,0,4.69512195121951,-77,0,-1,0.0609756097560976,-76,0.330434782608696,36,0.156521739130435,132,-0.64390243902439,
4211638,1484.375,4608,-2.82526057633354,-15440,-9.46658491722869,-2032,1.24586143470264,-8,4.57317073170732,-75,0.487804878048781,6,-0.365853658536585,-74,0.321739130434783,40,0.173913043478261,129,-0.629268292682927,
4212278,1503.90625,4592,-2.81545064377682,-15424,-9.45677498467198,-2080,1.27529123237278,-2,4.63414634146342,-76,0.121951219512195,14,-0.853658536585366,-74,0.321739130434783,40,0.173913043478261,131,-0.639024390243902,
4212918,1523.4375,4544,-2.78602084610668,-15376,-9.42734518700184,-2096,1.28510116492949,-3,4.69512195121951,-77,0.182926829268293,21,-1.28048780487805,-78,0.339130434782609,38,0.165217391304348,131,-0.639024390243902,
4213558,1542.96875,4624,-2.83507050889025,-15328,-9.3979153893317,-2048,1.25567136725935,-14,4.45121951219512,-73,0.853658536585366,18,-1.09756097560976,-76,0.330434782608696,39,0.169565217391304,131,-0.639024390243902,
4214198,1562.5,4608,-2.82526057633354,-15296,-9.37829552421827,-2032,1.24586143470264,-19,4.08536585365854,-67,1.15853658536585,13,-0.792682926829268,-74,0.321739130434783,38,0.165217391304348,131,-0.639024390243902,
4214838,1582.03125,4624,-2.83507050889025,-15328,-9.3979153893317,-2096,1.28510116492949,-20,4.08536585365854,-67,1.21951219512195,10,-0.609756097560976,-74,0.321739130434783,36,0.156521739130435,131,-0.639024390243902,
4215478,1601.5625,4720,-2.89393010423053,-15360,-9.41753525444513,-2064,1.26548129981606,-13,3.84146341463415,-63,0.792682926829268,6,-0.365853658536585,-76,0.330434782608696,37,0.160869565217391,131,-0.639024390243902,
4216118,1621.09375,4752,-2.91354996934396,-15360,-9.41753525444513,-1872,1.1477621091355,-6,3.65853658536585,-60,0.365853658536585,2,-0.121951219512195,-75,0.326086956521739,41,0.178260869565217,131,-0.639024390243902,
4216758,1640.625,4832,-2.96259963212753,-15344,-9.40772532188841,-1984,1.2164316370325,3,3.29268292682927,-54,-0.182926829268293,1,-0.0609756097560976,-75,0.326086956521739,41,0.178260869565217,129,-0.629268292682927,
4217398,1660.15625,4832,-2.96259963212753,-15376,-9.42734518700184,-2064,1.26548129981606,22,2.86585365853659,-47,-1.34146341463415,-3,0.182926829268293,-74,0.321739130434783,36,0.156521739130435,130,-0.634146341463415,
4218038,1679.6875,4848,-2.97240956468424,-15296,-9.37829552421827,-2096,1.28510116492949,34,2.74390243902439,-45,-2.07317073170732,-10,0.609756097560976,-76,0.330434782608696,40,0.173913043478261,131,-0.639024390243902,
4218678,1699.21875,4800,-2.9429797670141,-15296,-9.37829552421827,-1984,1.2164316370325,59,2.19512195121951,-36,-3.59756097560976,-11,0.670731707317073,-76,0.330434782608696,40,0.173913043478261,131,-0.639024390243902,
4219318,1718.75,4704,-2.88412017167382,-15328,-9.3979153893317,-1984,1.2164316370325,70,1.64634146341463,-27,-4.26829268292683,-17,1.03658536585366,-75,0.326086956521739,41,0.178260869565217,132,-0.64390243902439,
4219958,1738.28125,4688,-2.87431023911711,-15408,-9.44696505211527,-1984,1.2164316370325,82,1.34146341463415,-22,-5,-17,1.03658536585366,-75,0.326086956521739,37,0.160869565217391,131,-0.639024390243902,
4220598,1757.8125,4608,-2.82526057633354,-15472,-9.48620478234212,-2048,1.25567136725935,90,1.21951219512195,-20,-5.48780487804878,-13,0.792682926829268,-75,0.326086956521739,40,0.173913043478261,130,-0.634146341463415,
4221238,1777.34375,4528,-2.77621091354997,-15472,-9.48620478234212,-2064,1.26548129981606,97,1.03658536585366,-17,-5.91463414634146,-14,0.853658536585366,-74,0.321739130434783,41,0.178260869565217,130,-0.634146341463415,
4221878,1796.875,4464,-2.73697118332311,-15504,-9.50582464745555,-2112,1.2949110974862,107,0.792682926829268,-13,-6.52439024390244,-11,0.670731707317073,-74,0.321739130434783,39,0.169565217391304,131,-0.639024390243902,
4222518,1816.40625,4480,-2.74678111587983,-15440,-9.46658491722869,-2064,1.26548129981606,103,1.03658536585366,-17,-6.28048780487805,-10,0.609756097560976,-75,0.326086956521739,37,0.160869565217391,131,-0.639024390243902,
4223158,1835.9375,4464,-2.73697118332311,-15440,-9.46658491722869,-2064,1.26548129981606,80,1.03658536585366,-17,-4.87804878048781,-11,0.670731707317073,-73,0.317391304347826,39,0.169565217391304,131,-0.639024390243902,
4223798,1855.46875,4464,-2.73697118332311,-15472,-9.48620478234212,-2128,1.30472103004292,72,1.34146341463415,-22,-4.39024390243902,-10,0.609756097560976,-75,0.326086956521739,36,0.156521739130435,132,-0.64390243902439,
4224438,1875,4432,-2.71735131820969,-15472,-9.48620478234212,-2176,1.33415082771306,57,1.40243902439024,-23,-3.47560975609756,-9,0.548780487804878,-76,0.330434782608696,36,0.156521739130435,131,-0.639024390243902,
4225078,1894.53125,4496,-2.75659104843654,-15456,-9.47639484978541,-2096,1.28510116492949,44,1.58536585365854,-26,-2.68292682926829,-8,0.487804878048781,-74,0.321739130434783,38,0.165217391304348,129,-0.629268292682927,
4225718,1914.0625,4528,-2.77621091354997,-15504,-9.50582464745555,-1984,1.2164316370325,48,1.82926829268293,-30,-2.92682926829268,-5,0.304878048780488,-74,0.321739130434783,42,0.182608695652174,130,-0.634146341463415,
4226358,1933.59375,4512,-2.76640098099326,-15456,-9.47639484978541,-1968,1.20662170447578,52,1.64634146341463,-27,-3.17073170731707,-6,0.365853658536585,-74,0.321739130434783,37,0.160869565217391,130,-0.634146341463415,
4226998,1953.125,4464,-2.73697118332311,-15456,-9.47639484978541,-2032,1.24586143470264,36,1.76829268292683,-29,-2.19512195121951,-8,0.487804878048781,-75,0.326086956521739,43,0.18695652173913,130,-0.634146341463415,
4227638,1972.65625,4448,-2.7271612507664,-15408,-9.44696505211527,-2016,1.23605150214592,26,2.07317073170732,-34,-1.58536585365854,-11,0.670731707317073,-72,0.31304347826087,37,0.160869565217391,129,-0.629268292682927,
4228278,1992.1875,4416,-2.70754138565297,-15392,-9.43715511955855,-2048,1.25567136725935,13,2.37804878048781,-39,-0.792682926829268,-13,0.792682926829268,-74,0.321739130434783,38,0.165217391304348,131,-0.639024390243902,
4228918,2011.71875,4448,-2.7271612507664,-15424,-9.45677498467198,-2032,1.24586143470264,7,2.25609756097561,-37,-0.426829268292683,-12,0.731707317073171,-74,0.321739130434783,41,0.178260869565217,131,-0.639024390243902,
4229558,2031.25,4416,-2.70754138565297,-15392,-9.43715511955855,-2112,1.2949110974862,2,2.5,-41,-0.121951219512195,-12,0.731707317073171,-75,0.326086956521739,40,0.173913043478261,131,-0.639024390243902,
4230198,2050.78125,4416,-2.70754138565297,-15440,-9.46658491722869,-2048,1.25567136725935,-6,2.80487804878049,-46,0.365853658536585,-14,0.853658536585366,-74,0.321739130434783,38,0.165217391304348,131,-0.639024390243902,
4230838,2070.3125,4464,-2.73697118332311,-15456,-9.47639484978541,-2064,1.26548129981606,-17,2.74390243902439,-45,1.03658536585366,-8,0.487804878048781,-75,0.326086956521739,41,0.178260869565217,131,-0.639024390243902,
4231478,2089.84375,4528,-2.77621091354997,-15408,-9.44696505211527,-2112,1.2949110974862,-20,3.10975609756098,-51,1.21951219512195,-8,0.487804878048781,-74,0.321739130434783,41,0.178260869565217,128,-0.624390243902439,
4232118,2109.375,4416,-2.70754138565297,-15424,-9.45677498467198,-2064,1.26548129981606,-22,3.10975609756098,-51,1.34146341463415,-11,0.670731707317073,-76,0.330434782608696,42,0.182608695652174,129,-0.629268292682927,
4232758,2128.90625,4480,-2.74678111587983,-15408,-9.44696505211527,-1968,1.20662170447578,-33,2.80487804878049,-46,2.01219512195122,-8,0.487804878048781,-73,0.317391304347826,37,0.160869565217391,131,-0.639024390243902,
4233398,2148.4375,4528,-2.77621091354997,-15536,-9.52544451256898,-2016,1.23605150214592,-33,2.68292682926829,-44,2.01219512195122,5,-0.304878048780488,-75,0.326086956521739,39,0.169565217391304,131,-0.639024390243902,
4234038,2167.96875,4656,-2.85469037400368,-15488,-9.49601471489883,-2080,1.27529123237278,-20,2.86585365853659,-47,1.21951219512195,13,-0.792682926829268,-73,0.317391304347826,39,0.169565217391304,129,-0.629268292682927,
4234678,2187.5,4496,-2.75659104843654,-15456,-9.47639484978541,-2048,1.25567136725935,-5,2.98780487804878,-49,0.304878048780488,8,-0.487804878048781,-74,0.321739130434783,39,0.169565217391304,130,-0.634146341463415,
4235318,2207.03125,4512,-2.76640098099326,-15392,-9.43715511955855,-2064,1.26548129981606,-14,2.92682926829268,-48,0.853658536585366,5,-0.304878048780488,-74,0.321739130434783,38,0.165217391304348,131,-0.639024390243902,
4235958,2226.5625,4576,-2.80564071122011,-15344,-9.40772532188841,-2144,1.31453096259963,-11,2.92682926829268,-48,0.670731707317073,-1,0.0609756097560976,-75,0.326086956521739,37,0.160869565217391,131,-0.639024390243902,
4236598,2246.09375,4640,-2.84488044144697,-15344,-9.40772532188841,-2032,1.24586143470264,1,3.29268292682927,-54,-0.0609756097560976,-5,0.304878048780488,-73,0.317391304347826,38,0.165217391304348,129,-0.629268292682927,
4237238,2265.625,4656,-2.85469037400368,-15456,-9.47639484978541,-2096,1.28510116492949,12,3.35365853658537,-55,-0.731707317073171,-2,0.121951219512195,-74,0.321739130434783,37,0.160869565217391,129,-0.629268292682927,
4237878,2285.15625,4640,-2.84488044144697,-15504,-9.50582464745555,-2176,1.33415082771306,25,3.53658536585366,-58,-1.52439024390244,-7,0.426829268292683,-75,0.326086956521739,40,0.173913043478261,129,-0.629268292682927,
4238518,2304.6875,4672,-2.86450030656039,-15456,-9.47639484978541,-2112,1.2949110974862,28,3.53658536585366,-58,-1.70731707317073,-10,0.609756097560976,-74,0.321739130434783,42,0.182608695652174,130,-0.634146341463415,
4239158,2324.21875,4688,-2.87431023911711,-15488,-9.49601471489883,-2064,1.26548129981606,38,3.47560975609756,-57,-2.31707317073171,-17,1.03658536585366,-74,0.321739130434783,39,0.169565217391304,130,-0.634146341463415,
4239798,2343.75,4624,-2.83507050889025,-15408,-9.44696505211527,-2080,1.27529123237278,48,3.47560975609756,-57,-2.92682926829268,-23,1.40243902439024,-75,0.326086956521739,36,0.156521739130435,130,-0.634146341463415,
4240438,2363.28125,4512,-2.76640098099326,-15376,-9.42734518700184,-2112,1.2949110974862,42,3.47560975609756,-57,-2.5609756097561,-23,1.40243902439024,-76,0.330434782608696,41,0.178260869565217,129,-0.629268292682927,
4241078,2382.8125,4480,-2.74678111587983,-15392,-9.43715511955855,-2080,1.27529123237278,38,3.41463414634146,-56,-2.31707317073171,-25,1.52439024390244,-75,0.326086956521739,40,0.173913043478261,130,-0.634146341463415,
4241718,2402.34375,4464,-2.73697118332311,-15376,-9.42734518700184,-2096,1.28510116492949,47,3.71951219512195,-61,-2.86585365853659,-23,1.40243902439024,-73,0.317391304347826,37,0.160869565217391,131,-0.639024390243902,
4242358,2421.875,4448,-2.7271612507664,-15440,-9.46658491722869,-2080,1.27529123237278,35,3.78048780487805,-62,-2.13414634146341,-21,1.28048780487805,-74,0.321739130434783,37,0.160869565217391,131,-0.639024390243902,
4242998,2441.40625,4544,-2.78602084610668,-15408,-9.44696505211527,-2080,1.27529123237278,28,3.47560975609756,-57,-1.70731707317073,-22,1.34146341463415,-73,0.317391304347826,40,0.173913043478261,130,-0.634146341463415,
4243638,2460.9375,4544,-2.78602084610668,-15424,-9.45677498467198,-2144,1.31453096259963,37,3.65853658536585,-60,-2.25609756097561,-17,1.03658536585366,-73,0.317391304347826,40,0.173913043478261,130,-0.634146341463415,
4244278,2480.46875,4416,-2.70754138565297,-15440,-9.46658491722869,-2080,1.27529123237278,43,3.84146341463415,-63,-2.6219512195122,-21,1.28048780487805,-72,0.31304347826087,39,0.169565217391304,131,-0.639024390243902,
4244918,2500,4464,-2.73697118332311,-15392,-9.43715511955855,-2096,1.28510116492949,15,4.02439024390244,-66,-0.914634146341463,-19,1.15853658536585,-74,0.321739130434783,40,0.173913043478261,131,-0.639024390243902,
4245558,2519.53125,4400,-2.69773145309626,-15392,-9.43715511955855,-2032,1.24586143470264,-4,3.90243902439024,-64,0.24390243902439,-20,1.21951219512195,-72,0.31304347826087,39,0.169565217391304,131,-0.639024390243902,
4246198,2539.0625,4464,-2.73697118332311,-15392,-9.43715511955855,-2064,1.26548129981606,0,4.08536585365854,-67,0,-13,0.792682926829268,-74,0.321739130434783,40,0.173913043478261,130,-0.634146341463415,
4246838,2558.59375,4336,-2.6584917228694,-15376,-9.42734518700184,-2064,1.26548129981606,-6,4.02439024390244,-66,0.365853658536585,-16,0.975609756097561,-74,0.321739130434783,37,0.160869565217391,130,-0.634146341463415,
4247478,2578.125,4400,-2.69773145309626,-15376,-9.42734518700184,-2016,1.23605150214592,-29,3.71951219512195,-61,1.76829268292683,-17,1.03658536585366,-74,0.321739130434783,39,0.169565217391304,129,-0.629268292682927,
4248118,2597.65625,4448,-2.7271612507664,-15360,-9.41753525444513,-2016,1.23605150214592,-56,3.59756097560976,-59,3.41463414634146,-16,0.975609756097561,-73,0.317391304347826,36,0.156521739130435,130,-0.634146341463415,
4248758,2617.1875,4448,-2.7271612507664,-15408,-9.44696505211527,-2016,1.23605150214592,-59,3.47560975609756,-57,3.59756097560976,-12,0.731707317073171,-74,0.321739130434783,37,0.160869565217391,131,-0.639024390243902,
4249398,2636.71875,4560,-2.7958307786634,-15376,-9.42734518700184,-2080,1.27529123237278,-62,3.35365853658537,-55,3.78048780487805,-5,0.304878048780488,-75,0.326086956521739,40,0.173913043478261,131,-0.639024390243902,
4250038,2656.25,4592,-2.81545064377682,-15408,-9.44696505211527,-2128,1.30472103004292,-59,3.17073170731707,-52,3.59756097560976,0,0,-75,0.326086956521739,41,0.178260869565217,131,-0.639024390243902,
4250678,2675.78125,4672,-2.86450030656039,-15424,-9.45677498467198,-2048,1.25567136725935,-49,3.10975609756098,-51,2.98780487804878,-2,0.121951219512195,-73,0.317391304347826,41,0.178260869565217,129,-0.629268292682927,
4251318,2695.3125,4624,-2.83507050889025,-15440,-9.46658491722869,-2144,1.31453096259963,-45,2.98780487804878,-49,2.74390243902439,-2,0.121951219512195,-75,0.326086956521739,37,0.160869565217391,131,-0.639024390243902,
4251958,2714.84375,4720,-2.89393010423053,-15552,-9.53525444512569,-2208,1.35377069282649,-42,2.98780487804878,-49,2.5609756097561,1,-0.0609756097560976,-75,0.326086956521739,40,0.173913043478261,131,-0.639024390243902,
4252598,2734.375,4800,-2.9429797670141,-15568,-9.5450643776824,-2336,1.4322501532802,-35,2.92682926829268,-48,2.13414634146341,2,-0.121951219512195,-77,0.334782608695652,41,0.178260869565217,129,-0.629268292682927,
4253238,2753.90625,4784,-2.93316983445739,-15472,-9.48620478234212,-2320,1.42244022072348,-15,3.23170731707317,-53,0.914634146341463,-4,0.24390243902439,-73,0.317391304347826,37,0.160869565217391,132,-0.64390243902439,
4253878,2773.4375,4768,-2.92335990190067,-15456,-9.47639484978541,-2288,1.40282035561006,-10,3.23170731707317,-53,0.609756097560976,-2,0.121951219512195,-73,0.317391304347826,38,0.165217391304348,131,-0.639024390243902,
4254518,2792.96875,4864,-2.98221949724096,-15504,-9.50582464745555,-2288,1.40282035561006,-9,3.59756097560976,-59,0.548780487804878,-5,0.304878048780488,-74,0.321739130434783,40,0.173913043478261,130,-0.634146341463415,
4255158,2812.5,4784,-2.93316983445739,-15520,-9.51563458001226,-2352,1.44206008583691,13,4.39024390243902,-72,-0.792682926829268,0,0,-75,0.326086956521739,40,0.173913043478261,129,-0.629268292682927,
4255798,2832.03125,4736,-2.90374003678725,-15472,-9.48620478234212,-2288,1.40282035561006,31,4.69512195121951,-77,-1.89024390243902,-7,0.426829268292683,-76,0.330434782608696,40,0.173913043478261,131,-0.639024390243902,
4256438,2851.5625,4656,-2.85469037400368,-15376,-9.42734518700184,-2224,1.3635806253832,34,5,-82,-2.07317073170732,-14,0.853658536585366,-75,0.326086956521739,41,0.178260869565217,131,-0.639024390243902,
4257078,2871.09375,4640,-2.84488044144697,-15344,-9.40772532188841,-2192,1.34396076026977,28,5.24390243902439,-86,-1.70731707317073,-27,1.64634146341463,-74,0.321739130434783,38,0.165217391304348,130,-0.634146341463415,
4257718,2890.625,4624,-2.83507050889025,-15344,-9.40772532188841,-2160,1.32434089515635,29,5.24390243902439,-86,-1.76829268292683,-31,1.89024390243902,-73,0.317391304347826,38,0.165217391304348,131,-0.639024390243902,
4258358,2910.15625,4560,-2.7958307786634,-15312,-9.38810545677498,-2160,1.32434089515635,24,5.36585365853659,-88,-1.46341463414634,-35,2.13414634146341,-74,0.321739130434783,38,0.165217391304348,129,-0.629268292682927,
4258998,2929.6875,4560,-2.7958307786634,-15408,-9.44696505211527,-2192,1.34396076026977,15,5.18292682926829,-85,-0.914634146341463,-31,1.89024390243902,-73,0.317391304347826,38,0.165217391304348,129,-0.629268292682927,
4259638,2949.21875,4512,-2.76640098099326,-15392,-9.43715511955855,-2048,1.25567136725935,14,4.9390243902439,-81,-0.853658536585366,-34,2.07317073170732,-74,0.321739130434783,35,0.152173913043478,131,-0.639024390243902,
4260278,2968.75,4480,-2.74678111587983,-15360,-9.41753525444513,-2112,1.2949110974862,11,4.63414634146342,-76,-0.670731707317073,-31,1.89024390243902,-74,0.321739130434783,38,0.165217391304348,130,-0.634146341463415,
4260918,2988.28125,4896,-3.00183936235438,-15120,-9.27038626609442,-2016,1.23605150214592,19,3.84146341463415,-63,-1.15853658536585,-25,1.52439024390244,-76,0.330434782608696,40,0.173913043478261,130,-0.634146341463415,
4261558,3007.8125,6080,-3.7277743715512,-15200,-9.31943592887799,-2432,1.49110974862048,118,0.487804878048781,-8,-7.19512195121951,-7,0.426829268292683,-74,0.321739130434783,37,0.160869565217391,131,-0.639024390243902,
4262198,3027.34375,6384,-3.91416309012876,-15344,-9.40772532188841,-3568,2.18761496014715,434,-3.41463414634146,56,-26.4634146341463,64,-3.90243902439024,-73,0.317391304347826,36,0.156521739130435,130,-0.634146341463415,
4262838,3046.875,5936,-3.63948497854077,-14544,-8.91722869405273,-4672,2.86450030656039,724,-2.6219512195122,43,-44.1463414634146,152,-9.26829268292683,-73,0.317391304347826,42,0.182608695652174,130,-0.634146341463415,
4263478,3066.40625,6976,-4.27713059472716,-14016,-8.59350091968118,-6000,3.67872470876763,671,-1.03658536585366,17,-40.9146341463415,276,-16.8292682926829,-71,0.308695652173913,39,0.169565217391304,130,-0.634146341463415,
4264118,3085.9375,8464,-5.18945432250153,-14464,-8.86817903126916,-8016,4.91477621091355,683,5.18292682926829,-85,-41.6463414634146,462,-28.1707317073171,-69,0.3,39,0.169565217391304,130,-0.634146341463415,
4264758,3105.46875,10048,-6.16063764561619,-15120,-9.27038626609442,-9408,5.76824034334764,1561,35.9756097560976,-590,-95.1829268292683,688,-41.9512195121951,-66,0.28695652173913,36,0.156521739130435,131,-0.639024390243902,
4265398,3125,10240,-6.27835683629675,-15888,-9.74126302881668,-9952,6.1017780502759,1929,46.4634146341463,-762,-117.621951219512,651,-39.6951219512195,-64,0.278260869565217,38,0.165217391304348,129,-0.629268292682927,
4266038,3144.53125,9408,-5.76824034334764,-17376,-10.653586756591,-10480,6.42550582464746,1892,60.3048780487805,-989,-115.365853658537,436,-26.5853658536585,-62,0.269565217391304,38,0.165217391304348,130,-0.634146341463415,
4266678,3164.0625,8432,-5.16983445738811,-18416,-11.2912323727774,-10464,6.41569589209074,1634,72.1951219512195,-1184,-99.6341463414634,79,-4.81707317073171,-58,0.252173913043478,33,0.143478260869565,131,-0.639024390243902,
4267318,3183.59375,7392,-4.53218884120172,-19024,-11.6640098099326,-10480,6.42550582464746,1311,82.8658536585366,-1359,-79.9390243902439,-335,20.4268292682927,-56,0.243478260869565,33,0.143478260869565,133,-0.648780487804878,
4267958,3203.125,6480,-3.97302268546904,-19392,-11.889638258737,-10784,6.61189454322501,947,94.7560975609756,-1554,-57.7439024390244,-676,41.219512195122,-54,0.234782608695652,32,0.139130434782609,133,-0.648780487804878,
4268598,3222.65625,5888,-3.61005518087063,-19456,-11.9288779889638,-10928,6.70018393623544,582,104.634146341463,-1716,-35.4878048780488,-909,55.4268292682927,-53,0.230434782608696,30,0.130434782608696,135,-0.658536585365854,
4269238,3242.1875,5872,-3.60024524831392,-19360,-11.8700183936235,-11088,6.79828326180257,289,112.987804878049,-1853,-17.6219512195122,-1072,65.3658536585366,-56,0.243478260869565,33,0.143478260869565,137,-0.668292682926829,
4269878,3261.71875,6448,-3.95340282035561,-19152,-11.7424892703863,-11248,6.89638258736971,102,121.768292682927,-1997,-6.21951219512195,-1149,70.0609756097561,-56,0.243478260869565,29,0.126086956521739,140,-0.682926829268293,
4270518,3281.25,7264,-4.45370938074801,-19040,-11.6738197424893,-11280,6.91600245248314,44,129.024390243902,-2116,-2.68292682926829,-1188,72.4390243902439,-58,0.252173913043478,23,0.1,141,-0.68780487804878,
4271158,3300.78125,8128,-4.98344573881055,-19008,-11.6541998773758,-11216,6.87676272225628,197,134.390243902439,-2204,-12.0121951219512,-1206,73.5365853658537,-58,0.252173913043478,25,0.108695652173913,144,-0.702439024390244,
4271798,3320.3125,8384,-5.14040465971796,-19008,-11.6541998773758,-11520,7.06315144083384,392,139.146341463415,-2282,-23.9024390243902,-1216,74.1463414634146,-60,0.260869565217391,23,0.1,149,-0.726829268292683,
4272438,3339.84375,8288,-5.08154506437768,-18864,-11.5659104843654,-11520,7.06315144083384,473,144.085365853659,-2363,-28.8414634146341,-1240,75.609756097561,-60,0.260869565217391,19,0.0826086956521739,152,-0.741463414634146,
4273078,3359.375,8288,-5.08154506437768,-18560,-11.3795217657879,-10864,6.66094420600858,570,146.40243902439,-2401,-34.7560975609756,-1309,79.8170731707317,-60,0.260869565217391,11,0.0478260869565217,155,-0.75609756097561,
4273718,3378.90625,7872,-4.82648681790313,-18112,-11.1048436541999,-10288,6.30778663396689,663,147.378048780488,-2417,-40.4268292682927,-1370,83.5365853658537,-61,0.265217391304348,7,0.0304347826086957,159,-0.775609756097561,
4274358,3398.4375,7424,-4.55180870631514,-17344,-10.6339668914776,-10432,6.39607602697731,730,147.073170731707,-2412,-44.5121951219512,-1441,87.8658536585366,-61,0.265217391304348,6,0.0260869565217391,157,-0.765853658536585,
4274998,3417.96875,6848,-4.19865113427345,-16528,-10.1336603310852,-10272,6.29797670141018,770,146.951219512195,-2410,-46.9512195121951,-1480,90.2439024390244,-62,0.269565217391304,5,0.0217391304347826,160,-0.780487804878049,
4275638,3437.5,6288,-3.85530349478847,-15744,-9.65297363580625,-10192,6.24892703862661,738,145.731707317073,-2390,-45,-1522,92.8048780487805,-59,0.256521739130435,-4,-0.0173913043478261,163,-0.795121951219512,
4276278,3457.03125,5776,-3.54138565297364,-14992,-9.19190680564071,-10272,6.29797670141018,692,144.207317073171,-2365,-42.1951219512195,-1504,91.7073170731707,-58,0.252173913043478,-7,-0.0304347826086957,166,-0.809756097560976,
4276918,3476.5625,5264,-3.2274678111588,-13968,-8.56407112201104,-10400,6.37645616186389,604,142.621951219512,-2339,-36.8292682926829,-1471,89.6951219512195,-57,0.247826086956522,-8,-0.0347826086956522,166,-0.809756097560976,
4277558,3496.09375,5120,-3.13917841814837,-12672,-7.76946658491723,-10432,6.39607602697731,522,138.658536585366,-2274,-31.8292682926829,-1444,88.0487804878049,-56,0.243478260869565,-14,-0.0608695652173913,167,-0.814634146341463,
4278198,3515.625,5344,-3.27651747394237,-11536,-7.07296137339056,-10640,6.52360515021459,565,133.841463414634,-2195,-34.4512195121951,-1404,85.609756097561,-58,0.252173913043478,-19,-0.0826086956521739,169,-0.824390243902439,
4278838,3535.15625,5056,-3.09993868792152,-10688,-6.55303494788473,-10384,6.36664622930717,635,130.792682926829,-2145,-38.719512195122,-1356,82.6829268292683,-55,0.239130434782609,-24,-0.104347826086957,170,-0.829268292682927,
4279478,3554.6875,4576,-2.80564071122011,-9600,-5.8859595340282,-9904,6.07234825260576,635,125.548780487805,-2059,-38.719512195122,-1337,81.5243902439024,-53,0.230434782608696,-26,-0.11304347826087,169,-0.824390243902439,
4280118,3574.21875,4320,-2.64868179031269,-8288,-5.08154506437768,-9936,6.09196811771919,665,117.439024390244,-1926,-40.5487804878049,-1280,78.0487804878049,-51,0.221739130434783,-33,-0.143478260869565,169,-0.824390243902439,
4280758,3593.75,3904,-2.39362354383814,-7152,-4.38503985285101,-10016,6.14101778050276,706,115.914634146341,-1901,-43.0487804878049,-1207,73.5975609756098,-51,0.221739130434783,-29,-0.126086956521739,167,-0.814634146341463,
4281398,3613.28125,3408,-2.08951563458001,-6096,-3.73758430410791,-9936,6.09196811771919,650,109.024390243902,-1788,-39.6341463414634,-1147,69.9390243902439,-48,0.208695652173913,-34,-0.147826086956522,170,-0.829268292682927,
4282038,3632.8125,3424,-2.09932556713673,-4832,-2.96259963212753,-10128,6.20968730839975,667,100.975609756098,-1656,-40.6707317073171,-1081,65.9146341463415,-47,0.204347826086957,-40,-0.173913043478261,168,-0.819512195121951,
4282678,3652.34375,3072,-1.88350705088903,-3872,-2.37400367872471,-10144,6.21949724095647,715,95.8536585365854,-1572,-43.5975609756098,-997,60.7926829268293,-46,0.2,-35,-0.152173913043478,167,-0.814634146341463,
4283318,3671.875,2320,-1.42244022072348,-2912,-1.78540772532189,-10064,6.1704475781729,668,89.4512195121951,-1467,-40.7317073170732,-921,56.1585365853659,-43,0.18695652173913,-42,-0.182608695652174,169,-0.824390243902439,
4283958,3691.40625,2000,-1.22624156958921,-1856,-1.13795217657879,-10096,6.19006744328633,541,81.8292682926829,-1342,-32.9878048780488,-832,50.7317073170732,-42,0.182608695652174,-45,-0.195652173913043,166,-0.809756097560976,
4284598,3710.9375,1968,-1.20662170447578,-1456,-0.892703862660944,-10016,6.14101778050276,441,74.390243902439,-1220,-26.890243902439,-748,45.609756097561,-39,0.169565217391304,-51,-0.221739130434783,167,-0.814634146341463,
4285238,3730.46875,1888,-1.15757204169221,-624,-0.382587369711833,-10128,6.20968730839975,388,67.6219512195122,-1109,-23.6585365853659,-646,39.390243902439,-37,0.160869565217391,-51,-0.221739130434783,165,-0.804878048780488,
4285878,3750,1808,-1.10852237890864,64,0.0392397302268547,-9984,6.12139791538933,330,61.0975609756098,-1002,-20.1219512195122,-561,34.2073170731707,-40,0.173913043478261,-49,-0.21304347826087,164,-0.8,
4286518,3769.53125,1904,-1.16738197424893,736,0.451256897608829,-10048,6.16063764561619,283,53.7804878048781,-882,-17.2560975609756,-479,29.2073170731707,-35,0.152173913043478,-53,-0.230434782608696,164,-0.8,
4287158,3789.0625,1952,-1.19681177191907,1232,0.755364806866953,-10000,6.13120784794604,280,47.0121951219512,-771,-17.0731707317073,-399,24.3292682926829,-35,0.152173913043478,-51,-0.221739130434783,163,-0.795121951219512,
4287798,3808.59375,1728,-1.05947271612508,1888,1.15757204169221,-9904,6.07234825260576,248,38.9024390243902,-638,-15.1219512195122,-321,19.5731707317073,-35,0.152173913043478,-57,-0.247826086956522,165,-0.804878048780488,
4288438,3828.125,1600,-0.980993255671367,2416,1.48129981606376,-9808,6.01348865726548,148,30,-492,-9.02439024390244,-273,16.6463414634146,-34,0.147826086956522,-51,-0.221739130434783,163,-0.795121951219512,
4289078,3847.65625,1984,-1.2164316370325,2672,1.63825873697118,-9968,6.11158798283262,155,21.890243902439,-359,-9.45121951219512,-215,13.109756097561,-36,0.156521739130435,-53,-0.230434782608696,161,-0.785365853658537,
4289718,3867.1875,2144,-1.31453096259963,2912,1.78540772532189,-10304,6.3175965665236,185,15.4878048780488,-254,-11.280487804878,-184,11.219512195122,-33,0.143478260869565,-58,-0.252173913043478,161,-0.785365853658537,
4290358,3886.71875,2288,-1.40282035561006,3232,1.98160637645616,-10768,6.6020846106683,172,7.5,-123,-10.4878048780488,-153,9.32926829268293,-32,0.139130434782609,-59,-0.256521739130435,160,-0.780487804878049,
4290998,3906.25,2736,-1.67749846719804,3232,1.98160637645616,-11104,6.80809319435929,265,1.03658536585366,-17,-16.1585365853659,-107,6.52439024390244,-30,0.130434782608696,-60,-0.260869565217391,162,-0.790243902439024,
4291638,3925.78125,2848,-1.74616799509503,3136,1.92274678111588,-11616,7.12201103617413,393,-4.14634146341463,68,-23.9634146341463,-73,4.45121951219512,-29,0.126086956521739,-60,-0.260869565217391,161,-0.785365853658537,
4292278,3945.3125,2480,-1.52053954629062,2976,1.82464745554874,-12400,7.6026977314531,405,-6.40243902439024,105,-24.6951219512195,-72,4.39024390243902,-31,0.134782608695652,-54,-0.234782608695652,161,-0.785365853658537,
4292918,3964.84375,2192,-1.34396076026977,2960,1.81483752299203,-12832,7.86756591048437,277,-9.26829268292683,152,-16.890243902439,-70,4.26829268292683,-30,0.130434782608696,-53,-0.230434782608696,160,-0.780487804878049,
4293558,3984.375,2352,-1.44206008583691,2880,1.76578786020846,-13264,8.13243408951563,265,-12.5609756097561,206,-16.1585365853659,-42,2.5609756097561,-29,0.126086956521739,-54,-0.234782608695652,159,-0.775609756097561,
4294198,4003.90625,2704,-1.65787860208461,2720,1.66768853464132,-13984,8.57388105456775,392,-12.9878048780488,213,-23.9024390243902,-16,0.975609756097561,-28,0.121739130434783,-50,-0.217391304347826,161,-0.785365853658537,
4294838,4023.4375,2288,-1.40282035561006,2672,1.63825873697118,-14304,8.77007970570202,426,-14.5121951219512,238,-25.9756097560976,-27,1.64634146341463,-27,0.117391304347826,-54,-0.234782608695652,159,-0.775609756097561,
4295478,4042.96875,2128,-1.30472103004292,2512,1.54015941140405,-15168,9.29981606376456,329,-14.390243902439,236,-20.0609756097561,-45,2.74390243902439,-24,0.104347826086957,-57,-0.247826086956522,161,-0.785365853658537,
4296118,4062.5,2304,-1.41263028816677,2544,1.55977927651747,-15824,9.70202329858982,325,-14.6341463414634,240,-19.8170731707317,-72,4.39024390243902,-24,0.104347826086957,-57,-0.247826086956522,160,-0.780487804878049,
4296758,4082.03125,2272,-1.39301042305334,2384,1.46167995095034,-16400,10.0551808706315,403,-13.0487804878049,214,-24.5731707317073,-85,5.18292682926829,-25,0.108695652173913,-52,-0.226086956521739,158,-0.770731707317073,
4297398,4101.5625,1504,-0.922133660331085,2288,1.40282035561006,-16688,10.2317596566524,378,-10.609756097561,174,-23.0487804878049,-95,5.79268292682927,-23,0.1,-52,-0.226086956521739,159,-0.775609756097561,
4298038,4121.09375,1024,-0.627835683629675,2160,1.32434089515635,-16880,10.3494788473329,252,-9.45121951219512,155,-15.3658536585366,-102,6.21951219512195,-23,0.1,-52,-0.226086956521739,160,-0.780487804878049,
4298678,4140.625,976,-0.598405885959534,2016,1.23605150214592,-17136,10.5064377682403,131,-7.5609756097561,124,-7.98780487804878,-84,5.1219512195122,-24,0.104347826086957,-52,-0.226086956521739,160,-0.780487804878049,
4299318,4160.15625,1200,-0.735744941753525,1888,1.15757204169221,-17344,10.6339668914776,70,-5.91463414634146,97,-4.26829268292683,-70,4.26829268292683,-22,0.0956521739130435,-51,-0.221739130434783,157,-0.765853658536585,
4299958,4179.6875,1536,-0.941753525444513,1856,1.13795217657879,-17568,10.7713059472716,68,-4.51219512195122,74,-4.14634146341463,-62,3.78048780487805,-24,0.104347826086957,-52,-0.226086956521739,157,-0.765853658536585,
4300598,4199.21875,1792,-1.09871244635193,1728,1.05947271612508,-17504,10.7320662170448,114,-2.68292682926829,44,-6.95121951219512,-40,2.4390243902439,-23,0.1,-52,-0.226086956521739,158,-0.770731707317073,
4301238,4218.75,1600,-0.980993255671367,1648,1.01042305334151,-17488,10.722256284488,100,-0.487804878048781,8,-6.09756097560976,-34,2.07317073170732,-24,0.104347826086957,-51,-0.221739130434783,157,-0.765853658536585,
4301878,4238.28125,1344,-0.824034334763949,1648,1.01042305334151,-17136,10.5064377682403,20,1.58536585365854,-26,-1.21951219512195,-29,1.76829268292683,-21,0.091304347826087,-53,-0.230434782608696,157,-0.765853658536585,
4302518,4257.8125,1552,-0.951563458001226,1568,0.96137339055794,-16784,10.2906192519926,-23,2.92682926829268,-48,1.40243902439024,-39,2.37804878048781,-24,0.104347826086957,-52,-0.226086956521739,157,-0.765853658536585,
4303158,4277.34375,1696,-1.03985285101165,1568,0.96137339055794,-16384,10.0453709380748,5,4.32926829268293,-71,-0.304878048780488,-33,2.01219512195122,-23,0.1,-47,-0.204347826086957,158,-0.770731707317073,
4303798,4296.875,1648,-1.01042305334151,1536,0.941753525444513,-16064,9.84917228694053,-21,4.9390243902439,-81,1.28048780487805,-46,2.80487804878049,-22,0.0956521739130435,-48,-0.208695652173913,159,-0.775609756097561,
4304438,4316.40625,1824,-1.11833231146536,1680,1.03004291845494,-15744,9.65297363580625,-26,4.63414634146342,-76,1.58536585365854,-69,4.20731707317073,-22,0.0956521739130435,-53,-0.230434782608696,158,-0.770731707317073,
4305078,4335.9375,2192,-1.34396076026977,1792,1.09871244635193,-15712,9.63335377069283,113,4.02439024390244,-66,-6.89024390243902,-84,5.1219512195122,-23,0.1,-45,-0.195652173913043,156,-0.760975609756098,
4305718,4355.46875,1760,-1.0790925812385,1728,1.05947271612508,-15664,9.60392397302268,194,3.59756097560976,-59,-11.8292682926829,-83,5.0609756097561,-23,0.1,-51,-0.221739130434783,157,-0.765853658536585,
4306358,4375,1360,-0.833844267320662,1808,1.10852237890864,-15696,9.62354383813611,154,3.04878048780488,-50,-9.39024390243902,-76,4.63414634146342,-22,0.0956521739130435,-50,-0.217391304347826,158,-0.770731707317073,
4306998,4394.53125,1264,-0.77498467198038,1936,1.18700183936235,-15488,9.49601471489883,84,2.4390243902439,-40,-5.1219512195122,-54,3.29268292682927,-23,0.1,-46,-0.2,156,-0.760975609756098,
4307638,4414.0625,1344,-0.824034334763949,1840,1.12814224402207,-15408,9.44696505211527,96,1.28048780487805,-21,-5.85365853658537,-23,1.40243902439024,-20,0.0869565217391304,-52,-0.226086956521739,158,-0.770731707317073,
4308278,4433.59375,1216,-0.745554874310239,1792,1.09871244635193,-15504,9.50582464745555,101,1.09756097560976,-18,-6.15853658536585,7,-0.426829268292683,-21,0.091304347826087,-49,-0.21304347826087,155,-0.75609756097561,
4308918,4453.125,1216,-0.745554874310239,1840,1.12814224402207,-15568,9.5450643776824,37,0.487804878048781,-8,-2.25609756097561,3,-0.182926829268293,-21,0.091304347826087,-49,-0.21304347826087,156,-0.760975609756098,
4309558,4472.65625,1408,-0.863274064990803,1856,1.13795217657879,-15664,9.60392397302268,45,0.670731707317073,-11,-2.74390243902439,14,-0.853658536585366,-23,0.1,-49,-0.21304347826087,156,-0.760975609756098,
4310198,4492.1875,1440,-0.88289393010423,1856,1.13795217657879,-15808,9.69221336603311,85,0.365853658536585,-6,-5.18292682926829,29,-1.76829268292683,-22,0.0956521739130435,-49,-0.21304347826087,157,-0.765853658536585,
4310838,4511.71875,1424,-0.873083997547517,1792,1.09871244635193,-16016,9.81974248927039,67,0.0609756097560976,-1,-4.08536585365854,23,-1.40243902439024,-20,0.0869565217391304,-50,-0.217391304347826,156,-0.760975609756098,
4311478,4531.25,1600,-0.980993255671367,1696,1.03985285101165,-16160,9.90803188228081,93,0.670731707317073,-11,-5.67073170731707,10,-0.609756097560976,-19,0.0826086956521739,-51,-0.221739130434783,157,-0.765853658536585,
4312118,4550.78125,1488,-0.912323727774372,1824,1.11833231146536,-16160,9.90803188228081,126,0.853658536585366,-14,-7.68292682926829,13,-0.792682926829268,-21,0.091304347826087,-50,-0.217391304347826,154,-0.751219512195122,
4312758,4570.3125,1200,-0.735744941753525,1808,1.10852237890864,-16304,9.99632127529123,102,1.28048780487805,-21,-6.21951219512195,11,-0.670731707317073,-19,0.0826086956521739,-48,-0.208695652173913,157,-0.765853658536585,
4313398,4589.84375,1264,-0.77498467198038,1840,1.12814224402207,-16288,9.98651134273452,88,1.52439024390244,-25,-5.36585365853659,14,-0.853658536585366,-19,0.0826086956521739,-52,-0.226086956521739,155,-0.75609756097561,
4314038,4609.375,1120,-0.686695278969957,1856,1.13795217657879,-16320,10.0061312078479,116,1.89024390243902,-31,-7.07317073170732,25,-1.52439024390244,-19,0.0826086956521739,-52,-0.226086956521739,156,-0.760975609756098,
4314678,4628.90625,896,-0.549356223175966,1968,1.20662170447578,-16208,9.93746167995095,95,2.31707317073171,-38,-5.79268292682927,30,-1.82926829268293,-21,0.091304347826087,-47,-0.204347826086957,156,-0.760975609756098,
4315318,4648.4375,1104,-0.676885346413243,1920,1.17719190680564,-16320,10.0061312078479,48,2.6219512195122,-43,-2.92682926829268,27,-1.64634146341463,-19,0.0826086956521739,-48,-0.208695652173913,156,-0.760975609756098,
4315958,4667.96875,1232,-0.755364806866953,1936,1.18700183936235,-16256,9.96689147762109,71,3.04878048780488,-50,-4.32926829268293,27,-1.64634146341463,-18,0.0782608695652174,-49,-0.21304347826087,155,-0.75609756097561,
4316598,4687.5,1088,-0.66707541385653,2000,1.22624156958921,-16112,9.87860208461067,51,3.35365853658537,-55,-3.10975609756098,26,-1.58536585365854,-20,0.0869565217391304,-51,-0.221739130434783,156,-0.760975609756098,
4317238,4707.03125,1152,-0.706315144083384,2080,1.27529123237278,-15984,9.80012262415696,-4,3.47560975609756,-57,0.24390243902439,28,-1.70731707317073,-19,0.0826086956521739,-47,-0.204347826086957,155,-0.75609756097561,
4317878,4726.5625,1328,-0.814224402207235,2080,1.27529123237278,-15840,9.71183323114654,7,2.80487804878049,-46,-0.426829268292683,34,-2.07317073170732,-21,0.091304347826087,-47,-0.204347826086957,153,-0.746341463414634,
4318518,4746.09375,1472,-0.902513795217658,2048,1.25567136725935,-15792,9.6824034334764,16,2.25609756097561,-37,-0.975609756097561,34,-2.07317073170732,-18,0.0782608695652174,-51,-0.221739130434783,155,-0.75609756097561,
4319158,4765.625,1408,-0.863274064990803,2032,1.24586143470264,-15744,9.65297363580625,12,2.5,-41,-0.731707317073171,26,-1.58536585365854,-18,0.0782608695652174,-51,-0.221739130434783,155,-0.75609756097561,
4319798,4785.15625,1520,-0.931943592887799,2080,1.27529123237278,-15776,9.67259350091968,-11,1.89024390243902,-31,0.670731707317073,15,-0.914634146341463,-20,0.0869565217391304,-49,-0.21304347826087,154,-0.751219512195122,
4320438,4804.6875,1600,-0.980993255671367,2000,1.22624156958921,-15712,9.63335377069283,-3,1.28048780487805,-21,0.182926829268293,12,-0.731707317073171,-18,0.0782608695652174,-50,-0.217391304347826,156,-0.760975609756098,
4321078,4824.21875,1648,-1.01042305334151,1888,1.15757204169221,-15616,9.57449417535254,25,1.03658536585366,-17,-1.52439024390244,1,-0.0609756097560976,-21,0.091304347826087,-48,-0.208695652173913,155,-0.75609756097561,
4321718,4843.75,1584,-0.971183323114654,1920,1.17719190680564,-15792,9.6824034334764,43,0.853658536585366,-14,-2.6219512195122,-16,0.975609756097561,-20,0.0869565217391304,-51,-0.221739130434783,154,-0.751219512195122,
4322358,4863.28125,1520,-0.931943592887799,1840,1.12814224402207,-15968,9.79031269160024,46,1.09756097560976,-18,-2.80487804878049,-27,1.64634146341463,-20,0.0869565217391304,-46,-0.2,154,-0.751219512195122,
4322998,4882.8125,1408,-0.863274064990803,1824,1.11833231146536,-16000,9.80993255671367,44,1.09756097560976,-18,-2.68292682926829,-37,2.25609756097561,-19,0.0826086956521739,-51,-0.221739130434783,155,-0.75609756097561,
4323638,4902.34375,1200,-0.735744941753525,1856,1.13795217657879,-16016,9.81974248927039,19,1.64634146341463,-27,-1.15853658536585,-37,2.25609756097561,-19,0.0826086956521739,-46,-0.2,156,-0.760975609756098,
4324278,4921.875,1264,-0.77498467198038,1760,1.0790925812385,-16032,9.8295524218271,0,1.40243902439024,-23,0,-44,2.68292682926829,-19,0.0826086956521739,-47,-0.204347826086957,155,-0.75609756097561,
4324918,4941.40625,1184,-0.725935009196812,1728,1.05947271612508,-16144,9.89822194972409,58,1.46341463414634,-24,-3.53658536585366,-45,2.74390243902439,-18,0.0782608695652174,-52,-0.226086956521739,156,-0.760975609756098,
4325558,4960.9375,896,-0.549356223175966,1712,1.04966278356836,-16144,9.89822194972409,74,1.64634146341463,-27,-4.51219512195122,-42,2.5609756097561,-18,0.0782608695652174,-50,-0.217391304347826,155,-0.75609756097561,
4326198,4980.46875,896,-0.549356223175966,1536,0.941753525444513,-16048,9.83936235438381,42,1.46341463414634,-24,-2.5609756097561,-36,2.19512195121951,-18,0.0782608695652174,-48,-0.208695652173913,155,-0.75609756097561,
4326838,5000,944,-0.578786020846107,1616,0.990803188228081,-15856,9.72164316370325,26,1.89024390243902,-31,-1.58536585365854,-30,1.82926829268293,-18,0.0782608695652174,-49,-0.21304347826087,154,-0.751219512195122,
4327478,5019.53125,976,-0.598405885959534,1696,1.03985285101165,-15824,9.70202329858982,37,1.34146341463415,-22,-2.25609756097561,-23,1.40243902439024,-17,0.0739130434782609,-51,-0.221739130434783,157,-0.765853658536585,
4328118,5039.0625,1152,-0.706315144083384,1600,0.980993255671367,-15920,9.7608828939301,94,0.670731707317073,-11,-5.73170731707317,-10,0.609756097560976,-18,0.0782608695652174,-50,-0.217391304347826,154,-0.751219512195122,
4328758,5058.59375,880,-0.539546290619252,1584,0.971183323114654,-15904,9.75107296137339,176,0.670731707317073,-11,-10.7317073170732,6,-0.365853658536585,-20,0.0869565217391304,-46,-0.2,154,-0.751219512195122,
4329398,5078.125,464,-0.284488044144696,1744,1.06928264868179,-16048,9.83936235438381,165,0.487804878048781,-8,-10.0609756097561,19,-1.15853658536585,-16,0.0695652173913043,-49,-0.21304347826087,155,-0.75609756097561,
4330038,5097.65625,496,-0.304107909258124,1776,1.08890251379522,-16112,9.87860208461067,75,0.975609756097561,-16,-4.57317073170732,22,-1.34146341463415,-19,0.0826086956521739,-48,-0.208695652173913,155,-0.75609756097561,
4330678,5117.1875,896,-0.549356223175966,1728,1.05947271612508,-16048,9.83936235438381,16,0.975609756097561,-16,-0.975609756097561,17,-1.03658536585366,-17,0.0739130434782609,-48,-0.208695652173913,154,-0.751219512195122,
4331318,5136.71875,1072,-0.657265481299816,1680,1.03004291845494,-16064,9.84917228694053,54,1.28048780487805,-21,-3.29268292682927,31,-1.89024390243902,-18,0.0782608695652174,-45,-0.195652173913043,154,-0.751219512195122,
4331958,5156.25,928,-0.568976088289393,1728,1.05947271612508,-16032,9.8295524218271,62,1.64634146341463,-27,-3.78048780487805,34,-2.07317073170732,-21,0.091304347826087,-46,-0.2,152,-0.741463414634146,
4332598,5175.78125,1024,-0.627835683629675,1680,1.03004291845494,-16112,9.87860208461067,13,1.76829268292683,-29,-0.792682926829268,26,-1.58536585365854,-17,0.0739130434782609,-49,-0.21304347826087,155,-0.75609756097561,
4333238,5195.3125,1184,-0.725935009196812,1632,1.00061312078479,-16144,9.89822194972409,17,2.07317073170732,-34,-1.03658536585366,14,-0.853658536585366,-16,0.0695652173913043,-51,-0.221739130434783,154,-0.751219512195122,
4333878,5214.84375,1104,-0.676885346413243,1664,1.02023298589822,-16176,9.91784181483752,38,2.07317073170732,-34,-2.31707317073171,0,0,-16,0.0695652173913043,-51,-0.221739130434783,155,-0.75609756097561,
4334518,5234.375,1072,-0.657265481299816,1712,1.04966278356836,-16144,9.89822194972409,38,2.13414634146341,-35,-2.31707317073171,-12,0.731707317073171,-18,0.0782608695652174,-47,-0.204347826086957,154,-0.751219512195122,
4335158,5253.90625,1216,-0.745554874310239,1696,1.03985285101165,-16112,9.87860208461067,51,2.37804878048781,-39,-3.10975609756098,-14,0.853658536585366,-17,0.0739130434782609,-47,-0.204347826086957,154,-0.751219512195122,
4335798,5273.4375,960,-0.58859595340282,1600,0.980993255671367,-16176,9.91784181483752,79,2.6219512195122,-43,-4.81707317073171,-5,0.304878048780488,-18,0.0782608695652174,-46,-0.2,154,-0.751219512195122,
4336438,5292.96875,720,-0.441446965052115,1648,1.01042305334151,-16096,9.86879215205395,61,2.98780487804878,-49,-3.71951219512195,-7,0.426829268292683,-16,0.0695652173913043,-51,-0.221739130434783,154,-0.751219512195122,
4337078,5312.5,800,-0.490496627835684,1680,1.03004291845494,-16032,9.8295524218271,9,3.29268292682927,-54,-0.548780487804878,-13,0.792682926829268,-17,0.0739130434782609,-46,-0.2,153,-0.746341463414634,
4337718,5332.03125,880,-0.539546290619252,1712,1.04966278356836,-16080,9.85898221949724,6,3.10975609756098,-51,-0.365853658536585,-20,1.21951219512195,-17,0.0739130434782609,-48,-0.208695652173913,154,-0.751219512195122,
4338358,5351.5625,848,-0.519926425505825,1680,1.03004291845494,-16016,9.81974248927039,22,3.41463414634146,-56,-1.34146341463415,-22,1.34146341463415,-16,0.0695652173913043,-45,-0.195652173913043,153,-0.746341463414634,
4338998,5371.09375,768,-0.470876762722256,1680,1.03004291845494,-15952,9.78050275904353,32,3.41463414634146,-56,-1.95121951219512,-18,1.09756097560976,-16,0.0695652173913043,-49,-0.21304347826087,154,-0.751219512195122,
4339638,5390.625,768,-0.470876762722256,1680,1.03004291845494,-15904,9.75107296137339,29,3.23170731707317,-53,-1.76829268292683,-12,0.731707317073171,-15,0.0652173913043478,-47,-0.204347826086957,154,-0.751219512195122,
4340278,5410.15625,816,-0.500306560392397,1696,1.03985285101165,-15920,9.7608828939301,22,2.92682926829268,-48,-1.34146341463415,-15,0.914634146341463,-15,0.0652173913043478,-48,-0.208695652173913,153,-0.746341463414634,
4340918,5429.6875,704,-0.431637032495402,1776,1.08890251379522,-15840,9.71183323114654,34,3.35365853658537,-55,-2.07317073170732,-19,1.15853658536585,-18,0.0782608695652174,-46,-0.2,152,-0.741463414634146,
4341558,5449.21875,704,-0.431637032495402,1776,1.08890251379522,-15792,9.6824034334764,15,3.17073170731707,-52,-0.914634146341463,-24,1.46341463414634,-17,0.0739130434782609,-46,-0.2,152,-0.741463414634146,
4342198,5468.75,672,-0.412017167381974,1712,1.04966278356836,-15712,9.63335377069283,11,2.98780487804878,-49,-0.670731707317073,-26,1.58536585365854,-15,0.0652173913043478,-49,-0.21304347826087,153,-0.746341463414634,
4342838,5488.28125,624,-0.382587369711833,1696,1.03985285101165,-15760,9.66278356836297,10,2.6219512195122,-43,-0.609756097560976,-18,1.09756097560976,-15,0.0652173913043478,-49,-0.21304347826087,153,-0.746341463414634,
4343478,5507.8125,720,-0.441446965052115,1664,1.02023298589822,-15760,9.66278356836297,-7,1.82926829268293,-30,0.426829268292683,-15,0.914634146341463,-16,0.0695652173913043,-50,-0.217391304347826,154,-0.751219512195122,
4344118,5527.34375,752,-0.461066830165543,1568,0.96137339055794,-15904,9.75107296137339,11,1.64634146341463,-27,-0.670731707317073,-11,0.670731707317073,-16,0.0695652173913043,-47,-0.204347826086957,154,-0.751219512195122,
4344758,5546.875,704,-0.431637032495402,1536,0.941753525444513,-16032,9.8295524218271,28,1.64634146341463,-27,-1.70731707317073,-3,0.182926829268293,-15,0.0652173913043478,-50,-0.217391304347826,154,-0.751219512195122,
4345398,5566.40625,736,-0.451256897608829,1456,0.892703862660944,-15936,9.77069282648682,0,1.76829268292683,-29,0,-7,0.426829268292683,-16,0.0695652173913043,-49,-0.21304347826087,153,-0.746341463414634,
4346038,5585.9375,784,-0.48068669527897,1424,0.873083997547517,-16032,9.8295524218271,-10,2.19512195121951,-36,0.609756097560976,-12,0.731707317073171,-17,0.0739130434782609,-44,-0.191304347826087,153,-0.746341463414634,
4346678,5605.46875,800,-0.490496627835684,1488,0.912323727774372,-16032,9.8295524218271,-10,2.19512195121951,-36,0.609756097560976,-22,1.34146341463415,-17,0.0739130434782609,-43,-0.18695652173913,152,-0.741463414634146,
4347318,5625,784,-0.48068669527897,1472,0.902513795217658,-16000,9.80993255671367,-6,2.4390243902439,-40,0.365853658536585,-29,1.76829268292683,-19,0.0826086956521739,-46,-0.2,154,-0.751219512195122,
4347958,5644.53125,784,-0.48068669527897,1568,0.96137339055794,-16064,9.84917228694053,3,2.68292682926829,-44,-0.182926829268293,-29,1.76829268292683,-15,0.0652173913043478,-51,-0.221739130434783,156,-0.760975609756098,
4348598,5664.0625,672,-0.412017167381974,1696,1.03985285101165,-16208,9.93746167995095,21,2.68292682926829,-44,-1.28048780487805,-30,1.82926829268293,-16,0.0695652173913043,-45,-0.195652173913043,153,-0.746341463414634,
4349238,5683.59375,608,-0.37277743715512,1680,1.03004291845494,-16192,9.92765174739424,11,3.23170731707317,-53,-0.670731707317073,-30,1.82926829268293,-15,0.0652173913043478,-47,-0.204347826086957,153,-0.746341463414634,
4349878,5703.125,624,-0.382587369711833,1632,1.00061312078479,-16144,9.89822194972409,4,3.41463414634146,-56,-0.24390243902439,-18,1.09756097560976,-15,0.0652173913043478,-49,-0.21304347826087,154,-0.751219512195122,
4350518,5722.65625,592,-0.362967504598406,1600,0.980993255671367,-16144,9.89822194972409,-2,3.65853658536585,-60,0.121951219512195,-10,0.609756097560976,-17,0.0739130434782609,-48,-0.208695652173913,153,-0.746341463414634,
4351158,5742.1875,720,-0.441446965052115,1600,0.980993255671367,-16080,9.85898221949724,-10,3.96341463414634,-65,0.609756097560976,-8,0.487804878048781,-15,0.0652173913043478,-48,-0.208695652173913,153,-0.746341463414634,
4351798,5761.71875,800,-0.490496627835684,1552,0.951563458001226,-16064,9.84917228694053,-11,3.84146341463415,-63,0.670731707317073,-14,0.853658536585366,-15,0.0652173913043478,-48,-0.208695652173913,154,-0.751219512195122,
4352438,5781.25,736,-0.451256897608829,1600,0.980993255671367,-16032,9.8295524218271,6,3.71951219512195,-61,-0.365853658536585,-12,0.731707317073171,-16,0.0695652173913043,-51,-0.221739130434783,155,-0.75609756097561,
4353078,5800.78125,784,-0.48068669527897,1632,1.00061312078479,-16000,9.80993255671367,22,3.65853658536585,-60,-1.34146341463415,-14,0.853658536585366,-17,0.0739130434782609,-51,-0.221739130434783,155,-0.75609756097561,
4353718,5820.3125,720,-0.441446965052115,1600,0.980993255671367,-15968,9.79031269160024,32,3.78048780487805,-62,-1.95121951219512,-10,0.609756097560976,-15,0.0652173913043478,-51,-0.221739130434783,154,-0.751219512195122,
4354358,5839.84375,720,-0.441446965052115,1648,1.01042305334151,-16032,9.8295524218271,39,3.59756097560976,-59,-2.37804878048781,-1,0.0609756097560976,-16,0.0695652173913043,-50,-0.217391304347826,154,-0.751219512195122,
4354998,5859.375,736,-0.451256897608829,1648,1.01042305334151,-15984,9.80012262415696,25,3.47560975609756,-57,-1.52439024390244,-2,0.121951219512195,-16,0.0695652173913043,-48,-0.208695652173913,153,-0.746341463414634,
4355638,5878.90625,752,-0.461066830165543,1632,1.00061312078479,-16016,9.81974248927039,10,3.47560975609756,-57,-0.609756097560976,-8,0.487804878048781,-16,0.0695652173913043,-47,-0.204347826086957,153,-0.746341463414634,
4356278,5898.4375,784,-0.48068669527897,1680,1.03004291845494,-15984,9.80012262415696,12,3.53658536585366,-58,-0.731707317073171,-15,0.914634146341463,-15,0.0652173913043478,-51,-0.221739130434783,153,-0.746341463414634,
4356918,5917.96875,736,-0.451256897608829,1600,0.980993255671367,-15920,9.7608828939301,20,3.35365853658537,-55,-1.21951219512195,-22,1.34146341463415,-15,0.0652173913043478,-51,-0.221739130434783,153,-0.746341463414634,
4357558,5937.5,704,-0.431637032495402,1648,1.01042305334151,-15904,9.75107296137339,34,2.98780487804878,-49,-2.07317073170732,-22,1.34146341463415,-17,0.0739130434782609,-47,-0.204347826086957,152,-0.741463414634146,
4358198,5957.03125,704,-0.431637032495402,1632,1.00061312078479,-15920,9.7608828939301,45,2.74390243902439,-45,-2.74390243902439,-21,1.28048780487805,-16,0.0695652173913043,-47,-0.204347826086957,153,-0.746341463414634,
4358838,5976.5625,672,-0.412017167381974,1696,1.03985285101165,-15904,9.75107296137339,42,2.80487804878049,-46,-2.5609756097561,-16,0.975609756097561,-14,0.0608695652173913,-50,-0.217391304347826,155,-0.75609756097561,
4359478,5996.09375,544,-0.333537706928265,1600,0.980993255671367,-15776,9.67259350091968,52,2.6219512195122,-43,-3.17073170731707,-19,1.15853658536585,-15,0.0652173913043478,-51,-0.221739130434783,154,-0.751219512195122,
4360118,6015.625,592,-0.362967504598406,1616,0.990803188228081,-15808,9.69221336603311,34,2.4390243902439,-40,-2.07317073170732,-17,1.03658536585366,-15,0.0652173913043478,-48,-0.208695652173913,152,-0.741463414634146,
4360758,6035.15625,640,-0.392397302268547,1616,0.990803188228081,-15840,9.71183323114654,19,1.95121951219512,-32,-1.15853658536585,-23,1.40243902439024,-15,0.0652173913043478,-46,-0.2,152,-0.741463414634146,
4361398,6054.6875,528,-0.323727774371551,1600,0.980993255671367,-15792,9.6824034334764,26,1.76829268292683,-29,-1.58536585365854,-24,1.46341463414634,-14,0.0608695652173913,-49,-0.21304347826087,153,-0.746341463414634,
4362038,6074.21875,416,-0.255058246474555,1632,1.00061312078479,-15856,9.72164316370325,26,1.58536585365854,-26,-1.58536585365854,-20,1.21951219512195,-15,0.0652173913043478,-49,-0.21304347826087,155,-0.75609756097561,
4362678,6093.75,384,-0.235438381361128,1584,0.971183323114654,-15840,9.71183323114654,17,1.64634146341463,-27,-1.03658536585366,-15,0.914634146341463,-16,0.0695652173913043,-47,-0.204347826086957,152,-0.741463414634146,
4363318,6113.28125,496,-0.304107909258124,1456,0.892703862660944,-15936,9.77069282648682,30,1.15853658536585,-19,-1.82926829268293,-10,0.609756097560976,-14,0.0608695652173913,-48,-0.208695652173913,153,-0.746341463414634,
4363958,6132.8125,336,-0.206008583690987,1488,0.912323727774372,-15936,9.77069282648682,42,1.15853658536585,-19,-2.5609756097561,-6,0.365853658536585,-15,0.0652173913043478,-49,-0.21304347826087,153,-0.746341463414634,
4364598,6152.34375,272,-0.166768853464132,1520,0.931943592887799,-16032,9.8295524218271,5,1.28048780487805,-21,-0.304878048780488,-8,0.487804878048781,-13,0.0565217391304348,-50,-0.217391304347826,153,-0.746341463414634,
4365238,6171.875,384,-0.235438381361128,1504,0.922133660331085,-16016,9.81974248927039,-18,1.40243902439024,-23,1.09756097560976,-10,0.609756097560976,-17,0.0739130434782609,-44,-0.191304347826087,151,-0.736585365853659,
4365878,6191.40625,448,-0.274678111587983,1536,0.941753525444513,-16016,9.81974248927039,-7,1.34146341463415,-22,0.426829268292683,-8,0.487804878048781,-16,0.0695652173913043,-47,-0.204347826086957,151,-0.736585365853659,
4366518,6210.9375,464,-0.284488044144696,1488,0.912323727774372,-16000,9.80993255671367,6,1.40243902439024,-23,-0.365853658536585,-4,0.24390243902439,-16,0.0695652173913043,-46,-0.2,152,-0.741463414634146,
4367158,6230.46875,512,-0.313917841814838,1456,0.892703862660944,-16112,9.87860208461067,9,1.70731707317073,-28,-0.548780487804878,-1,0.0609756097560976,-16,0.0695652173913043,-44,-0.191304347826087,152,-0.741463414634146,
4367798,6250,464,-0.284488044144696,1536,0.941753525444513,-16080,9.85898221949724,16,1.52439024390244,-25,-0.975609756097561,3,-0.182926829268293,-17,0.0739130434782609,-49,-0.21304347826087,152,-0.741463414634146,
4368438,6269.53125,384,-0.235438381361128,1488,0.912323727774372,-16016,9.81974248927039,4,1.70731707317073,-28,-0.24390243902439,3,-0.182926829268293,-15,0.0652173913043478,-46,-0.2,152,-0.741463414634146,
4369078,6289.0625,400,-0.245248313917842,1472,0.902513795217658,-16112,9.87860208461067,4,1.89024390243902,-31,-0.24390243902439,2,-0.121951219512195,-16,0.0695652173913043,-44,-0.191304347826087,153,-0.746341463414634,
4369718,6308.59375,480,-0.29429797670141,1472,0.902513795217658,-16080,9.85898221949724,-13,2.5,-41,0.792682926829268,4,-0.24390243902439,-14,0.0608695652173913,-49,-0.21304347826087,154,-0.751219512195122,
4370358,6328.125,464,-0.284488044144696,1552,0.951563458001226,-16048,9.83936235438381,-19,2.31707317073171,-38,1.15853658536585,5,-0.304878048780488,-16,0.0695652173913043,-42,-0.182608695652174,152,-0.741463414634146,
4370998,6347.65625,576,-0.353157572041692,1536,0.941753525444513,-16048,9.83936235438381,-4,2.4390243902439,-40,0.24390243902439,4,-0.24390243902439,-15,0.0652173913043478,-49,-0.21304347826087,152,-0.741463414634146,
4371638,6367.1875,608,-0.37277743715512,1456,0.892703862660944,-16064,9.84917228694053,14,2.5,-41,-0.853658536585366,3,-0.182926829268293,-15,0.0652173913043478,-46,-0.2,152,-0.741463414634146,
4372278,6386.71875,512,-0.313917841814838,1504,0.922133660331085,-16096,9.86879215205395,4,2.5,-41,-0.24390243902439,4,-0.24390243902439,-14,0.0608695652173913,-50,-0.217391304347826,154,-0.751219512195122,
4372918,6406.25,480,-0.29429797670141,1488,0.912323727774372,-16128,9.88841201716738,-8,2.5609756097561,-42,0.487804878048781,-2,0.121951219512195,-14,0.0608695652173913,-48,-0.208695652173913,154,-0.751219512195122,
4373558,6425.78125,560,-0.343347639484979,1488,0.912323727774372,-16000,9.80993255671367,1,2.86585365853659,-47,-0.0609756097560976,-1,0.0609756097560976,-14,0.0608695652173913,-46,-0.2,153,-0.746341463414634,
4374198,6445.3125,576,-0.353157572041692,1456,0.892703862660944,-15984,9.80012262415696,11,2.92682926829268,-48,-0.670731707317073,-1,0.0609756097560976,-14,0.0608695652173913,-47,-0.204347826086957,153,-0.746341463414634,
4374838,6464.84375,464,-0.284488044144696,1504,0.922133660331085,-16064,9.84917228694053,1,2.74390243902439,-45,-0.0609756097560976,-2,0.121951219512195,-16,0.0695652173913043,-50,-0.217391304347826,154,-0.751219512195122,
4375478,6484.375,544,-0.333537706928265,1520,0.931943592887799,-16032,9.8295524218271,0,2.6219512195122,-43,0,-11,0.670731707317073,-17,0.0739130434782609,-48,-0.208695652173913,151,-0.736585365853659,
4376118,6503.90625,544,-0.333537706928265,1456,0.892703862660944,-16096,9.86879215205395,5,2.37804878048781,-39,-0.304878048780488,-11,0.670731707317073,-17,0.0739130434782609,-48,-0.208695652173913,152,-0.741463414634146,
4376758,6523.4375,464,-0.284488044144696,1424,0.873083997547517,-16048,9.83936235438381,-4,2.5,-41,0.24390243902439,-6,0.365853658536585,-15,0.0652173913043478,-50,-0.217391304347826,152,-0.741463414634146,
4377398,6542.96875,464,-0.284488044144696,1424,0.873083997547517,-15984,9.80012262415696,-2,2.6219512195122,-43,0.121951219512195,-10,0.609756097560976,-15,0.0652173913043478,-44,-0.191304347826087,152,-0.741463414634146,
4378038,6562.5,480,-0.29429797670141,1440,0.88289393010423,-16064,9.84917228694053,7,2.5,-41,-0.426829268292683,-10,0.609756097560976,-18,0.0782608695652174,-46,-0.2,153,-0.746341463414634,
4378678,6582.03125,528,-0.323727774371551,1408,0.863274064990803,-16080,9.85898221949724,13,2.68292682926829,-44,-0.792682926829268,-11,0.670731707317073,-15,0.0652173913043478,-49,-0.21304347826087,153,-0.746341463414634,
4379318,6601.5625,448,-0.274678111587983,1472,0.902513795217658,-16032,9.8295524218271,0,2.74390243902439,-45,0,-10,0.609756097560976,-14,0.0608695652173913,-49,-0.21304347826087,153,-0.746341463414634,
4379958,6621.09375,448,-0.274678111587983,1472,0.902513795217658,-15984,9.80012262415696,0,2.4390243902439,-40,0,-10,0.609756097560976,-16,0.0695652173913043,-46,-0.2,153,-0.746341463414634,
4380598,6640.625,512,-0.313917841814838,1424,0.873083997547517,-16000,9.80993255671367,19,2.37804878048781,-39,-1.15853658536585,-14,0.853658536585366,-17,0.0739130434782609,-46,-0.2,153,-0.746341463414634,
4381238,6660.15625,480,-0.29429797670141,1376,0.843654199877376,-16000,9.80993255671367,22,2.07317073170732,-34,-1.34146341463415,-9,0.548780487804878,-15,0.0652173913043478,-50,-0.217391304347826,155,-0.75609756097561,
4381878,6679.6875,432,-0.264868179031269,1392,0.853464132434089,-16048,9.83936235438381,19,2.4390243902439,-40,-1.15853658536585,-11,0.670731707317073,-16,0.0695652173913043,-43,-0.18695652173913,151,-0.736585365853659,
4382518,6699.21875,368,-0.225628448804414,1392,0.853464132434089,-16112,9.87860208461067,9,2.4390243902439,-40,-0.548780487804878,-9,0.548780487804878,-18,0.0782608695652174,-45,-0.195652173913043,152,-0.741463414634146,
4383158,6718.75,352,-0.215818516247701,1408,0.863274064990803,-15984,9.80012262415696,-4,2.68292682926829,-44,0.24390243902439,-9,0.548780487804878,-14,0.0608695652173913,-47,-0.204347826086957,152,-0.741463414634146,
4383798,6738.28125,416,-0.255058246474555,1360,0.833844267320662,-15904,9.75107296137339,-3,2.31707317073171,-38,0.182926829268293,-3,0.182926829268293,-15,0.0652173913043478,-45,-0.195652173913043,152,-0.741463414634146,
4384438,6757.8125,384,-0.235438381361128,1472,0.902513795217658,-16016,9.81974248927039,0,2.01219512195122,-33,0,-3,0.182926829268293,-15,0.0652173913043478,-48,-0.208695652173913,153,-0.746341463414634,
4385078,6777.34375,400,-0.245248313917842,1376,0.843654199877376,-16000,9.80993255671367,4,1.76829268292683,-29,-0.24390243902439,-2,0.121951219512195,-15,0.0652173913043478,-47,-0.204347826086957,152,-0.741463414634146,
4385718,6796.875,368,-0.225628448804414,1264,0.77498467198038,-16096,9.86879215205395,23,2.31707317073171,-38,-1.40243902439024,8,-0.487804878048781,-14,0.0608695652173913,-47,-0.204347826086957,153,-0.746341463414634,
4386358,6816.40625,352,-0.215818516247701,1344,0.824034334763949,-16096,9.86879215205395,7,2.4390243902439,-40,-0.426829268292683,8,-0.487804878048781,-15,0.0652173913043478,-49,-0.21304347826087,154,-0.751219512195122,
4386998,6835.9375,416,-0.255058246474555,1328,0.814224402207235,-16144,9.89822194972409,9,2.5,-41,-0.548780487804878,2,-0.121951219512195,-16,0.0695652173913043,-47,-0.204347826086957,152,-0.741463414634146,
4387638,6855.46875,400,-0.245248313917842,1264,0.77498467198038,-16112,9.87860208461067,22,2.68292682926829,-44,-1.34146341463415,2,-0.121951219512195,-15,0.0652173913043478,-44,-0.191304347826087,151,-0.736585365853659,
4388278,6875,352,-0.215818516247701,1280,0.784794604537094,-16144,9.89822194972409,9,2.98780487804878,-49,-0.548780487804878,-3,0.182926829268293,-14,0.0608695652173913,-50,-0.217391304347826,153,-0.746341463414634,
4388918,6894.53125,368,-0.225628448804414,1328,0.814224402207235,-16112,9.87860208461067,-2,3.35365853658537,-55,0.121951219512195,5,-0.304878048780488,-14,0.0608695652173913,-44,-0.191304347826087,152,-0.741463414634146,
4389558,6914.0625,432,-0.264868179031269,1392,0.853464132434089,-16048,9.83936235438381,2,3.47560975609756,-57,-0.121951219512195,4,-0.24390243902439,-14,0.0608695652173913,-45,-0.195652173913043,154,-0.751219512195122,
4390198,6933.59375,336,-0.206008583690987,1408,0.863274064990803,-16160,9.90803188228081,11,3.59756097560976,-59,-0.670731707317073,2,-0.121951219512195,-17,0.0739130434782609,-45,-0.195652173913043,153,-0.746341463414634,
4390838,6953.125,400,-0.245248313917842,1472,0.902513795217658,-16048,9.83936235438381,-2,3.47560975609756,-57,0.121951219512195,-3,0.182926829268293,-14,0.0608695652173913,-48,-0.208695652173913,152,-0.741463414634146,
4391478,6972.65625,512,-0.313917841814838,1456,0.892703862660944,-16032,9.8295524218271,1,3.71951219512195,-61,-0.0609756097560976,2,-0.121951219512195,-16,0.0695652173913043,-47,-0.204347826086957,153,-0.746341463414634,
4392118,6992.1875,480,-0.29429797670141,1456,0.892703862660944,-16032,9.8295524218271,4,3.65853658536585,-60,-0.24390243902439,4,-0.24390243902439,-15,0.0652173913043478,-44,-0.191304347826087,152,-0.741463414634146,
4392758,7011.71875,496,-0.304107909258124,1424,0.873083997547517,-15888,9.74126302881668,-5,3.35365853658537,-55,0.304878048780488,-6,0.365853658536585,-15,0.0652173913043478,-50,-0.217391304347826,152,-0.741463414634146,
4393398,7031.25,528,-0.323727774371551,1408,0.863274064990803,-15936,9.77069282648682,-2,3.10975609756098,-51,0.121951219512195,-15,0.914634146341463,-16,0.0695652173913043,-49,-0.21304347826087,152,-0.741463414634146,
4394038,7050.78125,464,-0.284488044144696,1488,0.912323727774372,-15936,9.77069282648682,-9,3.17073170731707,-52,0.548780487804878,-19,1.15853658536585,-15,0.0652173913043478,-45,-0.195652173913043,151,-0.736585365853659,
4394678,7070.3125,528,-0.323727774371551,1408,0.863274064990803,-15952,9.78050275904353,-20,3.10975609756098,-51,1.21951219512195,-26,1.58536585365854,-14,0.0608695652173913,-47,-0.204347826086957,152,-0.741463414634146,
4395318,7089.84375,608,-0.37277743715512,1488,0.912323727774372,-16000,9.80993255671367,-14,3.23170731707317,-53,0.853658536585366,-27,1.64634146341463,-15,0.0652173913043478,-46,-0.2,151,-0.736585365853659,
4395958,7109.375,496,-0.304107909258124,1536,0.941753525444513,-15984,9.80012262415696,-11,3.04878048780488,-50,0.670731707317073,-31,1.89024390243902,-16,0.0695652173913043,-44,-0.191304347826087,150,-0.731707317073171,
4396598,7128.90625,576,-0.353157572041692,1488,0.912323727774372,-16032,9.8295524218271,-6,2.80487804878049,-46,0.365853658536585,-34,2.07317073170732,-16,0.0695652173913043,-42,-0.182608695652174,151,-0.736585365853659,
4397238,7148.4375,512,-0.313917841814838,1568,0.96137339055794,-15984,9.80012262415696,-6,2.92682926829268,-48,0.365853658536585,-36,2.19512195121951,-16,0.0695652173913043,-43,-0.18695652173913,151,-0.736585365853659,
4397878,7167.96875,496,-0.304107909258124,1504,0.922133660331085,-15968,9.79031269160024,-5,2.92682926829268,-48,0.304878048780488,-32,1.95121951219512,-16,0.0695652173913043,-49,-0.21304347826087,154,-0.751219512195122,
4398518,7187.5,592,-0.362967504598406,1504,0.922133660331085,-16016,9.81974248927039,10,2.80487804878049,-46,-0.609756097560976,-31,1.89024390243902,-15,0.0652173913043478,-48,-0.208695652173913,153,-0.746341463414634,
4399158,7207.03125,432,-0.264868179031269,1424,0.873083997547517,-16064,9.84917228694053,13,2.74390243902439,-45,-0.792682926829268,-30,1.82926829268293,-14,0.0608695652173913,-50,-0.217391304347826,153,-0.746341463414634,
4399798,7226.5625,464,-0.284488044144696,1408,0.863274064990803,-16128,9.88841201716738,-17,2.80487804878049,-46,1.03658536585366,-37,2.25609756097561,-15,0.0652173913043478,-44,-0.191304347826087,153,-0.746341463414634,
4400438,7246.09375,480,-0.29429797670141,1312,0.804414469650521,-16064,9.84917228694053,-29,2.98780487804878,-49,1.76829268292683,-41,2.5,-17,0.0739130434782609,-46,-0.2,153,-0.746341463414634,
4401078,7265.625,560,-0.343347639484979,1296,0.794604537093807,-16064,9.84917228694053,-6,3.17073170731707,-52,0.365853658536585,-40,2.4390243902439,-17,0.0739130434782609,-45,-0.195652173913043,150,-0.731707317073171,
4401718,7285.15625,512,-0.313917841814838,1360,0.833844267320662,-16032,9.8295524218271,-5,2.98780487804878,-49,0.304878048780488,-37,2.25609756097561,-15,0.0652173913043478,-50,-0.217391304347826,153,-0.746341463414634,
4402358,7304.6875,320,-0.196198651134273,1360,0.833844267320662,-15952,9.78050275904353,-7,3.29268292682927,-54,0.426829268292683,-46,2.80487804878049,-16,0.0695652173913043,-45,-0.195652173913043,153,-0.746341463414634,
4402998,7324.21875,384,-0.235438381361128,1376,0.843654199877376,-16016,9.81974248927039,-7,2.37804878048781,-39,0.426829268292683,-46,2.80487804878049,-16,0.0695652173913043,-46,-0.2,153,-0.746341463414634,
4403638,7343.75,512,-0.313917841814838,1392,0.853464132434089,-16016,9.81974248927039,21,2.25609756097561,-37,-1.28048780487805,-40,2.4390243902439,-16,0.0695652173913043,-42,-0.182608695652174,152,-0.741463414634146,
4404278,7363.28125,304,-0.18638871857756,1520,0.931943592887799,-16064,9.84917228694053,38,2.37804878048781,-39,-2.31707317073171,-28,1.70731707317073,-14,0.0608695652173913,-47,-0.204347826086957,153,-0.746341463414634,
4404918,7382.8125,224,-0.137339055793991,1632,1.00061312078479,-16064,9.84917228694053,10,2.74390243902439,-45,-0.609756097560976,-28,1.70731707317073,-14,0.0608695652173913,-46,-0.2,152,-0.741463414634146,
4405558,7402.34375,288,-0.176578786020846,1488,0.912323727774372,-16144,9.89822194972409,-8,2.74390243902439,-45,0.487804878048781,-27,1.64634146341463,-13,0.0565217391304348,-44,-0.191304347826087,153,-0.746341463414634,
4406198,7421.875,272,-0.166768853464132,1488,0.912323727774372,-16144,9.89822194972409,9,2.80487804878049,-46,-0.548780487804878,-23,1.40243902439024,-14,0.0608695652173913,-48,-0.208695652173913,153,-0.746341463414634,
4406838,7441.40625,256,-0.156958920907419,1456,0.892703862660944,-16080,9.85898221949724,2,3.17073170731707,-52,-0.121951219512195,-7,0.426829268292683,-16,0.0695652173913043,-46,-0.2,153,-0.746341463414634,
4407478,7460.9375,240,-0.147148988350705,1376,0.843654199877376,-15968,9.79031269160024,-16,3.41463414634146,-56,0.975609756097561,-7,0.426829268292683,-17,0.0739130434782609,-44,-0.191304347826087,151,-0.736585365853659,
4408118,7480.46875,368,-0.225628448804414,1376,0.843654199877376,-15872,9.73145309625996,-7,3.23170731707317,-53,0.426829268292683,-4,0.24390243902439,-15,0.0652173913043478,-47,-0.204347826086957,153,-0.746341463414634,
4408758,7500,528,-0.323727774371551,1264,0.77498467198038,-15856,9.72164316370325,13,2.92682926829268,-48,-0.792682926829268,-7,0.426829268292683,-15,0.0652173913043478,-49,-0.21304347826087,153,-0.746341463414634,
4409398,7519.53125,432,-0.264868179031269,1376,0.843654199877376,-15824,9.70202329858982,36,2.19512195121951,-36,-2.19512195121951,-9,0.548780487804878,-16,0.0695652173913043,-48,-0.208695652173913,152,-0.741463414634146,
4410038,7539.0625,400,-0.245248313917842,1264,0.77498467198038,-15792,9.6824034334764,21,2.07317073170732,-34,-1.28048780487805,-11,0.670731707317073,-16,0.0695652173913043,-45,-0.195652173913043,152,-0.741463414634146,
4410678,7558.59375,432,-0.264868179031269,1248,0.765174739423666,-15888,9.74126302881668,28,2.31707317073171,-38,-1.70731707317073,-11,0.670731707317073,-14,0.0608695652173913,-50,-0.217391304347826,152,-0.741463414634146,
4411318,7578.125,336,-0.206008583690987,1200,0.735744941753525,-15904,9.75107296137339,21,1.89024390243902,-31,-1.28048780487805,-5,0.304878048780488,-15,0.0652173913043478,-44,-0.191304347826087,151,-0.736585365853659,
4411958,7597.65625,320,-0.196198651134273,1264,0.77498467198038,-15952,9.78050275904353,15,2.19512195121951,-36,-0.914634146341463,-8,0.487804878048781,-15,0.0652173913043478,-44,-0.191304347826087,153,-0.746341463414634,
4412598,7617.1875,288,-0.176578786020846,1344,0.824034334763949,-16000,9.80993255671367,13,1.95121951219512,-32,-0.792682926829268,-5,0.304878048780488,-13,0.0565217391304348,-50,-0.217391304347826,153,-0.746341463414634,
4413238,7636.71875,320,-0.196198651134273,1424,0.873083997547517,-16032,9.8295524218271,13,2.07317073170732,-34,-0.792682926829268,-2,0.121951219512195,-14,0.0608695652173913,-47,-0.204347826086957,150,-0.731707317073171,
4413878,7656.25,352,-0.215818516247701,1696,1.03985285101165,-16016,9.81974248927039,26,2.13414634146341,-35,-1.58536585365854,5,-0.304878048780488,-15,0.0652173913043478,-46,-0.2,152,-0.741463414634146,
4414518,7675.78125,480,-0.29429797670141,1744,1.06928264868179,-16080,9.85898221949724,32,1.34146341463415,-22,-1.95121951219512,10,-0.609756097560976,-15,0.0652173913043478,-45,-0.195652173913043,151,-0.736585365853659,
4415158,7695.3125,640,-0.392397302268547,1312,0.804414469650521,-15968,9.79031269160024,60,1.03658536585366,-17,-3.65853658536585,15,-0.914634146341463,-13,0.0565217391304348,-49,-0.21304347826087,153,-0.746341463414634,
4415798,7714.84375,512,-0.313917841814838,1152,0.706315144083384,-15984,9.80012262415696,65,1.40243902439024,-23,-3.96341463414634,-2,0.121951219512195,-13,0.0565217391304348,-49,-0.21304347826087,154,-0.751219512195122,
4416438,7734.375,288,-0.176578786020846,1248,0.765174739423666,-15936,9.77069282648682,19,1.21951219512195,-20,-1.15853658536585,-38,2.31707317073171,-13,0.0565217391304348,-47,-0.204347826086957,152,-0.741463414634146,
4417078,7753.90625,192,-0.117719190680564,1312,0.804414469650521,-15840,9.71183323114654,-29,1.95121951219512,-32,1.76829268292683,-60,3.65853658536585,-13,0.0565217391304348,-46,-0.2,152,-0.741463414634146,
4417718,7773.4375,240,-0.147148988350705,1376,0.843654199877376,-15808,9.69221336603311,-49,1.82926829268293,-30,2.98780487804878,-52,3.17073170731707,-16,0.0695652173913043,-47,-0.204347826086957,153,-0.746341463414634,
4418358,7792.96875,384,-0.235438381361128,1344,0.824034334763949,-15744,9.65297363580625,-30,2.5609756097561,-42,1.82926829268293,-30,1.82926829268293,-15,0.0652173913043478,-46,-0.2,152,-0.741463414634146,
4418998,7812.5,256,-0.156958920907419,1424,0.873083997547517,-15664,9.60392397302268,-40,1.46341463414634,-24,2.4390243902439,-16,0.975609756097561,-14,0.0608695652173913,-47,-0.204347826086957,152,-0.741463414634146,
4419638,7832.03125,608,-0.37277743715512,1408,0.863274064990803,-15616,9.57449417535254,-52,0.548780487804878,-9,3.17073170731707,-11,0.670731707317073,-14,0.0608695652173913,-43,-0.18695652173913,151,-0.736585365853659,
4420278,7851.5625,704,-0.431637032495402,1232,0.755364806866953,-15680,9.6137339055794,12,-0.487804878048781,8,-0.731707317073171,10,-0.609756097560976,-15,0.0652173913043478,-48,-0.208695652173913,153,-0.746341463414634,
4420918,7871.09375,608,-0.37277743715512,1136,0.696505211526671,-15824,9.70202329858982,33,-1.21951219512195,20,-2.01219512195122,17,-1.03658536585366,-14,0.0608695652173913,-43,-0.18695652173913,154,-0.751219512195122,
4421558,7890.625,528,-0.323727774371551,1008,0.618025751072961,-16080,9.85898221949724,5,-1.52439024390244,25,-0.304878048780488,9,-0.548780487804878,-14,0.0608695652173913,-48,-0.208695652173913,152,-0.741463414634146,
4422198,7910.15625,560,-0.343347639484979,1024,0.627835683629675,-16208,9.93746167995095,-15,-1.03658536585366,17,0.914634146341463,-3,0.182926829268293,-17,0.0739130434782609,-43,-0.18695652173913,152,-0.741463414634146,
4422838,7929.6875,608,-0.37277743715512,1152,0.706315144083384,-16416,10.0649908031882,-16,-0.731707317073171,12,0.975609756097561,-18,1.09756097560976,-16,0.0695652173913043,-42,-0.182608695652174,151,-0.736585365853659,
4423478,7949.21875,448,-0.274678111587983,1152,0.706315144083384,-16512,10.1238503985285,-5,0.304878048780488,-5,0.304878048780488,-16,0.975609756097561,-14,0.0608695652173913,-45,-0.195652173913043,153,-0.746341463414634,
4424118,7968.75,288,-0.176578786020846,1152,0.706315144083384,-16512,10.1238503985285,-7,1.52439024390244,-25,0.426829268292683,-20,1.21951219512195,-15,0.0652173913043478,-46,-0.2,152,-0.741463414634146,
4424758,7988.28125,368,-0.225628448804414,1104,0.676885346413243,-16464,10.0944206008584,-24,2.01219512195122,-33,1.46341463414634,-19,1.15853658536585,-14,0.0608695652173913,-47,-0.204347826086957,153,-0.746341463414634,
4425398,8007.8125,432,-0.264868179031269,1072,0.657265481299816,-16560,10.1532801961987,-7,2.37804878048781,-39,0.426829268292683,-14,0.853658536585366,-14,0.0608695652173913,-44,-0.191304347826087,151,-0.736585365853659,
4426038,8027.34375,336,-0.206008583690987,1040,0.637645616186389,-16544,10.1434702636419,28,2.92682926829268,-48,-1.70731707317073,-7,0.426829268292683,-16,0.0695652173913043,-44,-0.191304347826087,152,-0.741463414634146,
4426678,8046.875,240,-0.147148988350705,1232,0.755364806866953,-16560,10.1532801961987,27,3.17073170731707,-52,-1.64634146341463,-11,0.670731707317073,-15,0.0652173913043478,-42,-0.182608695652174,151,-0.736585365853659,
4427318,8066.40625,224,-0.137339055793991,1232,0.755364806866953,-16656,10.2121397915389,20,3.90243902439024,-64,-1.21951219512195,-13,0.792682926829268,-15,0.0652173913043478,-46,-0.2,153,-0.746341463414634,
4427958,8085.9375,176,-0.10790925812385,1312,0.804414469650521,-16576,10.1630901287554,28,5.0609756097561,-83,-1.70731707317073,-14,0.853658536585366,-15,0.0652173913043478,-39,-0.169565217391304,151,-0.736585365853659,
4428598,8105.46875,240,-0.147148988350705,1328,0.814224402207235,-16576,10.1630901287554,40,5.48780487804878,-90,-2.4390243902439,-5,0.304878048780488,-15,0.0652173913043478,-41,-0.178260869565217,151,-0.736585365853659,
4429238,8125,288,-0.176578786020846,1184,0.725935009196812,-16512,10.1238503985285,61,5.97560975609756,-98,-3.71951219512195,-3,0.182926829268293,-15,0.0652173913043478,-46,-0.2,151,-0.736585365853659,
4429878,8144.53125,208,-0.127529123237278,1312,0.804414469650521,-16576,10.1630901287554,88,6.28048780487805,-103,-5.36585365853659,-15,0.914634146341463,-14,0.0608695652173913,-45,-0.195652173913043,153,-0.746341463414634,
4430518,8164.0625,32,-0.0196198651134273,1168,0.716125076640098,-16400,10.0551808706315,66,7.19512195121951,-118,-4.02439024390244,-22,1.34146341463415,-13,0.0565217391304348,-48,-0.208695652173913,151,-0.736585365853659,
4431158,8183.59375,0,0,1312,0.804414469650521,-16336,10.0159411404047,47,8.04878048780488,-132,-2.86585365853659,-24,1.46341463414634,-12,0.0521739130434783,-48,-0.208695652173913,151,-0.736585365853659,
4431798,8203.125,160,-0.0980993255671367,1408,0.863274064990803,-16304,9.99632127529123,49,8.23170731707317,-135,-2.98780487804878,-21,1.28048780487805,-14,0.0608695652173913,-43,-0.18695652173913,152,-0.741463414634146,
4432438,8222.65625,288,-0.176578786020846,1392,0.853464132434089,-16160,9.90803188228081,93,8.10975609756098,-133,-5.67073170731707,-15,0.914634146341463,-14,0.0608695652173913,-46,-0.2,152,-0.741463414634146,
4433078,8242.1875,176,-0.10790925812385,1440,0.88289393010423,-16176,9.91784181483752,113,8.35365853658537,-137,-6.89024390243902,-3,0.182926829268293,-15,0.0652173913043478,-41,-0.178260869565217,150,-0.731707317073171,
4433718,8261.71875,-48,0.029429797670141,1472,0.902513795217658,-16016,9.81974248927039,68,8.47560975609756,-139,-4.14634146341463,-15,0.914634146341463,-13,0.0565217391304348,-49,-0.21304347826087,153,-0.746341463414634,
4434358,8281.25,96,-0.058859595340282,1456,0.892703862660944,-15744,9.65297363580625,30,8.23170731707317,-135,-1.82926829268293,-25,1.52439024390244,-14,0.0608695652173913,-46,-0.2,150,-0.731707317073171,
4434998,8300.78125,256,-0.156958920907419,1392,0.853464132434089,-15568,9.5450643776824,54,7.86585365853659,-129,-3.29268292682927,-28,1.70731707317073,-13,0.0565217391304348,-43,-0.18695652173913,149,-0.726829268292683,
4435638,8320.3125,16,-0.00980993255671367,1616,0.990803188228081,-15456,9.47639484978541,75,7.19512195121951,-118,-4.57317073170732,-41,2.5,-11,0.0478260869565217,-49,-0.21304347826087,152,-0.741463414634146,
4436278,8339.84375,-304,0.18638871857756,1824,1.11833231146536,-15280,9.36848559166156,25,6.09756097560976,-100,-1.52439024390244,-62,3.78048780487805,-13,0.0565217391304348,-45,-0.195652173913043,150,-0.731707317073171,
4436918,8359.375,-224,0.137339055793991,1888,1.15757204169221,-14976,9.182096873084,-21,5.1219512195122,-84,1.28048780487805,-62,3.78048780487805,-11,0.0478260869565217,-45,-0.195652173913043,151,-0.736585365853659,
4437558,8378.90625,-48,0.029429797670141,1680,1.03004291845494,-15072,9.24095646842428,11,3.78048780487805,-62,-0.670731707317073,-47,2.86585365853659,-11,0.0478260869565217,-47,-0.204347826086957,151,-0.736585365853659,
4438198,8398.4375,-112,0.0686695278969957,1504,0.922133660331085,-15120,9.27038626609442,35,2.68292682926829,-44,-2.13414634146341,-18,1.09756097560976,-14,0.0608695652173913,-49,-0.21304347826087,153,-0.746341463414634,
4438838,8417.96875,-128,0.0784794604537094,1344,0.824034334763949,-15232,9.33905579399141,-5,1.09756097560976,-18,0.304878048780488,-6,0.365853658536585,-12,0.0521739130434783,-46,-0.2,150,-0.731707317073171,
4439478,8437.5,48,-0.029429797670141,1152,0.706315144083384,-15440,9.46658491722869,-16,-0.365853658536585,6,0.975609756097561,7,-0.426829268292683,-18,0.0782608695652174,-43,-0.18695652173913,149,-0.726829268292683,
4440118,8457.03125,128,-0.0784794604537094,1088,0.66707541385653,-15552,9.53525444512569,-9,-1.15853658536585,19,0.548780487804878,2,-0.121951219512195,-14,0.0608695652173913,-46,-0.2,149,-0.726829268292683,
4440758,8476.5625,112,-0.0686695278969957,1200,0.735744941753525,-15744,9.65297363580625,-5,-1.58536585365854,26,0.304878048780488,-4,0.24390243902439,-13,0.0565217391304348,-46,-0.2,149,-0.726829268292683,
4441398,8496.09375,80,-0.0490496627835684,1376,0.843654199877376,-15872,9.73145309625996,-27,-1.64634146341463,27,1.64634146341463,-12,0.731707317073171,-13,0.0565217391304348,-48,-0.208695652173913,151,-0.736585365853659,
4442038,8515.625,128,-0.0784794604537094,1552,0.951563458001226,-16048,9.83936235438381,-39,-1.21951219512195,20,2.37804878048781,-26,1.58536585365854,-15,0.0652173913043478,-43,-0.18695652173913,151,-0.736585365853659,
4442678,8535.15625,208,-0.127529123237278,1600,0.980993255671367,-16208,9.93746167995095,-16,-1.46341463414634,24,0.975609756097561,-26,1.58536585365854,-13,0.0565217391304348,-43,-0.18695652173913,151,-0.736585365853659,
4443318,8554.6875,128,-0.0784794604537094,1488,0.912323727774372,-16336,10.0159411404047,13,-0.792682926829268,13,-0.792682926829268,-21,1.28048780487805,-14,0.0608695652173913,-42,-0.182608695652174,152,-0.741463414634146,
4443958,8574.21875,32,-0.0196198651134273,1376,0.843654199877376,-16400,10.0551808706315,13,-0.304878048780488,5,-0.792682926829268,-17,1.03658536585366,-14,0.0608695652173913,-44,-0.191304347826087,151,-0.736585365853659,
4444598,8593.75,112,-0.0686695278969957,1056,0.647455548743102,-16240,9.95708154506438,-5,-0.121951219512195,2,0.304878048780488,-26,1.58536585365854,-14,0.0608695652173913,-43,-0.18695652173913,151,-0.736585365853659,
4445238,8613.28125,-64,0.0392397302268547,720,0.441446965052115,-16432,10.0748007357449,15,0.914634146341463,-15,-0.914634146341463,-30,1.82926829268293,-12,0.0521739130434783,-46,-0.2,152,-0.741463414634146,
4445878,8632.8125,-304,0.18638871857756,736,0.451256897608829,-16656,10.2121397915389,-1,1.89024390243902,-31,0.0609756097560976,-45,2.74390243902439,-15,0.0652173913043478,-43,-0.18695652173913,150,-0.731707317073171,
4446518,8652.34375,-368,0.225628448804414,912,0.559166155732679,-16736,10.2611894543225,-33,2.5,-41,2.01219512195122,-54,3.29268292682927,-13,0.0565217391304348,-41,-0.178260869565217,149,-0.726829268292683,
4447158,8671.875,-272,0.166768853464132,1200,0.735744941753525,-16832,10.3200490496628,-18,3.04878048780488,-50,1.09756097560976,-38,2.31707317073171,-13,0.0565217391304348,-47,-0.204347826086957,150,-0.731707317073171,
4447798,8691.40625,-192,0.117719190680564,1456,0.892703862660944,-16736,10.2611894543225,37,4.08536585365854,-67,-2.25609756097561,-14,0.853658536585366,-12,0.0521739130434783,-44,-0.191304347826087,150,-0.731707317073171,
4448438,8710.9375,-208,0.127529123237278,1376,0.843654199877376,-16576,10.1630901287554,94,4.63414634146342,-76,-5.73170731707317,26,-1.58536585365854,-12,0.0521739130434783,-44,-0.191304347826087,150,-0.731707317073171,
4449078,8730.46875,-352,0.215818516247701,1408,0.863274064990803,-16608,10.1827099938688,123,5.0609756097561,-83,-7.5,50,-3.04878048780488,-13,0.0565217391304348,-47,-0.204347826086957,151,-0.736585365853659,
4449718,8750,-320,0.196198651134273,1392,0.853464132434089,-16352,10.0257510729614,114,5.1219512195122,-84,-6.95121951219512,64,-3.90243902439024,-13,0.0565217391304348,-48,-0.208695652173913,151,-0.736585365853659,
4450358,8769.53125,-160,0.0980993255671367,1680,1.03004291845494,-16224,9.94727161250766,110,4.75609756097561,-78,-6.70731707317073,65,-3.96341463414634,-14,0.0608695652173913,-42,-0.182608695652174,150,-0.731707317073171,
4450998,8789.0625,-224,0.137339055793991,1680,1.03004291845494,-16256,9.96689147762109,134,4.87804878048781,-80,-8.17073170731707,86,-5.24390243902439,-11,0.0478260869565217,-49,-0.21304347826087,150,-0.731707317073171,
4451638,8808.59375,-336,0.206008583690987,1632,1.00061312078479,-16128,9.88841201716738,89,5.73170731707317,-94,-5.42682926829268,92,-5.60975609756098,-11,0.0478260869565217,-47,-0.204347826086957,151,-0.736585365853659,
4452278,8828.125,-176,0.10790925812385,1616,0.990803188228081,-15888,9.74126302881668,26,5.97560975609756,-98,-1.58536585365854,97,-5.91463414634146,-12,0.0521739130434783,-44,-0.191304347826087,150,-0.731707317073171,
4452918,8847.65625,176,-0.10790925812385,1488,0.912323727774372,-15888,9.74126302881668,40,5.42682926829268,-89,-2.4390243902439,100,-6.09756097560976,-12,0.0521739130434783,-48,-0.208695652173913,150,-0.731707317073171,
4453558,8867.1875,256,-0.156958920907419,1328,0.814224402207235,-15872,9.73145309625996,90,4.9390243902439,-81,-5.48780487804878,96,-5.85365853658537,-11,0.0478260869565217,-50,-0.217391304347826,150,-0.731707317073171,
4454198,8886.71875,-80,0.0490496627835684,1248,0.765174739423666,-15920,9.7608828939301,76,4.9390243902439,-81,-4.63414634146342,86,-5.24390243902439,-11,0.0478260869565217,-46,-0.2,151,-0.736585365853659,
4454838,8906.25,-112,0.0686695278969957,1328,0.814224402207235,-15856,9.72164316370325,26,4.87804878048781,-80,-1.58536585365854,74,-4.51219512195122,-13,0.0565217391304348,-48,-0.208695652173913,151,-0.736585365853659,
4455478,8925.78125,48,-0.029429797670141,1360,0.833844267320662,-15824,9.70202329858982,4,4.63414634146342,-76,-0.24390243902439,60,-3.65853658536585,-11,0.0478260869565217,-42,-0.182608695652174,148,-0.721951219512195,
4456118,8945.3125,192,-0.117719190680564,1408,0.863274064990803,-15904,9.75107296137339,55,4.02439024390244,-66,-3.35365853658537,62,-3.78048780487805,-10,0.0434782608695652,-50,-0.217391304347826,151,-0.736585365853659,
4456758,8964.84375,16,-0.00980993255671367,1648,1.01042305334151,-16016,9.81974248927039,105,3.53658536585366,-58,-6.40243902439024,57,-3.47560975609756,-10,0.0434782608695652,-47,-0.204347826086957,149,-0.726829268292683,
4457398,8984.375,-240,0.147148988350705,1616,0.990803188228081,-15904,9.75107296137339,101,3.47560975609756,-57,-6.15853658536585,58,-3.53658536585366,-14,0.0608695652173913,-45,-0.195652173913043,148,-0.721951219512195,
4458038,9003.90625,-400,0.245248313917842,1616,0.990803188228081,-15824,9.70202329858982,64,3.41463414634146,-56,-3.90243902439024,60,-3.65853658536585,-11,0.0478260869565217,-47,-0.204347826086957,150,-0.731707317073171,
4458678,9023.4375,-576,0.353157572041692,1648,1.01042305334151,-15824,9.70202329858982,51,3.35365853658537,-55,-3.10975609756098,44,-2.68292682926829,-12,0.0521739130434783,-46,-0.2,148,-0.721951219512195,
4459318,9042.96875,-480,0.29429797670141,1712,1.04966278356836,-15760,9.66278356836297,34,3.90243902439024,-64,-2.07317073170732,35,-2.13414634146341,-13,0.0565217391304348,-43,-0.18695652173913,148,-0.721951219512195,
4459958,9062.5,-432,0.264868179031269,1744,1.06928264868179,-15760,9.66278356836297,19,4.69512195121951,-77,-1.15853658536585,42,-2.5609756097561,-9,0.0391304347826087,-49,-0.21304347826087,149,-0.726829268292683,
4460598,9082.03125,-320,0.196198651134273,1648,1.01042305334151,-15632,9.58430410790926,0,4.57317073170732,-75,0,50,-3.04878048780488,-10,0.0434782608695652,-50,-0.217391304347826,150,-0.731707317073171,
4461238,9101.5625,-144,0.088289393010423,1584,0.971183323114654,-15520,9.51563458001226,-31,3.90243902439024,-64,1.89024390243902,47,-2.86585365853659,-11,0.0478260869565217,-50,-0.217391304347826,150,-0.731707317073171,
4461878,9121.09375,-80,0.0490496627835684,1552,0.951563458001226,-15488,9.49601471489883,-31,2.6219512195122,-43,1.89024390243902,41,-2.5,-12,0.0521739130434783,-45,-0.195652173913043,148,-0.721951219512195,
4462518,9140.625,0,0,1536,0.941753525444513,-15520,9.51563458001226,-27,1.28048780487805,-21,1.64634146341463,32,-1.95121951219512,-10,0.0434782608695652,-51,-0.221739130434783,150,-0.731707317073171,
4463158,9160.15625,16,-0.00980993255671367,1520,0.931943592887799,-15664,9.60392397302268,-18,0.365853658536585,-6,1.09756097560976,25,-1.52439024390244,-11,0.0478260869565217,-45,-0.195652173913043,149,-0.726829268292683,
4463798,9179.6875,-16,0.00980993255671367,1424,0.873083997547517,-15792,9.6824034334764,-3,-0.182926829268293,3,0.182926829268293,28,-1.70731707317073,-12,0.0521739130434783,-46,-0.2,149,-0.726829268292683,
4464438,9199.21875,-32,0.0196198651134273,1376,0.843654199877376,-15808,9.69221336603311,7,-0.548780487804878,9,-0.426829268292683,22,-1.34146341463415,-11,0.0478260869565217,-51,-0.221739130434783,149,-0.726829268292683,
4465078,9218.75,-160,0.0980993255671367,1328,0.814224402207235,-15904,9.75107296137339,15,-0.975609756097561,16,-0.914634146341463,10,-0.609756097560976,-12,0.0521739130434783,-43,-0.18695652173913,148,-0.721951219512195,
4465718,9238.28125,-272,0.166768853464132,1392,0.853464132434089,-16000,9.80993255671367,20,-0.914634146341463,15,-1.21951219512195,3,-0.182926829268293,-13,0.0565217391304348,-48,-0.208695652173913,148,-0.721951219512195,
4466358,9257.8125,-128,0.0784794604537094,1376,0.843654199877376,-16112,9.87860208461067,-7,-0.975609756097561,16,0.426829268292683,-5,0.304878048780488,-10,0.0434782608695652,-48,-0.208695652173913,148,-0.721951219512195,
4466998,9277.34375,-32,0.0196198651134273,1376,0.843654199877376,-16224,9.94727161250766,-14,-0.914634146341463,15,0.853658536585366,-13,0.792682926829268,-10,0.0434782608695652,-47,-0.204347826086957,148,-0.721951219512195,
4467638,9296.875,-224,0.137339055793991,1232,0.755364806866953,-16240,9.95708154506438,10,-0.304878048780488,5,-0.609756097560976,-22,1.34146341463415,-11,0.0478260869565217,-46,-0.2,150,-0.731707317073171,
4468278,9316.40625,-368,0.225628448804414,1120,0.686695278969957,-16144,9.89822194972409,-7,0.304878048780488,-5,0.426829268292683,-37,2.25609756097561,-9,0.0391304347826087,-47,-0.204347826086957,149,-0.726829268292683,
4468918,9335.9375,-272,0.166768853464132,1024,0.627835683629675,-16176,9.91784181483752,-44,0.609756097560976,-10,2.68292682926829,-50,3.04878048780488,-10,0.0434782608695652,-47,-0.204347826086957,150,-0.731707317073171,
4469558,9355.46875,-288,0.176578786020846,1104,0.676885346413243,-16144,9.89822194972409,-48,1.21951219512195,-20,2.92682926829268,-60,3.65853658536585,-12,0.0521739130434783,-47,-0.204347826086957,149,-0.726829268292683,
4470198,9375,-352,0.215818516247701,1168,0.716125076640098,-16112,9.87860208461067,-39,1.34146341463415,-22,2.37804878048781,-66,4.02439024390244,-11,0.0478260869565217,-47,-0.204347826086957,149,-0.726829268292683,
4470838,9394.53125,-384,0.235438381361128,1312,0.804414469650521,-16144,9.89822194972409,-35,1.09756097560976,-18,2.13414634146341,-60,3.65853658536585,-14,0.0608695652173913,-43,-0.18695652173913,149,-0.726829268292683,
4471478,9414.0625,-384,0.235438381361128,1296,0.794604537093807,-16192,9.92765174739424,-8,0.914634146341463,-15,0.487804878048781,-47,2.86585365853659,-12,0.0521739130434783,-50,-0.217391304347826,150,-0.731707317073171,
4472118,9433.59375,-448,0.274678111587983,1216,0.745554874310239,-16176,9.91784181483752,32,0.975609756097561,-16,-1.95121951219512,-26,1.58536585365854,-11,0.0478260869565217,-47,-0.204347826086957,149,-0.726829268292683,
4472758,9453.125,-576,0.353157572041692,1168,0.716125076640098,-16256,9.96689147762109,49,1.03658536585366,-17,-2.98780487804878,-3,0.182926829268293,-11,0.0478260869565217,-48,-0.208695652173913,150,-0.731707317073171,
4473398,9472.65625,-480,0.29429797670141,1168,0.716125076640098,-16240,9.95708154506438,18,0.731707317073171,-12,-1.09756097560976,8,-0.487804878048781,-10,0.0434782608695652,-49,-0.21304347826087,149,-0.726829268292683,
4474038,9492.1875,-288,0.176578786020846,992,0.608215818516248,-16240,9.95708154506438,-1,0.853658536585366,-14,0.0609756097560976,10,-0.609756097560976,-13,0.0565217391304348,-44,-0.191304347826087,150,-0.731707317073171,
4474678,9511.71875,-320,0.196198651134273,976,0.598405885959534,-16128,9.88841201716738,-3,1.58536585365854,-26,0.182926829268293,17,-1.03658536585366,-12,0.0521739130434783,-47,-0.204347826086957,151,-0.736585365853659,
4475318,9531.25,-368,0.225628448804414,1024,0.627835683629675,-15984,9.80012262415696,-18,2.13414634146341,-35,1.09756097560976,9,-0.548780487804878,-10,0.0434782608695652,-49,-0.21304347826087,150,-0.731707317073171,
4475958,9550.78125,-320,0.196198651134273,1040,0.637645616186389,-16032,9.8295524218271,-43,2.25609756097561,-37,2.6219512195122,1,-0.0609756097560976,-12,0.0521739130434783,-41,-0.178260869565217,148,-0.721951219512195,
4476598,9570.3125,-336,0.206008583690987,1088,0.66707541385653,-16080,9.85898221949724,-27,2.19512195121951,-36,1.64634146341463,-2,0.121951219512195,-13,0.0565217391304348,-45,-0.195652173913043,149,-0.726829268292683,
4477238,9589.84375,-336,0.206008583690987,1216,0.745554874310239,-16192,9.92765174739424,-16,2.19512195121951,-36,0.975609756097561,-5,0.304878048780488,-14,0.0608695652173913,-44,-0.191304347826087,148,-0.721951219512195,
4477878,9609.375,-384,0.235438381361128,1280,0.784794604537094,-16176,9.91784181483752,-6,2.07317073170732,-34,0.365853658536585,-5,0.304878048780488,-12,0.0521739130434783,-44,-0.191304347826087,150,-0.731707317073171,
4478518,9628.90625,-336,0.206008583690987,1280,0.784794604537094,-16176,9.91784181483752,11,2.19512195121951,-36,-0.670731707317073,-2,0.121951219512195,-11,0.0478260869565217,-48,-0.208695652173913,151,-0.736585365853659,
4479158,9648.4375,-320,0.196198651134273,1280,0.784794604537094,-16160,9.90803188228081,32,1.89024390243902,-31,-1.95121951219512,3,-0.182926829268293,-12,0.0521739130434783,-44,-0.191304347826087,149,-0.726829268292683,
4479798,9667.96875,-272,0.166768853464132,1216,0.745554874310239,-16288,9.98651134273452,51,1.82926829268293,-30,-3.10975609756098,4,-0.24390243902439,-11,0.0478260869565217,-46,-0.2,149,-0.726829268292683,
4480438,9687.5,-368,0.225628448804414,1152,0.706315144083384,-16288,9.98651134273452,54,2.07317073170732,-34,-3.29268292682927,5,-0.304878048780488,-11,0.0478260869565217,-46,-0.2,150,-0.731707317073171,
4481078,9707.03125,-384,0.235438381361128,1168,0.716125076640098,-16240,9.95708154506438,49,2.6219512195122,-43,-2.98780487804878,2,-0.121951219512195,-12,0.0521739130434783,-47,-0.204347826086957,148,-0.721951219512195,
4481718,9726.5625,-448,0.274678111587983,1056,0.647455548743102,-16352,10.0257510729614,41,3.10975609756098,-51,-2.5,5,-0.304878048780488,-11,0.0478260869565217,-43,-0.18695652173913,149,-0.726829268292683,
4482358,9746.09375,-384,0.235438381361128,1088,0.66707541385653,-16352,10.0257510729614,50,3.78048780487805,-62,-3.04878048780488,4,-0.24390243902439,-12,0.0521739130434783,-48,-0.208695652173913,149,-0.726829268292683,
4482998,9765.625,-416,0.255058246474555,1088,0.66707541385653,-16272,9.9767014101778,22,4.63414634146342,-76,-1.34146341463415,-1,0.0609756097560976,-10,0.0434782608695652,-43,-0.18695652173913,148,-0.721951219512195,
4483638,9785.15625,-384,0.235438381361128,1088,0.66707541385653,-16112,9.87860208461067,-2,4.51219512195122,-74,0.121951219512195,2,-0.121951219512195,-11,0.0478260869565217,-46,-0.2,149,-0.726829268292683,
4484278,9804.6875,-304,0.18638871857756,1104,0.676885346413243,-16080,9.85898221949724,-12,4.57317073170732,-75,0.731707317073171,-4,0.24390243902439,-10,0.0434782608695652,-49,-0.21304347826087,150,-0.731707317073171,
4484918,9824.21875,-144,0.088289393010423,1280,0.784794604537094,-15968,9.79031269160024,-5,4.32926829268293,-71,0.304878048780488,-9,0.548780487804878,-10,0.0434782608695652,-46,-0.2,148,-0.721951219512195,
4485558,9843.75,-112,0.0686695278969957,1216,0.745554874310239,-15904,9.75107296137339,13,4.26829268292683,-70,-0.792682926829268,-8,0.487804878048781,-13,0.0565217391304348,-45,-0.195652173913043,148,-0.721951219512195,
4486198,9863.28125,-272,0.166768853464132,1200,0.735744941753525,-15872,9.73145309625996,6,4.14634146341463,-68,-0.365853658536585,-14,0.853658536585366,-12,0.0521739130434783,-46,-0.2,148,-0.721951219512195,
4486838,9882.8125,-304,0.18638871857756,1248,0.765174739423666,-15840,9.71183323114654,-27,3.65853658536585,-60,1.64634146341463,-24,1.46341463414634,-11,0.0478260869565217,-42,-0.182608695652174,148,-0.721951219512195,
4487478,9902.34375,-112,0.0686695278969957,1200,0.735744941753525,-15936,9.77069282648682,-8,3.71951219512195,-61,0.487804878048781,-25,1.52439024390244,-10,0.0434782608695652,-42,-0.182608695652174,148,-0.721951219512195,
4488118,9921.875,-256,0.156958920907419,1168,0.716125076640098,-15872,9.73145309625996,23,3.17073170731707,-52,-1.40243902439024,-27,1.64634146341463,-11,0.0478260869565217,-45,-0.195652173913043,148,-0.721951219512195,
4488758,9941.40625,-528,0.323727774371551,1200,0.735744941753525,-15840,9.71183323114654,10,2.80487804878049,-46,-0.609756097560976,-31,1.89024390243902,-11,0.0478260869565217,-44,-0.191304347826087,149,-0.726829268292683,
4489398,9960.9375,-480,0.29429797670141,1216,0.745554874310239,-15872,9.73145309625996,-10,2.86585365853659,-47,0.609756097560976,-37,2.25609756097561,-12,0.0521739130434783,-43,-0.18695652173913,148,-0.721951219512195,
4490038,9980.46875,-464,0.284488044144696,1168,0.716125076640098,-15952,9.78050275904353,-1,2.5609756097561,-42,0.0609756097560976,-29,1.76829268292683,-11,0.0478260869565217,-48,-0.208695652173913,150,-0.731707317073171,
4490678,10000,-560,0.343347639484979,1168,0.716125076640098,-15920,9.7608828939301,2,2.13414634146341,-35,-0.121951219512195,-23,1.40243902439024,-13,0.0565217391304348,-42,-0.182608695652174,149,-0.726829268292683,
4491318,10019.53125,-560,0.343347639484979,1168,0.716125076640098,-15888,9.74126302881668,-5,2.19512195121951,-36,0.304878048780488,-17,1.03658536585366,-13,0.0565217391304348,-43,-0.18695652173913,149,-0.726829268292683,
4491958,10039.0625,-576,0.353157572041692,1184,0.725935009196812,-15888,9.74126302881668,-14,1.70731707317073,-28,0.853658536585366,-17,1.03658536585366,-12,0.0521739130434783,-47,-0.204347826086957,149,-0.726829268292683,
4492598,10058.59375,-496,0.304107909258124,1200,0.735744941753525,-15936,9.77069282648682,-10,1.70731707317073,-28,0.609756097560976,-16,0.975609756097561,-11,0.0478260869565217,-47,-0.204347826086957,149,-0.726829268292683,
4493238,10078.125,-528,0.323727774371551,1120,0.686695278969957,-15952,9.78050275904353,5,1.46341463414634,-24,-0.304878048780488,-7,0.426829268292683,-9,0.0391304347826087,-49,-0.21304347826087,149,-0.726829268292683,
4493878,10097.65625,-496,0.304107909258124,1168,0.716125076640098,-16032,9.8295524218271,14,1.28048780487805,-21,-0.853658536585366,-1,0.0609756097560976,-12,0.0521739130434783,-47,-0.204347826086957,149,-0.726829268292683,
4494518,10117.1875,-432,0.264868179031269,1264,0.77498467198038,-16096,9.86879215205395,19,1.21951219512195,-20,-1.15853658536585,7,-0.426829268292683,-11,0.0478260869565217,-44,-0.191304347826087,149,-0.726829268292683,
4495158,10136.71875,-400,0.245248313917842,1248,0.765174739423666,-16128,9.88841201716738,22,1.15853658536585,-19,-1.34146341463415,13,-0.792682926829268,-11,0.0478260869565217,-44,-0.191304347826087,150,-0.731707317073171,
4495798,10156.25,-480,0.29429797670141,1184,0.725935009196812,-16160,9.90803188228081,14,1.09756097560976,-18,-0.853658536585366,10,-0.609756097560976,-10,0.0434782608695652,-45,-0.195652173913043,148,-0.721951219512195,
4496438,10175.78125,-416,0.255058246474555,1216,0.745554874310239,-16192,9.92765174739424,8,1.34146341463415,-22,-0.487804878048781,7,-0.426829268292683,-11,0.0478260869565217,-44,-0.191304347826087,150,-0.731707317073171,
4497078,10195.3125,-368,0.225628448804414,1120,0.686695278969957,-16208,9.93746167995095,9,1.95121951219512,-32,-0.548780487804878,3,-0.182926829268293,-12,0.0521739130434783,-43,-0.18695652173913,149,-0.726829268292683,
4497718,10214.84375,-496,0.304107909258124,1184,0.725935009196812,-16080,9.85898221949724,-9,1.95121951219512,-32,0.548780487804878,0,0,-10,0.0434782608695652,-46,-0.2,148,-0.721951219512195,
4498358,10234.375,-464,0.284488044144696,1136,0.696505211526671,-16112,9.87860208461067,-15,2.19512195121951,-36,0.914634146341463,-1,0.0609756097560976,-11,0.0478260869565217,-47,-0.204347826086957,149,-0.726829268292683,
4498998,10253.90625,-272,0.166768853464132,1136,0.696505211526671,-16096,9.86879215205395,4,2.4390243902439,-40,-0.24390243902439,2,-0.121951219512195,-11,0.0478260869565217,-47,-0.204347826086957,149,-0.726829268292683,
4499638,10273.4375,-304,0.18638871857756,1152,0.706315144083384,-16112,9.87860208461067,13,2.25609756097561,-37,-0.792682926829268,-2,0.121951219512195,-9,0.0391304347826087,-45,-0.195652173913043,149,-0.726829268292683,
4500278,10292.96875,-304,0.18638871857756,1168,0.716125076640098,-16144,9.89822194972409,1,2.31707317073171,-38,-0.0609756097560976,-13,0.792682926829268,-9,0.0391304347826087,-46,-0.2,149,-0.726829268292683,
4500918,10312.5,-160,0.0980993255671367,1056,0.647455548743102,-16128,9.88841201716738,18,2.4390243902439,-40,-1.09756097560976,-15,0.914634146341463,-12,0.0521739130434783,-47,-0.204347826086957,149,-0.726829268292683,
4501558,10332.03125,-256,0.156958920907419,1024,0.627835683629675,-16112,9.87860208461067,26,2.6219512195122,-43,-1.58536585365854,-18,1.09756097560976,-10,0.0434782608695652,-46,-0.2,150,-0.731707317073171,
4502198,10351.5625,-368,0.225628448804414,1088,0.66707541385653,-16160,9.90803188228081,1,2.92682926829268,-48,-0.0609756097560976,-28,1.70731707317073,-10,0.0434782608695652,-48,-0.208695652173913,149,-0.726829268292683,
4502838,10371.09375,-304,0.18638871857756,1088,0.66707541385653,-16112,9.87860208461067,-8,2.98780487804878,-49,0.487804878048781,-36,2.19512195121951,-11,0.0478260869565217,-44,-0.191304347826087,148,-0.721951219512195,
4503478,10390.625,-288,0.176578786020846,1072,0.657265481299816,-16112,9.87860208461067,-9,3.17073170731707,-52,0.548780487804878,-35,2.13414634146341,-12,0.0521739130434783,-43,-0.18695652173913,148,-0.721951219512195,
4504118,10410.15625,-272,0.166768853464132,1088,0.66707541385653,-16080,9.85898221949724,-3,2.98780487804878,-49,0.182926829268293,-38,2.31707317073171,-10,0.0434782608695652,-41,-0.178260869565217,148,-0.721951219512195,
4504758,10429.6875,-288,0.176578786020846,1120,0.686695278969957,-16176,9.91784181483752,16,2.86585365853659,-47,-0.975609756097561,-41,2.5,-12,0.0521739130434783,-39,-0.169565217391304,148,-0.721951219512195,
4505398,10449.21875,-480,0.29429797670141,1088,0.66707541385653,-16080,9.85898221949724,-7,3.17073170731707,-52,0.426829268292683,-41,2.5,-12,0.0521739130434783,-45,-0.195652173913043,148,-0.721951219512195,
4506038,10468.75,-480,0.29429797670141,1072,0.657265481299816,-16032,9.8295524218271,-6,3.53658536585366,-58,0.365853658536585,-35,2.13414634146341,-12,0.0521739130434783,-45,-0.195652173913043,148,-0.721951219512195,
4506678,10488.28125,-544,0.333537706928265,1088,0.66707541385653,-16112,9.87860208461067,3,3.35365853658537,-55,-0.182926829268293,-29,1.76829268292683,-8,0.0347826086956522,-47,-0.204347826086957,150,-0.731707317073171,
4507318,10507.8125,-464,0.284488044144696,1088,0.66707541385653,-16192,9.92765174739424,-5,3.71951219512195,-61,0.304878048780488,-33,2.01219512195122,-11,0.0478260869565217,-43,-0.18695652173913,151,-0.736585365853659,
4507958,10527.34375,-528,0.323727774371551,1136,0.696505211526671,-16176,9.91784181483752,-9,3.59756097560976,-59,0.548780487804878,-35,2.13414634146341,-9,0.0391304347826087,-44,-0.191304347826087,149,-0.726829268292683,
4508598,10546.875,-496,0.304107909258124,1136,0.696505211526671,-16160,9.90803188228081,-16,3.47560975609756,-57,0.975609756097561,-25,1.52439024390244,-10,0.0434782608695652,-46,-0.2,149,-0.726829268292683,
4509238,10566.40625,-528,0.323727774371551,1104,0.676885346413243,-16144,9.89822194972409,-10,3.65853658536585,-60,0.609756097560976,-19,1.15853658536585,-11,0.0478260869565217,-42,-0.182608695652174,147,-0.717073170731707,
4509878,10585.9375,-480,0.29429797670141,1168,0.716125076640098,-16064,9.84917228694053,4,3.59756097560976,-59,-0.24390243902439,-13,0.792682926829268,-11,0.0478260869565217,-46,-0.2,150,-0.731707317073171,
4510518,10605.46875,-528,0.323727774371551,1088,0.66707541385653,-16128,9.88841201716738,6,3.53658536585366,-58,-0.365853658536585,-15,0.914634146341463,-9,0.0391304347826087,-45,-0.195652173913043,149,-0.726829268292683,
4511158,10625,-464,0.284488044144696,1120,0.686695278969957,-16000,9.80993255671367,10,3.65853658536585,-60,-0.609756097560976,-11,0.670731707317073,-11,0.0478260869565217,-41,-0.178260869565217,148,-0.721951219512195,
