Shimmer,Shimmer,Shimmer,Shimmer,Shimmer,Shimmer,Shimmer,Shimmer,Shimmer,Shimmer,Shimmer,Shimmer,Shimmer,Shimmer,Shimmer,Shimmer,Shimmer,Shimmer,Shimmer,Shimmer,
Timestamp,Timestamp,Wide Range Accelerometer X,Wide Range Accelerometer X,Wide Range Accelerometer Y,Wide Range Accelerometer Y,Wide Range Accelerometer Z,Wide Range Accelerometer Z,Gyroscope X,Gyroscope X,Gyroscope Y,Gyroscope Y,Gyroscope Z,Gyroscope Z,Magnetometer X,Magnetometer X,Magnetometer Y,Magnetometer Y,Magnetometer Z,Magnetometer Z,
RAW,CAL,RAW,CAL,RAW,CAL,RAW,CAL,RAW,CAL,RAW,CAL,RAW,CAL,RAW,CAL,RAW,CAL,RAW,CAL,
no units,mSecs,no units,m/(sec^2),no units,m/(sec^2),no units,m/(sec^2),no units,deg/sec,no units,deg/sec,no units,deg/sec,no units,local,no units,local,no units,local,
8598198,0,4688,-2.87431023911711,-15472,-9.48620478234212,-1792,1.09871244635193,-14,2.5609756097561,-42,0.853658536585366,-7,0.426829268292683,-74,0.321739130434783,38,0.165217391304348,130,-0.634146341463415,
8598838,19.53125,4608,-2.82526057633354,-15408,-9.44696505211527,-1904,1.16738197424893,-8,2.92682926829268,-48,0.487804878048781,-6,0.365853658536585,-77,0.334782608695652,42,0.182608695652174,129,-0.629268292682927,
8599478,39.0625,4592,-2.81545064377682,-15424,-9.45677498467198,-1920,1.17719190680564,-18,3.04878048780488,-50,1.09756097560976,-7,0.426829268292683,-77,0.334782608695652,43,0.18695652173913,129,-0.629268292682927,
8600118,58.59375,4640,-2.84488044144697,-15408,-9.44696505211527,-1888,1.15757204169221,-26,2.86585365853659,-47,1.58536585365854,-8,0.487804878048781,-73,0.317391304347826,37,0.160869565217391,130,-0.634146341463415,
8600758,78.125,4704,-2.88412017167382,-15440,-9.46658491722869,-1920,1.17719190680564,-23,3.53658536585366,-58,1.40243902439024,-10,0.609756097560976,-75,0.326086956521739,41,0.178260869565217,129,-0.629268292682927,
8601398,97.65625,4624,-2.83507050889025,-15440,-9.46658491722869,-1952,1.19681177191907,-18,3.71951219512195,-61,1.09756097560976,-12,0.731707317073171,-76,0.330434782608696,41,0.178260869565217,129,-0.629268292682927,
8602038,117.1875,4736,-2.90374003678725,-15456,-9.47639484978541,-1840,1.12814224402207,-19,4.14634146341463,-68,1.15853658536585,-15,0.914634146341463,-77,0.334782608695652,40,0.173913043478261,130,-0.634146341463415,
8602678,136.71875,4688,-2.87431023911711,-15392,-9.43715511955855,-1808,1.10852237890864,-15,4.02439024390244,-66,0.914634146341463,-13,0.792682926829268,-79,0.343478260869565,38,0.165217391304348,130,-0.634146341463415,
8603318,156.25,4720,-2.89393010423053,-15408,-9.44696505211527,-1824,1.11833231146536,-14,4.08536585365854,-67,0.853658536585366,-10,0.609756097560976,-76,0.330434782608696,41,0.178260869565217,129,-0.629268292682927,
8603958,175.78125,4720,-2.89393010423053,-15376,-9.42734518700184,-1872,1.1477621091355,-4,3.53658536585366,-58,0.24390243902439,-11,0.670731707317073,-76,0.330434782608696,40,0.173913043478261,129,-0.629268292682927,
8604598,195.3125,4688,-2.87431023911711,-15408,-9.44696505211527,-1856,1.13795217657879,8,3.29268292682927,-54,-0.487804878048781,-9,0.548780487804878,-75,0.326086956521739,38,0.165217391304348,129,-0.629268292682927,
8605238,214.84375,4736,-2.90374003678725,-15408,-9.44696505211527,-1920,1.17719190680564,20,2.92682926829268,-48,-1.21951219512195,-8,0.487804878048781,-74,0.321739130434783,41,0.178260869565217,129,-0.629268292682927,
8605878,234.375,4688,-2.87431023911711,-15376,-9.42734518700184,-1840,1.12814224402207,33,2.5609756097561,-42,-2.01219512195122,-7,0.426829268292683,-74,0.321739130434783,38,0.165217391304348,129,-0.629268292682927,
8606518,253.90625,4656,-2.85469037400368,-15456,-9.47639484978541,-1824,1.11833231146536,37,2.25609756097561,-37,-2.25609756097561,-9,0.548780487804878,-75,0.326086956521739,37,0.160869565217391,130,-0.634146341463415,
8607158,273.4375,4592,-2.81545064377682,-15424,-9.45677498467198,-1808,1.10852237890864,33,2.19512195121951,-36,-2.01219512195122,-11,0.670731707317073,-75,0.326086956521739,41,0.178260869565217,131,-0.639024390243902,
8607798,292.96875,4608,-2.82526057633354,-15472,-9.48620478234212,-1744,1.06928264868179,35,2.13414634146341,-35,-2.13414634146341,-12,0.731707317073171,-76,0.330434782608696,42,0.182608695652174,130,-0.634146341463415,
8608438,312.5,4544,-2.78602084610668,-15488,-9.49601471489883,-1760,1.0790925812385,32,2.07317073170732,-34,-1.95121951219512,-11,0.670731707317073,-74,0.321739130434783,37,0.160869565217391,130,-0.634146341463415,
8609078,332.03125,4480,-2.74678111587983,-15440,-9.46658491722869,-1760,1.0790925812385,9,1.64634146341463,-27,-0.548780487804878,-12,0.731707317073171,-74,0.321739130434783,39,0.169565217391304,130,-0.634146341463415,
8609718,351.5625,4496,-2.75659104843654,-15488,-9.49601471489883,-1824,1.11833231146536,-6,1.82926829268293,-30,0.365853658536585,-9,0.548780487804878,-75,0.326086956521739,39,0.169565217391304,128,-0.624390243902439,
8610358,371.09375,4448,-2.7271612507664,-15456,-9.47639484978541,-1920,1.17719190680564,-24,2.4390243902439,-40,1.46341463414634,-5,0.304878048780488,-74,0.321739130434783,40,0.173913043478261,128,-0.624390243902439,
8610998,390.625,4368,-2.67811158798283,-15408,-9.44696505211527,-1904,1.16738197424893,-59,2.92682926829268,-48,3.59756097560976,-11,0.670731707317073,-74,0.321739130434783,38,0.165217391304348,129,-0.629268292682927,
8611638,410.15625,4416,-2.70754138565297,-15456,-9.47639484978541,-1888,1.15757204169221,-92,3.41463414634146,-56,5.60975609756098,-9,0.548780487804878,-75,0.326086956521739,42,0.182608695652174,128,-0.624390243902439,
8612278,429.6875,4528,-2.77621091354997,-15536,-9.52544451256898,-1904,1.16738197424893,-99,3.65853658536585,-60,6.03658536585366,-3,0.182926829268293,-74,0.321739130434783,41,0.178260869565217,129,-0.629268292682927,
8612918,449.21875,4608,-2.82526057633354,-15520,-9.51563458001226,-1840,1.12814224402207,-88,3.84146341463415,-63,5.36585365853659,3,-0.182926829268293,-74,0.321739130434783,41,0.178260869565217,128,-0.624390243902439,
8613558,468.75,4640,-2.84488044144697,-15376,-9.42734518700184,-1904,1.16738197424893,-70,3.90243902439024,-64,4.26829268292683,1,-0.0609756097560976,-78,0.339130434782609,41,0.178260869565217,131,-0.639024390243902,
8614198,488.28125,4624,-2.83507050889025,-15408,-9.44696505211527,-1792,1.09871244635193,-65,3.71951219512195,-61,3.96341463414634,4,-0.24390243902439,-78,0.339130434782609,42,0.182608695652174,129,-0.629268292682927,
8614838,507.8125,4656,-2.85469037400368,-15408,-9.44696505211527,-1856,1.13795217657879,-75,3.96341463414634,-65,4.57317073170732,-4,0.24390243902439,-76,0.330434782608696,44,0.191304347826087,128,-0.624390243902439,
8615478,527.34375,4752,-2.91354996934396,-15472,-9.48620478234212,-1808,1.10852237890864,-73,3.84146341463415,-63,4.45121951219512,-12,0.731707317073171,-75,0.326086956521739,38,0.165217391304348,129,-0.629268292682927,
8616118,546.875,4784,-2.93316983445739,-15424,-9.45677498467198,-1952,1.19681177191907,-59,4.02439024390244,-66,3.59756097560976,-13,0.792682926829268,-76,0.330434782608696,40,0.173913043478261,129,-0.629268292682927,
8616758,566.40625,4784,-2.93316983445739,-15424,-9.45677498467198,-1936,1.18700183936235,-48,3.78048780487805,-62,2.92682926829268,-15,0.914634146341463,-75,0.326086956521739,41,0.178260869565217,130,-0.634146341463415,
8617398,585.9375,4864,-2.98221949724096,-15424,-9.45677498467198,-1840,1.12814224402207,-41,3.84146341463415,-63,2.5,-16,0.975609756097561,-75,0.326086956521739,42,0.182608695652174,128,-0.624390243902439,
8618038,605.46875,4880,-2.99202942979767,-15376,-9.42734518700184,-1824,1.11833231146536,-37,3.90243902439024,-64,2.25609756097561,-24,1.46341463414634,-76,0.330434782608696,37,0.160869565217391,129,-0.629268292682927,
8618678,625,4784,-2.93316983445739,-15312,-9.38810545677498,-1808,1.10852237890864,-44,3.84146341463415,-63,2.68292682926829,-25,1.52439024390244,-77,0.334782608695652,42,0.182608695652174,130,-0.634146341463415,
8619318,644.53125,4752,-2.91354996934396,-15296,-9.37829552421827,-1904,1.16738197424893,-49,3.78048780487805,-62,2.98780487804878,-27,1.64634146341463,-77,0.334782608695652,41,0.178260869565217,130,-0.634146341463415,
8619958,664.0625,4768,-2.92335990190067,-15392,-9.43715511955855,-1920,1.17719190680564,-41,3.90243902439024,-64,2.5,-26,1.58536585365854,-75,0.326086956521739,37,0.160869565217391,130,-0.634146341463415,
8620598,683.59375,4672,-2.86450030656039,-15360,-9.41753525444513,-1888,1.15757204169221,-43,4.14634146341463,-68,2.6219512195122,-22,1.34146341463415,-75,0.326086956521739,38,0.165217391304348,130,-0.634146341463415,
8621238,703.125,4784,-2.93316983445739,-15360,-9.41753525444513,-1856,1.13795217657879,-39,4.02439024390244,-66,2.37804878048781,-21,1.28048780487805,-78,0.339130434782609,42,0.182608695652174,128,-0.624390243902439,
8621878,722.65625,4832,-2.96259963212753,-15408,-9.44696505211527,-1872,1.1477621091355,-32,3.90243902439024,-64,1.95121951219512,-16,0.975609756097561,-76,0.330434782608696,42,0.182608695652174,129,-0.629268292682927,
8622518,742.1875,4816,-2.95278969957082,-15440,-9.46658491722869,-1792,1.09871244635193,-32,3.90243902439024,-64,1.95121951219512,-19,1.15853658536585,-77,0.334782608695652,42,0.182608695652174,130,-0.634146341463415,
8623158,761.71875,4944,-3.03126916002452,-15376,-9.42734518700184,-1872,1.1477621091355,-22,3.90243902439024,-64,1.34146341463415,-23,1.40243902439024,-77,0.334782608695652,41,0.178260869565217,131,-0.639024390243902,
8623798,781.25,4864,-2.98221949724096,-15392,-9.43715511955855,-1904,1.16738197424893,-6,3.84146341463415,-63,0.365853658536585,-22,1.34146341463415,-76,0.330434782608696,40,0.173913043478261,130,-0.634146341463415,
8624438,800.78125,4880,-2.99202942979767,-15392,-9.43715511955855,-1744,1.06928264868179,1,3.41463414634146,-56,-0.0609756097560976,-24,1.46341463414634,-77,0.334782608695652,40,0.173913043478261,130,-0.634146341463415,
8625078,820.3125,4896,-3.00183936235438,-15312,-9.38810545677498,-1840,1.12814224402207,38,2.98780487804878,-49,-2.31707317073171,-23,1.40243902439024,-77,0.334782608695652,37,0.160869565217391,130,-0.634146341463415,
8625718,839.84375,4800,-2.9429797670141,-15376,-9.42734518700184,-1808,1.10852237890864,47,2.74390243902439,-45,-2.86585365853659,-23,1.40243902439024,-77,0.334782608695652,37,0.160869565217391,131,-0.639024390243902,
8626358,859.375,4784,-2.93316983445739,-15360,-9.41753525444513,-1824,1.11833231146536,52,2.68292682926829,-44,-3.17073170731707,-22,1.34146341463415,-75,0.326086956521739,37,0.160869565217391,130,-0.634146341463415,
8626998,878.90625,4688,-2.87431023911711,-15376,-9.42734518700184,-1760,1.0790925812385,48,2.4390243902439,-40,-2.92682926829268,-23,1.40243902439024,-75,0.326086956521739,37,0.160869565217391,129,-0.629268292682927,
8627638,898.4375,4720,-2.89393010423053,-15408,-9.44696505211527,-1840,1.12814224402207,49,2.25609756097561,-37,-2.98780487804878,-23,1.40243902439024,-76,0.330434782608696,41,0.178260869565217,131,-0.639024390243902,
8628278,917.96875,4720,-2.89393010423053,-15360,-9.41753525444513,-1808,1.10852237890864,49,2.6219512195122,-43,-2.98780487804878,-17,1.03658536585366,-77,0.334782608695652,41,0.178260869565217,130,-0.634146341463415,
8628918,937.5,4736,-2.90374003678725,-15376,-9.42734518700184,-1824,1.11833231146536,41,2.4390243902439,-40,-2.5,-12,0.731707317073171,-78,0.339130434782609,42,0.182608695652174,128,-0.624390243902439,
8629558,957.03125,4592,-2.81545064377682,-15360,-9.41753525444513,-1776,1.08890251379522,26,2.6219512195122,-43,-1.58536585365854,-11,0.670731707317073,-76,0.330434782608696,36,0.156521739130435,131,-0.639024390243902,
8630198,976.5625,4624,-2.83507050889025,-15472,-9.48620478234212,-1856,1.13795217657879,16,2.6219512195122,-43,-0.975609756097561,-7,0.426829268292683,-77,0.334782608695652,40,0.173913043478261,130,-0.634146341463415,
8630838,996.09375,4624,-2.83507050889025,-15424,-9.45677498467198,-1920,1.17719190680564,-7,2.98780487804878,-49,0.426829268292683,-10,0.609756097560976,-77,0.334782608695652,40,0.173913043478261,129,-0.629268292682927,
8631478,1015.625,4704,-2.88412017167382,-15408,-9.44696505211527,-1872,1.1477621091355,-25,2.80487804878049,-46,1.52439024390244,-7,0.426829268292683,-77,0.334782608695652,40,0.173913043478261,130,-0.634146341463415,
8632118,1035.15625,4832,-2.96259963212753,-15472,-9.48620478234212,-1840,1.12814224402207,-19,3.17073170731707,-52,1.15853658536585,-5,0.304878048780488,-75,0.326086956521739,37,0.160869565217391,131,-0.639024390243902,
8632758,1054.6875,4960,-3.04107909258124,-15504,-9.50582464745555,-1792,1.09871244635193,-2,3.47560975609756,-57,0.121951219512195,-4,0.24390243902439,-75,0.326086956521739,40,0.173913043478261,129,-0.629268292682927,
8633398,1074.21875,4864,-2.98221949724096,-15392,-9.43715511955855,-1840,1.12814224402207,9,3.35365853658537,-55,-0.548780487804878,-1,0.0609756097560976,-78,0.339130434782609,41,0.178260869565217,128,-0.624390243902439,
8634038,1093.75,4816,-2.95278969957082,-15360,-9.41753525444513,-1824,1.11833231146536,23,3.10975609756098,-51,-1.40243902439024,-7,0.426829268292683,-77,0.334782608695652,39,0.169565217391304,129,-0.629268292682927,
8634678,1113.28125,4784,-2.93316983445739,-15408,-9.44696505211527,-1776,1.08890251379522,26,3.10975609756098,-51,-1.58536585365854,-11,0.670731707317073,-77,0.334782608695652,39,0.169565217391304,131,-0.639024390243902,
8635318,1132.8125,4784,-2.93316983445739,-15408,-9.44696505211527,-1760,1.0790925812385,28,2.92682926829268,-48,-1.70731707317073,-12,0.731707317073171,-77,0.334782608695652,39,0.169565217391304,130,-0.634146341463415,
8635958,1152.34375,4720,-2.89393010423053,-15376,-9.42734518700184,-1760,1.0790925812385,26,2.80487804878049,-46,-1.58536585365854,-12,0.731707317073171,-77,0.334782608695652,37,0.160869565217391,131,-0.639024390243902,
8636598,1171.875,4672,-2.86450030656039,-15520,-9.51563458001226,-1792,1.09871244635193,23,2.68292682926829,-44,-1.40243902439024,-8,0.487804878048781,-76,0.330434782608696,41,0.178260869565217,131,-0.639024390243902,
8637238,1191.40625,4704,-2.88412017167382,-15456,-9.47639484978541,-1744,1.06928264868179,24,2.5609756097561,-42,-1.46341463414634,-4,0.24390243902439,-76,0.330434782608696,37,0.160869565217391,130,-0.634146341463415,
8637878,1210.9375,4640,-2.84488044144697,-15440,-9.46658491722869,-1744,1.06928264868179,16,2.4390243902439,-40,-0.975609756097561,-1,0.0609756097560976,-75,0.326086956521739,38,0.165217391304348,130,-0.634146341463415,
8638518,1230.46875,4544,-2.78602084610668,-15392,-9.43715511955855,-1824,1.11833231146536,-7,2.68292682926829,-44,0.426829268292683,0,0,-77,0.334782608695652,42,0.182608695652174,130,-0.634146341463415,
8639158,1250,4608,-2.82526057633354,-15344,-9.40772532188841,-1840,1.12814224402207,-28,2.68292682926829,-44,1.70731707317073,0,0,-76,0.330434782608696,41,0.178260869565217,131,-0.639024390243902,
8639798,1269.53125,4656,-2.85469037400368,-15344,-9.40772532188841,-1888,1.15757204169221,-28,2.86585365853659,-47,1.70731707317073,0,0,-75,0.326086956521739,39,0.169565217391304,131,-0.639024390243902,
8640438,1289.0625,4736,-2.90374003678725,-15408,-9.44696505211527,-1872,1.1477621091355,-29,2.92682926829268,-48,1.76829268292683,6,-0.365853658536585,-76,0.330434782608696,37,0.160869565217391,130,-0.634146341463415,
8641078,1308.59375,4784,-2.93316983445739,-15376,-9.42734518700184,-1888,1.15757204169221,-21,2.92682926829268,-48,1.28048780487805,5,-0.304878048780488,-76,0.330434782608696,40,0.173913043478261,129,-0.629268292682927,
8641718,1328.125,4864,-2.98221949724096,-15424,-9.45677498467198,-1936,1.18700183936235,-16,2.98780487804878,-49,0.975609756097561,2,-0.121951219512195,-78,0.339130434782609,42,0.182608695652174,129,-0.629268292682927,
8642358,1347.65625,4864,-2.98221949724096,-15440,-9.46658491722869,-1856,1.13795217657879,-7,2.80487804878049,-46,0.426829268292683,1,-0.0609756097560976,-75,0.326086956521739,38,0.165217391304348,131,-0.639024390243902,
8642998,1367.1875,4880,-2.99202942979767,-15440,-9.46658491722869,-1824,1.11833231146536,3,2.80487804878049,-46,-0.182926829268293,4,-0.24390243902439,-76,0.330434782608696,39,0.169565217391304,130,-0.634146341463415,
8643638,1386.71875,4848,-2.97240956468424,-15376,-9.42734518700184,-1776,1.08890251379522,10,2.86585365853659,-47,-0.609756097560976,4,-0.24390243902439,-75,0.326086956521739,41,0.178260869565217,130,-0.634146341463415,
8644278,1406.25,4928,-3.02145922746781,-15360,-9.41753525444513,-1776,1.08890251379522,29,2.74390243902439,-45,-1.76829268292683,5,-0.304878048780488,-75,0.326086956521739,41,0.178260869565217,129,-0.629268292682927,
8644918,1425.78125,4864,-2.98221949724096,-15440,-9.46658491722869,-1744,1.06928264868179,51,2.31707317073171,-38,-3.10975609756098,2,-0.121951219512195,-77,0.334782608695652,36,0.156521739130435,131,-0.639024390243902,
8645558,1445.3125,4880,-2.99202942979767,-15440,-9.46658491722869,-1776,1.08890251379522,63,2.13414634146341,-35,-3.84146341463415,3,-0.182926829268293,-78,0.339130434782609,40,0.173913043478261,129,-0.629268292682927,
8646198,1464.84375,4768,-2.92335990190067,-15392,-9.43715511955855,-1792,1.09871244635193,67,2.01219512195122,-33,-4.08536585365854,4,-0.24390243902439,-75,0.326086956521739,39,0.169565217391304,129,-0.629268292682927,
8646838,1484.375,4704,-2.88412017167382,-15408,-9.44696505211527,-1856,1.13795217657879,58,1.89024390243902,-31,-3.53658536585366,4,-0.24390243902439,-75,0.326086956521739,37,0.160869565217391,130,-0.634146341463415,
8647478,1503.90625,4704,-2.88412017167382,-15360,-9.41753525444513,-1872,1.1477621091355,51,2.01219512195122,-33,-3.10975609756098,4,-0.24390243902439,-75,0.326086956521739,40,0.173913043478261,129,-0.629268292682927,
8648118,1523.4375,4624,-2.83507050889025,-15360,-9.41753525444513,-1936,1.18700183936235,49,1.89024390243902,-31,-2.98780487804878,5,-0.304878048780488,-76,0.330434782608696,41,0.178260869565217,129,-0.629268292682927,
8648758,1542.96875,4672,-2.86450030656039,-15360,-9.41753525444513,-1904,1.16738197424893,44,2.01219512195122,-33,-2.68292682926829,7,-0.426829268292683,-76,0.330434782608696,36,0.156521739130435,130,-0.634146341463415,
8649398,1562.5,4608,-2.82526057633354,-15424,-9.45677498467198,-1920,1.17719190680564,45,2.01219512195122,-33,-2.74390243902439,8,-0.487804878048781,-75,0.326086956521739,41,0.178260869565217,128,-0.624390243902439,
8650038,1582.03125,4672,-2.86450030656039,-15456,-9.47639484978541,-1984,1.2164316370325,40,2.25609756097561,-37,-2.4390243902439,10,-0.609756097560976,-75,0.326086956521739,40,0.173913043478261,129,-0.629268292682927,
8650678,1601.5625,4720,-2.89393010423053,-15472,-9.48620478234212,-1856,1.13795217657879,32,2.19512195121951,-36,-1.95121951219512,15,-0.914634146341463,-76,0.330434782608696,40,0.173913043478261,128,-0.624390243902439,
8651318,1621.09375,4688,-2.87431023911711,-15440,-9.46658491722869,-1952,1.19681177191907,34,2.37804878048781,-39,-2.07317073170732,8,-0.487804878048781,-75,0.326086956521739,39,0.169565217391304,130,-0.634146341463415,
8651958,1640.625,4576,-2.80564071122011,-15392,-9.43715511955855,-1904,1.16738197424893,24,2.19512195121951,-36,-1.46341463414634,-1,0.0609756097560976,-73,0.317391304347826,39,0.169565217391304,130,-0.634146341463415,
8652598,1660.15625,4688,-2.87431023911711,-15424,-9.45677498467198,-1856,1.13795217657879,16,1.95121951219512,-32,-0.975609756097561,4,-0.24390243902439,-74,0.321739130434783,42,0.182608695652174,128,-0.624390243902439,
8653238,1679.6875,4720,-2.89393010423053,-15552,-9.53525444512569,-1952,1.19681177191907,32,2.37804878048781,-39,-1.95121951219512,10,-0.609756097560976,-74,0.321739130434783,41,0.178260869565217,128,-0.624390243902439,
8653878,1699.21875,4704,-2.88412017167382,-15520,-9.51563458001226,-1920,1.17719190680564,37,2.74390243902439,-45,-2.25609756097561,9,-0.548780487804878,-77,0.334782608695652,41,0.178260869565217,130,-0.634146341463415,
8654518,1718.75,4672,-2.86450030656039,-15440,-9.46658491722869,-1904,1.16738197424893,30,2.80487804878049,-46,-1.82926829268293,6,-0.365853658536585,-75,0.326086956521739,43,0.18695652173913,128,-0.624390243902439,
8655158,1738.28125,4656,-2.85469037400368,-15344,-9.40772532188841,-1824,1.11833231146536,24,2.5609756097561,-42,-1.46341463414634,-2,0.121951219512195,-74,0.321739130434783,39,0.169565217391304,129,-0.629268292682927,
8655798,1757.8125,4704,-2.88412017167382,-15344,-9.40772532188841,-1840,1.12814224402207,29,2.5,-41,-1.76829268292683,-12,0.731707317073171,-73,0.317391304347826,37,0.160869565217391,130,-0.634146341463415,
8656438,1777.34375,4720,-2.89393010423053,-15376,-9.42734518700184,-1840,1.12814224402207,34,2.13414634146341,-35,-2.07317073170732,-11,0.670731707317073,-74,0.321739130434783,37,0.160869565217391,129,-0.629268292682927,
8657078,1796.875,4704,-2.88412017167382,-15376,-9.42734518700184,-1824,1.11833231146536,48,2.25609756097561,-37,-2.92682926829268,-6,0.365853658536585,-75,0.326086956521739,40,0.173913043478261,130,-0.634146341463415,
8657718,1816.40625,4624,-2.83507050889025,-15472,-9.48620478234212,-1904,1.16738197424893,49,1.95121951219512,-32,-2.98780487804878,-2,0.121951219512195,-73,0.317391304347826,37,0.160869565217391,129,-0.629268292682927,
8658358,1835.9375,4688,-2.87431023911711,-15424,-9.45677498467198,-1840,1.12814224402207,53,1.95121951219512,-32,-3.23170731707317,1,-0.0609756097560976,-75,0.326086956521739,38,0.165217391304348,130,-0.634146341463415,
8658998,1855.46875,4640,-2.84488044144697,-15376,-9.42734518700184,-1888,1.15757204169221,62,1.82926829268293,-30,-3.78048780487805,-1,0.0609756097560976,-75,0.326086956521739,40,0.173913043478261,130,-0.634146341463415,
8659638,1875,4512,-2.76640098099326,-15376,-9.42734518700184,-1840,1.12814224402207,46,1.95121951219512,-32,-2.80487804878049,-11,0.670731707317073,-75,0.326086956521739,40,0.173913043478261,130,-0.634146341463415,
8660278,1894.53125,4592,-2.81545064377682,-15424,-9.45677498467198,-1856,1.13795217657879,34,1.95121951219512,-32,-2.07317073170732,-12,0.731707317073171,-73,0.317391304347826,38,0.165217391304348,129,-0.629268292682927,
8660918,1914.0625,4624,-2.83507050889025,-15488,-9.49601471489883,-1872,1.1477621091355,36,2.25609756097561,-37,-2.19512195121951,-9,0.548780487804878,-74,0.321739130434783,39,0.169565217391304,128,-0.624390243902439,
8661558,1933.59375,4592,-2.81545064377682,-15472,-9.48620478234212,-1920,1.17719190680564,33,2.07317073170732,-34,-2.01219512195122,-6,0.365853658536585,-74,0.321739130434783,40,0.173913043478261,128,-0.624390243902439,
8662198,1953.125,4576,-2.80564071122011,-15488,-9.49601471489883,-1984,1.2164316370325,34,2.6219512195122,-43,-2.07317073170732,-2,0.121951219512195,-73,0.317391304347826,41,0.178260869565217,129,-0.629268292682927,
8662838,1972.65625,4560,-2.7958307786634,-15472,-9.48620478234212,-1872,1.1477621091355,31,2.74390243902439,-45,-1.89024390243902,-2,0.121951219512195,-74,0.321739130434783,39,0.169565217391304,130,-0.634146341463415,
8663478,1992.1875,4560,-2.7958307786634,-15424,-9.45677498467198,-1888,1.15757204169221,25,2.92682926829268,-48,-1.52439024390244,-4,0.24390243902439,-75,0.326086956521739,40,0.173913043478261,128,-0.624390243902439,
8664118,2011.71875,4608,-2.82526057633354,-15472,-9.48620478234212,-1840,1.12814224402207,19,3.10975609756098,-51,-1.15853658536585,-7,0.426829268292683,-75,0.326086956521739,39,0.169565217391304,130,-0.634146341463415,
8664758,2031.25,4608,-2.82526057633354,-15392,-9.43715511955855,-1856,1.13795217657879,16,3.17073170731707,-52,-0.975609756097561,-4,0.24390243902439,-73,0.317391304347826,38,0.165217391304348,129,-0.629268292682927,
8665398,2050.78125,4624,-2.83507050889025,-15440,-9.46658491722869,-1824,1.11833231146536,14,3.35365853658537,-55,-0.853658536585366,-3,0.182926829268293,-75,0.326086956521739,38,0.165217391304348,130,-0.634146341463415,
8666038,2070.3125,4608,-2.82526057633354,-15440,-9.46658491722869,-1872,1.1477621091355,13,3.29268292682927,-54,-0.792682926829268,-7,0.426829268292683,-74,0.321739130434783,39,0.169565217391304,129,-0.629268292682927,
8666678,2089.84375,4496,-2.75659104843654,-15408,-9.44696505211527,-1776,1.08890251379522,12,3.35365853658537,-55,-0.731707317073171,-9,0.548780487804878,-74,0.321739130434783,37,0.160869565217391,129,-0.629268292682927,
8667318,2109.375,4576,-2.80564071122011,-15360,-9.41753525444513,-1776,1.08890251379522,8,3.47560975609756,-57,-0.487804878048781,-11,0.670731707317073,-75,0.326086956521739,41,0.178260869565217,129,-0.629268292682927,
8667958,2128.90625,4480,-2.74678111587983,-15440,-9.46658491722869,-1824,1.11833231146536,11,3.29268292682927,-54,-0.670731707317073,-8,0.487804878048781,-75,0.326086956521739,42,0.182608695652174,128,-0.624390243902439,
8668598,2148.4375,4480,-2.74678111587983,-15424,-9.45677498467198,-1840,1.12814224402207,7,3.23170731707317,-53,-0.426829268292683,-4,0.24390243902439,-74,0.321739130434783,42,0.182608695652174,130,-0.634146341463415,
8669238,2167.96875,4480,-2.74678111587983,-15424,-9.45677498467198,-1840,1.12814224402207,1,3.17073170731707,-52,-0.0609756097560976,-4,0.24390243902439,-73,0.317391304347826,40,0.173913043478261,128,-0.624390243902439,
8669878,2187.5,4464,-2.73697118332311,-15424,-9.45677498467198,-1904,1.16738197424893,-11,3.23170731707317,-53,0.670731707317073,3,-0.182926829268293,-74,0.321739130434783,39,0.169565217391304,130,-0.634146341463415,
8670518,2207.03125,4464,-2.73697118332311,-15392,-9.43715511955855,-1904,1.16738197424893,-24,3.47560975609756,-57,1.46341463414634,4,-0.24390243902439,-74,0.321739130434783,42,0.182608695652174,128,-0.624390243902439,
8671158,2226.5625,4512,-2.76640098099326,-15472,-9.48620478234212,-1808,1.10852237890864,-30,3.10975609756098,-51,1.82926829268293,8,-0.487804878048781,-76,0.330434782608696,42,0.182608695652174,128,-0.624390243902439,
8671798,2246.09375,4528,-2.77621091354997,-15440,-9.46658491722869,-1952,1.19681177191907,-21,3.59756097560976,-59,1.28048780487805,10,-0.609756097560976,-73,0.317391304347826,38,0.165217391304348,129,-0.629268292682927,
8672438,2265.625,4544,-2.78602084610668,-15440,-9.46658491722869,-1904,1.16738197424893,-32,3.35365853658537,-55,1.95121951219512,7,-0.426829268292683,-72,0.31304347826087,41,0.178260869565217,128,-0.624390243902439,
8673078,2285.15625,4544,-2.78602084610668,-15408,-9.44696505211527,-1808,1.10852237890864,-49,3.53658536585366,-58,2.98780487804878,0,0,-73,0.317391304347826,41,0.178260869565217,128,-0.624390243902439,
8673718,2304.6875,4656,-2.85469037400368,-15488,-9.49601471489883,-1952,1.19681177191907,-49,3.53658536585366,-58,2.98780487804878,5,-0.304878048780488,-75,0.326086956521739,40,0.173913043478261,129,-0.629268292682927,
8674358,2324.21875,4736,-2.90374003678725,-15520,-9.51563458001226,-1936,1.18700183936235,-31,4.02439024390244,-66,1.89024390243902,6,-0.365853658536585,-75,0.326086956521739,39,0.169565217391304,129,-0.629268292682927,
8674998,2343.75,4592,-2.81545064377682,-15456,-9.47639484978541,-1840,1.12814224402207,-23,4.20731707317073,-69,1.40243902439024,8,-0.487804878048781,-75,0.326086956521739,43,0.18695652173913,128,-0.624390243902439,
8675638,2363.28125,4640,-2.84488044144697,-15392,-9.43715511955855,-1888,1.15757204169221,-29,4.02439024390244,-66,1.76829268292683,4,-0.24390243902439,-72,0.31304347826087,38,0.165217391304348,129,-0.629268292682927,
8676278,2382.8125,4624,-2.83507050889025,-15360,-9.41753525444513,-1936,1.18700183936235,-27,3.96341463414634,-65,1.64634146341463,-5,0.304878048780488,-75,0.326086956521739,38,0.165217391304348,130,-0.634146341463415,
8676918,2402.34375,4704,-2.88412017167382,-15408,-9.44696505211527,-1872,1.1477621091355,-24,3.78048780487805,-62,1.46341463414634,-12,0.731707317073171,-75,0.326086956521739,40,0.173913043478261,129,-0.629268292682927,
8677558,2421.875,4656,-2.85469037400368,-15440,-9.46658491722869,-1936,1.18700183936235,-15,3.71951219512195,-61,0.914634146341463,-14,0.853658536585366,-73,0.317391304347826,37,0.160869565217391,129,-0.629268292682927,
8678198,2441.40625,4656,-2.85469037400368,-15408,-9.44696505211527,-1920,1.17719190680564,-1,3.71951219512195,-61,0.0609756097560976,-12,0.731707317073171,-74,0.321739130434783,37,0.160869565217391,131,-0.639024390243902,
8678838,2460.9375,4592,-2.81545064377682,-15424,-9.45677498467198,-1856,1.13795217657879,5,3.47560975609756,-57,-0.304878048780488,-13,0.792682926829268,-74,0.321739130434783,41,0.178260869565217,130,-0.634146341463415,
8679478,2480.46875,4592,-2.81545064377682,-15376,-9.42734518700184,-1936,1.18700183936235,4,3.41463414634146,-56,-0.24390243902439,-11,0.670731707317073,-77,0.334782608695652,40,0.173913043478261,130,-0.634146341463415,
8680118,2500,4512,-2.76640098099326,-15392,-9.43715511955855,-1904,1.16738197424893,-6,3.53658536585366,-58,0.365853658536585,-14,0.853658536585366,-76,0.330434782608696,42,0.182608695652174,129,-0.629268292682927,
8680758,2519.53125,4592,-2.81545064377682,-15440,-9.46658491722869,-1936,1.18700183936235,-10,3.35365853658537,-55,0.609756097560976,-15,0.914634146341463,-75,0.326086956521739,38,0.165217391304348,129,-0.629268292682927,
8681398,2539.0625,4624,-2.83507050889025,-15408,-9.44696505211527,-1872,1.1477621091355,-11,3.35365853658537,-55,0.670731707317073,-16,0.975609756097561,-74,0.321739130434783,40,0.173913043478261,128,-0.624390243902439,
8682038,2558.59375,4576,-2.80564071122011,-15472,-9.48620478234212,-1904,1.16738197424893,-14,3.65853658536585,-60,0.853658536585366,-15,0.914634146341463,-73,0.317391304347826,40,0.173913043478261,128,-0.624390243902439,
8682678,2578.125,4592,-2.81545064377682,-15488,-9.49601471489883,-2000,1.22624156958921,-16,3.84146341463415,-63,0.975609756097561,-17,1.03658536585366,-74,0.321739130434783,38,0.165217391304348,130,-0.634146341463415,
8683318,2597.65625,4512,-2.76640098099326,-15488,-9.49601471489883,-1904,1.16738197424893,-16,3.65853658536585,-60,0.975609756097561,-12,0.731707317073171,-75,0.326086956521739,39,0.169565217391304,129,-0.629268292682927,
8683958,2617.1875,4656,-2.85469037400368,-15504,-9.50582464745555,-1920,1.17719190680564,-20,3.65853658536585,-60,1.21951219512195,-18,1.09756097560976,-74,0.321739130434783,40,0.173913043478261,129,-0.629268292682927,
8684598,2636.71875,4624,-2.83507050889025,-15488,-9.49601471489883,-1936,1.18700183936235,-14,3.71951219512195,-61,0.853658536585366,-18,1.09756097560976,-73,0.317391304347826,40,0.173913043478261,129,-0.629268292682927,
8685238,2656.25,4592,-2.81545064377682,-15456,-9.47639484978541,-1968,1.20662170447578,-12,3.59756097560976,-59,0.731707317073171,-20,1.21951219512195,-75,0.326086956521739,38,0.165217391304348,130,-0.634146341463415,
8685878,2675.78125,4592,-2.81545064377682,-15472,-9.48620478234212,-1872,1.1477621091355,-12,3.78048780487805,-62,0.731707317073171,-17,1.03658536585366,-75,0.326086956521739,38,0.165217391304348,129,-0.629268292682927,
8686518,2695.3125,4624,-2.83507050889025,-15424,-9.45677498467198,-1936,1.18700183936235,-6,3.65853658536585,-60,0.365853658536585,-16,0.975609756097561,-75,0.326086956521739,42,0.182608695652174,129,-0.629268292682927,
8687158,2714.84375,4608,-2.82526057633354,-15488,-9.49601471489883,-1968,1.20662170447578,3,3.59756097560976,-59,-0.182926829268293,-15,0.914634146341463,-73,0.317391304347826,37,0.160869565217391,130,-0.634146341463415,
8687798,2734.375,4528,-2.77621091354997,-15472,-9.48620478234212,-1984,1.2164316370325,0,3.41463414634146,-56,0,-16,0.975609756097561,-75,0.326086956521739,43,0.18695652173913,130,-0.634146341463415,
8688438,2753.90625,4544,-2.78602084610668,-15392,-9.43715511955855,-2000,1.22624156958921,-9,3.47560975609756,-57,0.548780487804878,-18,1.09756097560976,-75,0.326086956521739,42,0.182608695652174,128,-0.624390243902439,
8689078,2773.4375,4592,-2.81545064377682,-15472,-9.48620478234212,-1936,1.18700183936235,-18,3.59756097560976,-59,1.09756097560976,-17,1.03658536585366,-76,0.330434782608696,37,0.160869565217391,130,-0.634146341463415,
8689718,2792.96875,4544,-2.78602084610668,-15472,-9.48620478234212,-1968,1.20662170447578,-26,3.35365853658537,-55,1.58536585365854,-17,1.03658536585366,-75,0.326086956521739,40,0.173913043478261,129,-0.629268292682927,
8690358,2812.5,4560,-2.7958307786634,-15472,-9.48620478234212,-1936,1.18700183936235,-39,3.53658536585366,-58,2.37804878048781,-15,0.914634146341463,-75,0.326086956521739,40,0.173913043478261,128,-0.624390243902439,
8690998,2832.03125,4528,-2.77621091354997,-15360,-9.41753525444513,-1856,1.13795217657879,-44,3.23170731707317,-53,2.68292682926829,-12,0.731707317073171,-74,0.321739130434783,41,0.178260869565217,130,-0.634146341463415,
8691638,2851.5625,4576,-2.80564071122011,-15376,-9.42734518700184,-1936,1.18700183936235,-39,3.47560975609756,-57,2.37804878048781,-7,0.426829268292683,-74,0.321739130434783,43,0.18695652173913,130,-0.634146341463415,
8692278,2871.09375,4608,-2.82526057633354,-15440,-9.46658491722869,-1920,1.17719190680564,-43,3.41463414634146,-56,2.6219512195122,-3,0.182926829268293,-74,0.321739130434783,37,0.160869565217391,130,-0.634146341463415,
8692918,2890.625,4672,-2.86450030656039,-15424,-9.45677498467198,-2032,1.24586143470264,-41,3.41463414634146,-56,2.5,1,-0.0609756097560976,-75,0.326086956521739,41,0.178260869565217,129,-0.629268292682927,
8693558,2910.15625,4608,-2.82526057633354,-15424,-9.45677498467198,-1968,1.20662170447578,-34,3.29268292682927,-54,2.07317073170732,-5,0.304878048780488,-76,0.330434782608696,40,0.173913043478261,127,-0.619512195121951,
8694198,2929.6875,4592,-2.81545064377682,-15424,-9.45677498467198,-1920,1.17719190680564,-45,3.29268292682927,-54,2.74390243902439,-6,0.365853658536585,-76,0.330434782608696,38,0.165217391304348,130,-0.634146341463415,
8694838,2949.21875,4704,-2.88412017167382,-15504,-9.50582464745555,-1968,1.20662170447578,-51,3.10975609756098,-51,3.10975609756098,0,0,-77,0.334782608695652,38,0.165217391304348,130,-0.634146341463415,
8695478,2968.75,4752,-2.91354996934396,-15536,-9.52544451256898,-2048,1.25567136725935,-45,3.71951219512195,-61,2.74390243902439,5,-0.304878048780488,-75,0.326086956521739,39,0.169565217391304,129,-0.629268292682927,
8696118,2988.28125,4736,-2.90374003678725,-15440,-9.46658491722869,-1968,1.20662170447578,-33,3.71951219512195,-61,2.01219512195122,5,-0.304878048780488,-75,0.326086956521739,37,0.160869565217391,129,-0.629268292682927,
8696758,3007.8125,4720,-2.89393010423053,-15344,-9.40772532188841,-1920,1.17719190680564,-28,3.59756097560976,-59,1.70731707317073,4,-0.24390243902439,-75,0.326086956521739,43,0.18695652173913,129,-0.629268292682927,
8697398,3027.34375,4704,-2.88412017167382,-15344,-9.40772532188841,-1872,1.1477621091355,-22,3.23170731707317,-53,1.34146341463415,0,0,-75,0.326086956521739,41,0.178260869565217,130,-0.634146341463415,
8698038,3046.875,4688,-2.87431023911711,-15408,-9.44696505211527,-1776,1.08890251379522,-28,3.23170731707317,-53,1.70731707317073,-4,0.24390243902439,-74,0.321739130434783,38,0.165217391304348,130,-0.634146341463415,
8698678,3066.40625,4768,-2.92335990190067,-15408,-9.44696505211527,-1904,1.16738197424893,-19,2.86585365853659,-47,1.15853658536585,-6,0.365853658536585,-74,0.321739130434783,37,0.160869565217391,129,-0.629268292682927,
8699318,3085.9375,4768,-2.92335990190067,-15440,-9.46658491722869,-1824,1.11833231146536,-7,3.04878048780488,-50,0.426829268292683,-7,0.426829268292683,-76,0.330434782608696,41,0.178260869565217,131,-0.639024390243902,
8699958,3105.46875,4672,-2.86450030656039,-15392,-9.43715511955855,-1888,1.15757204169221,3,2.86585365853659,-47,-0.182926829268293,-5,0.304878048780488,-75,0.326086956521739,41,0.178260869565217,129,-0.629268292682927,
8700598,3125,4656,-2.85469037400368,-15424,-9.45677498467198,-1936,1.18700183936235,6,2.37804878048781,-39,-0.365853658536585,-3,0.182926829268293,-74,0.321739130434783,37,0.160869565217391,131,-0.639024390243902,
8701238,3144.53125,4704,-2.88412017167382,-15408,-9.44696505211527,-1904,1.16738197424893,8,2.4390243902439,-40,-0.487804878048781,-5,0.304878048780488,-75,0.326086956521739,36,0.156521739130435,130,-0.634146341463415,
8701878,3164.0625,4640,-2.84488044144697,-15360,-9.41753525444513,-1872,1.1477621091355,-2,2.4390243902439,-40,0.121951219512195,-6,0.365853658536585,-75,0.326086956521739,40,0.173913043478261,129,-0.629268292682927,
8702518,3183.59375,4640,-2.84488044144697,-15440,-9.46658491722869,-1936,1.18700183936235,-3,2.6219512195122,-43,0.182926829268293,-6,0.365853658536585,-74,0.321739130434783,41,0.178260869565217,129,-0.629268292682927,
8703158,3203.125,4592,-2.81545064377682,-15440,-9.46658491722869,-1920,1.17719190680564,-3,2.6219512195122,-43,0.182926829268293,1,-0.0609756097560976,-76,0.330434782608696,41,0.178260869565217,130,-0.634146341463415,
8703798,3222.65625,4624,-2.83507050889025,-15504,-9.50582464745555,-1968,1.20662170447578,-6,2.80487804878049,-46,0.365853658536585,1,-0.0609756097560976,-76,0.330434782608696,43,0.18695652173913,128,-0.624390243902439,
8704438,3242.1875,4736,-2.90374003678725,-15440,-9.46658491722869,-2048,1.25567136725935,1,3.23170731707317,-53,-0.0609756097560976,0,0,-75,0.326086956521739,39,0.169565217391304,129,-0.629268292682927,
8705078,3261.71875,4736,-2.90374003678725,-15408,-9.44696505211527,-1952,1.19681177191907,-3,3.53658536585366,-58,0.182926829268293,-3,0.182926829268293,-74,0.321739130434783,39,0.169565217391304,130,-0.634146341463415,
8705718,3281.25,4704,-2.88412017167382,-15376,-9.42734518700184,-2000,1.22624156958921,0,3.41463414634146,-56,0,-5,0.304878048780488,-76,0.330434782608696,37,0.160869565217391,130,-0.634146341463415,
8706358,3300.78125,4640,-2.84488044144697,-15440,-9.46658491722869,-1888,1.15757204169221,-1,3.65853658536585,-60,0.0609756097560976,-10,0.609756097560976,-75,0.326086956521739,42,0.182608695652174,128,-0.624390243902439,
8706998,3320.3125,4736,-2.90374003678725,-15408,-9.44696505211527,-1872,1.1477621091355,7,3.78048780487805,-62,-0.426829268292683,-10,0.609756097560976,-75,0.326086956521739,41,0.178260869565217,128,-0.624390243902439,
8707638,3339.84375,4688,-2.87431023911711,-15424,-9.45677498467198,-1888,1.15757204169221,15,3.65853658536585,-60,-0.914634146341463,-9,0.548780487804878,-76,0.330434782608696,42,0.182608695652174,130,-0.634146341463415,
8708278,3359.375,4704,-2.88412017167382,-15408,-9.44696505211527,-1776,1.08890251379522,18,3.53658536585366,-58,-1.09756097560976,-9,0.548780487804878,-75,0.326086956521739,41,0.178260869565217,129,-0.629268292682927,
8708918,3378.90625,4640,-2.84488044144697,-15472,-9.48620478234212,-1856,1.13795217657879,15,3.53658536585366,-58,-0.914634146341463,-9,0.548780487804878,-75,0.326086956521739,37,0.160869565217391,130,-0.634146341463415,
8709558,3398.4375,4624,-2.83507050889025,-15376,-9.42734518700184,-1872,1.1477621091355,11,3.35365853658537,-55,-0.670731707317073,-7,0.426829268292683,-75,0.326086956521739,37,0.160869565217391,131,-0.639024390243902,
8710198,3417.96875,4560,-2.7958307786634,-15392,-9.43715511955855,-1936,1.18700183936235,6,3.10975609756098,-51,-0.365853658536585,-7,0.426829268292683,-77,0.334782608695652,39,0.169565217391304,129,-0.629268292682927,
8710838,3437.5,4576,-2.80564071122011,-15392,-9.43715511955855,-1952,1.19681177191907,0,3.29268292682927,-54,0,-6,0.365853658536585,-78,0.339130434782609,42,0.182608695652174,129,-0.629268292682927,
8711478,3457.03125,4560,-2.7958307786634,-15440,-9.46658491722869,-1920,1.17719190680564,-7,3.17073170731707,-52,0.426829268292683,-2,0.121951219512195,-74,0.321739130434783,37,0.160869565217391,130,-0.634146341463415,
8712118,3476.5625,4560,-2.7958307786634,-15440,-9.46658491722869,-1952,1.19681177191907,-23,3.10975609756098,-51,1.40243902439024,-2,0.121951219512195,-75,0.326086956521739,36,0.156521739130435,131,-0.639024390243902,
8712758,3496.09375,4624,-2.83507050889025,-15440,-9.46658491722869,-1888,1.15757204169221,-29,2.98780487804878,-49,1.76829268292683,0,0,-75,0.326086956521739,40,0.173913043478261,129,-0.629268292682927,
8713398,3515.625,4624,-2.83507050889025,-15424,-9.45677498467198,-2016,1.23605150214592,-29,3.17073170731707,-52,1.76829268292683,2,-0.121951219512195,-75,0.326086956521739,40,0.173913043478261,129,-0.629268292682927,
8714038,3535.15625,4672,-2.86450030656039,-15408,-9.44696505211527,-1920,1.17719190680564,-27,3.17073170731707,-52,1.64634146341463,3,-0.182926829268293,-77,0.334782608695652,39,0.169565217391304,131,-0.639024390243902,
8714678,3554.6875,4656,-2.85469037400368,-15520,-9.51563458001226,-1936,1.18700183936235,-11,3.35365853658537,-55,0.670731707317073,3,-0.182926829268293,-77,0.334782608695652,39,0.169565217391304,129,-0.629268292682927,
8715318,3574.21875,4624,-2.83507050889025,-15456,-9.47639484978541,-1984,1.2164316370325,-13,3.53658536585366,-58,0.792682926829268,-4,0.24390243902439,-74,0.321739130434783,38,0.165217391304348,129,-0.629268292682927,
8715958,3593.75,4656,-2.85469037400368,-15472,-9.48620478234212,-1984,1.2164316370325,-23,3.23170731707317,-53,1.40243902439024,-7,0.426829268292683,-74,0.321739130434783,36,0.156521739130435,129,-0.629268292682927,
8716598,3613.28125,4688,-2.87431023911711,-15440,-9.46658491722869,-1952,1.19681177191907,-15,3.41463414634146,-56,0.914634146341463,-1,0.0609756097560976,-75,0.326086956521739,38,0.165217391304348,130,-0.634146341463415,
8717238,3632.8125,4688,-2.87431023911711,-15520,-9.51563458001226,-2016,1.23605150214592,8,3.78048780487805,-62,-0.487804878048781,4,-0.24390243902439,-76,0.330434782608696,42,0.182608695652174,131,-0.639024390243902,
8717878,3652.34375,4656,-2.85469037400368,-15472,-9.48620478234212,-1984,1.2164316370325,2,3.53658536585366,-58,-0.121951219512195,3,-0.182926829268293,-74,0.321739130434783,36,0.156521739130435,130,-0.634146341463415,
8718518,3671.875,4576,-2.80564071122011,-15376,-9.42734518700184,-1904,1.16738197424893,-15,3.41463414634146,-56,0.914634146341463,3,-0.182926829268293,-75,0.326086956521739,41,0.178260869565217,128,-0.624390243902439,
8719158,3691.40625,4592,-2.81545064377682,-15328,-9.3979153893317,-1840,1.12814224402207,-22,3.23170731707317,-53,1.34146341463415,-4,0.24390243902439,-76,0.330434782608696,41,0.178260869565217,131,-0.639024390243902,
8719798,3710.9375,4576,-2.80564071122011,-15408,-9.44696505211527,-1904,1.16738197424893,-19,2.92682926829268,-48,1.15853658536585,0,0,-75,0.326086956521739,39,0.169565217391304,131,-0.639024390243902,
8720438,3730.46875,4656,-2.85469037400368,-15408,-9.44696505211527,-1872,1.1477621091355,-12,2.80487804878049,-46,0.731707317073171,-2,0.121951219512195,-74,0.321739130434783,36,0.156521739130435,130,-0.634146341463415,
8721078,3750,4624,-2.83507050889025,-15344,-9.40772532188841,-1952,1.19681177191907,-12,2.6219512195122,-43,0.731707317073171,3,-0.182926829268293,-75,0.326086956521739,41,0.178260869565217,130,-0.634146341463415,
8721718,3769.53125,4624,-2.83507050889025,-15456,-9.47639484978541,-1920,1.17719190680564,-10,2.5609756097561,-42,0.609756097560976,8,-0.487804878048781,-75,0.326086956521739,41,0.178260869565217,129,-0.629268292682927,
8722358,3789.0625,4672,-2.86450030656039,-15472,-9.48620478234212,-1952,1.19681177191907,-2,2.74390243902439,-45,0.121951219512195,8,-0.487804878048781,-77,0.334782608695652,42,0.182608695652174,130,-0.634146341463415,
8722998,3808.59375,4672,-2.86450030656039,-15392,-9.43715511955855,-1984,1.2164316370325,-1,2.68292682926829,-44,0.0609756097560976,1,-0.0609756097560976,-75,0.326086956521739,38,0.165217391304348,131,-0.639024390243902,
8723638,3828.125,4688,-2.87431023911711,-15408,-9.44696505211527,-1952,1.19681177191907,6,2.86585365853659,-47,-0.365853658536585,-4,0.24390243902439,-77,0.334782608695652,39,0.169565217391304,130,-0.634146341463415,
8724278,3847.65625,4720,-2.89393010423053,-15392,-9.43715511955855,-1968,1.20662170447578,17,3.10975609756098,-51,-1.03658536585366,-2,0.121951219512195,-73,0.317391304347826,39,0.169565217391304,130,-0.634146341463415,
8724918,3867.1875,4624,-2.83507050889025,-15472,-9.48620478234212,-2000,1.22624156958921,24,3.47560975609756,-57,-1.46341463414634,-3,0.182926829268293,-76,0.330434782608696,43,0.18695652173913,129,-0.629268292682927,
8725558,3886.71875,4656,-2.85469037400368,-15360,-9.41753525444513,-2032,1.24586143470264,16,3.35365853658537,-55,-0.975609756097561,-8,0.487804878048781,-77,0.334782608695652,37,0.160869565217391,131,-0.639024390243902,
8726198,3906.25,4672,-2.86450030656039,-15472,-9.48620478234212,-2016,1.23605150214592,18,3.84146341463415,-63,-1.09756097560976,-10,0.609756097560976,-75,0.326086956521739,42,0.182608695652174,130,-0.634146341463415,
8726838,3925.78125,4608,-2.82526057633354,-15456,-9.47639484978541,-1968,1.20662170447578,13,3.84146341463415,-63,-0.792682926829268,-10,0.609756097560976,-73,0.317391304347826,37,0.160869565217391,130,-0.634146341463415,
8727478,3945.3125,4624,-2.83507050889025,-15520,-9.51563458001226,-2000,1.22624156958921,2,3.90243902439024,-64,-0.121951219512195,-16,0.975609756097561,-74,0.321739130434783,38,0.165217391304348,130,-0.634146341463415,
8728118,3964.84375,4528,-2.77621091354997,-15504,-9.50582464745555,-1920,1.17719190680564,-11,3.84146341463415,-63,0.670731707317073,-17,1.03658536585366,-76,0.330434782608696,44,0.191304347826087,130,-0.634146341463415,
8728758,3984.375,4592,-2.81545064377682,-15424,-9.45677498467198,-1920,1.17719190680564,-20,4.14634146341463,-68,1.21951219512195,-22,1.34146341463415,-76,0.330434782608696,42,0.182608695652174,130,-0.634146341463415,
8729398,4003.90625,4592,-2.81545064377682,-15392,-9.43715511955855,-1856,1.13795217657879,-14,3.59756097560976,-59,0.853658536585366,-19,1.15853658536585,-74,0.321739130434783,39,0.169565217391304,131,-0.639024390243902,
8730038,4023.4375,4656,-2.85469037400368,-15344,-9.40772532188841,-1888,1.15757204169221,6,2.80487804878049,-46,-0.365853658536585,-13,0.792682926829268,-75,0.326086956521739,36,0.156521739130435,130,-0.634146341463415,
8730678,4042.96875,4944,-3.03126916002452,-15248,-9.34886572654813,-1936,1.18700183936235,76,1.15853658536585,-19,-4.63414634146342,2,-0.121951219512195,-74,0.321739130434783,41,0.178260869565217,129,-0.629268292682927,
8731318,4062.5,5296,-3.24708767627223,-15344,-9.40772532188841,-2016,1.23605150214592,222,-0.609756097560976,10,-13.5365853658537,33,-2.01219512195122,-74,0.321739130434783,40,0.173913043478261,130,-0.634146341463415,
8731958,4082.03125,5504,-3.3746167995095,-15424,-9.45677498467198,-2256,1.38320049049663,395,-1.09756097560976,18,-24.0853658536585,59,-3.59756097560976,-75,0.326086956521739,37,0.160869565217391,131,-0.639024390243902,
8732598,4101.5625,5456,-3.34518700183936,-15456,-9.47639484978541,-2352,1.44206008583691,509,-1.52439024390244,25,-31.0365853658537,62,-3.78048780487805,-74,0.321739130434783,40,0.173913043478261,130,-0.634146341463415,
8733238,4121.09375,5104,-3.12936848559166,-15328,-9.3979153893317,-2160,1.32434089515635,555,-1.76829268292683,29,-33.8414634146341,43,-2.6219512195122,-73,0.317391304347826,41,0.178260869565217,128,-0.624390243902439,
8733878,4140.625,5344,-3.27651747394237,-15424,-9.45677498467198,-2352,1.44206008583691,595,-0.548780487804878,9,-36.280487804878,36,-2.19512195121951,-73,0.317391304347826,41,0.178260869565217,127,-0.619512195121951,
8734518,4160.15625,5040,-3.09012875536481,-15456,-9.47639484978541,-2544,1.55977927651747,604,0.548780487804878,-9,-36.8292682926829,23,-1.40243902439024,-71,0.308695652173913,38,0.165217391304348,129,-0.629268292682927,
8735158,4179.6875,4864,-2.98221949724096,-15056,-9.23114653586757,-2800,1.71673819742489,549,3.29268292682927,-54,-33.4756097560976,15,-0.914634146341463,-70,0.304347826086957,40,0.173913043478261,129,-0.629268292682927,
8735798,4199.21875,4896,-3.00183936235438,-15552,-9.53525444512569,-3168,1.94236664622931,425,3.84146341463415,-63,-25.9146341463415,-11,0.670731707317073,-71,0.308695652173913,41,0.178260869565217,129,-0.629268292682927,
8736438,4218.75,5136,-3.14898835070509,-15648,-9.59411404046597,-3440,2.10913549969344,365,7.25609756097561,-119,-22.2560975609756,-47,2.86585365853659,-71,0.308695652173913,39,0.169565217391304,128,-0.624390243902439,
8737078,4238.28125,5872,-3.60024524831392,-15584,-9.55487431023912,-3408,2.08951563458001,459,9.02439024390244,-148,-27.9878048780488,-54,3.29268292682927,-70,0.304347826086957,43,0.18695652173913,129,-0.629268292682927,
8737718,4257.8125,6320,-3.8749233599019,-15648,-9.59411404046597,-3840,2.35438381361128,716,11.9512195121951,-196,-43.6585365853659,-54,3.29268292682927,-69,0.3,41,0.178260869565217,129,-0.629268292682927,
8738358,4277.34375,6384,-3.91416309012876,-15728,-9.64316370324954,-4496,2.75659104843654,976,15.5487804878049,-255,-59.5121951219512,-63,3.84146341463415,-70,0.304347826086957,42,0.182608695652174,128,-0.624390243902439,
8738998,4296.875,6368,-3.90435315757204,-15776,-9.67259350091968,-5088,3.11955855303495,1165,20.6707317073171,-339,-71.0365853658537,-78,4.75609756097561,-66,0.28695652173913,37,0.160869565217391,129,-0.629268292682927,
8739638,4316.40625,6336,-3.88473329245861,-15872,-9.73145309625996,-5664,3.47271612507664,1296,25.8536585365854,-424,-79.0243902439024,-74,4.51219512195122,-64,0.278260869565217,39,0.169565217391304,127,-0.619512195121951,
8740278,4335.9375,6192,-3.79644389944819,-15936,-9.77069282648682,-6416,3.93378295524218,1353,30.9756097560976,-508,-82.5,-60,3.65853658536585,-63,0.273913043478261,42,0.182608695652174,128,-0.624390243902439,
8740918,4355.46875,6080,-3.7277743715512,-16224,-9.94727161250766,-7104,4.35561005518087,1359,37.9268292682927,-622,-82.8658536585366,-62,3.78048780487805,-63,0.273913043478261,37,0.160869565217391,128,-0.624390243902439,
8741558,4375,5984,-3.66891477621091,-16256,-9.96689147762109,-7712,4.72838749233599,1401,45.0609756097561,-739,-85.4268292682927,-80,4.87804878048781,-61,0.265217391304348,35,0.152173913043478,130,-0.634146341463415,
8742198,4394.53125,5376,-3.29613733905579,-16352,-10.0257510729614,-8192,5.0226854690374,1384,53.5365853658537,-878,-84.390243902439,-69,4.20731707317073,-58,0.252173913043478,37,0.160869565217391,129,-0.629268292682927,
8742838,4414.0625,4928,-3.02145922746781,-16480,-10.1042305334151,-8416,5.16002452483139,1206,60,-984,-73.5365853658537,-88,5.36585365853659,-56,0.243478260869565,35,0.152173913043478,131,-0.639024390243902,
8743478,4433.59375,4624,-2.83507050889025,-16752,-10.2709993868792,-8544,5.2385039852851,991,66.1585365853659,-1085,-60.4268292682927,-100,6.09756097560976,-55,0.239130434782609,33,0.143478260869565,132,-0.64390243902439,
8744118,4453.125,4464,-2.73697118332311,-16864,-10.3396689147762,-8560,5.24831391784181,808,72.3780487804878,-1187,-49.2682926829268,-129,7.86585365853659,-54,0.234782608695652,32,0.139130434782609,132,-0.64390243902439,
8744758,4472.65625,4480,-2.74678111587983,-16768,-10.2808093194359,-8720,5.34641324340895,654,77.6219512195122,-1273,-39.8780487804878,-185,11.280487804878,-52,0.226086956521739,29,0.126086956521739,134,-0.653658536585366,
8745398,4492.1875,4592,-2.81545064377682,-16752,-10.2709993868792,-8800,5.39546290619252,529,82.3170731707317,-1350,-32.2560975609756,-242,14.7560975609756,-53,0.230434782608696,30,0.130434782608696,135,-0.658536585365854,
8746038,4511.71875,4864,-2.98221949724096,-16832,-10.3200490496628,-8944,5.48375229920294,488,86.8292682926829,-1424,-29.7560975609756,-317,19.3292682926829,-53,0.230434782608696,32,0.139130434782609,138,-0.673170731707317,
8746678,4531.25,4864,-2.98221949724096,-16736,-10.2611894543225,-9296,5.69957081545064,470,92.0731707317073,-1510,-28.6585365853659,-370,22.5609756097561,-52,0.226086956521739,26,0.11304347826087,139,-0.678048780487805,
8747318,4550.78125,4768,-2.92335990190067,-16608,-10.1827099938688,-9328,5.71919068056407,383,96.9512195121951,-1590,-23.3536585365854,-420,25.609756097561,-51,0.221739130434783,27,0.117391304347826,139,-0.678048780487805,
8747958,4570.3125,4912,-3.0116492949111,-16112,-9.87860208461067,-9360,5.7388105456775,293,99.6341463414634,-1634,-17.8658536585366,-479,29.2073170731707,-52,0.226086956521739,27,0.117391304347826,144,-0.702439024390244,
8748598,4589.84375,5184,-3.17841814837523,-15808,-9.69221336603311,-9568,5.86633966891478,290,101.585365853659,-1666,-17.6829268292683,-516,31.4634146341463,-52,0.226086956521739,22,0.0956521739130435,146,-0.712195121951219,
8749238,4609.375,5120,-3.13917841814837,-15744,-9.65297363580625,-9648,5.91538933169834,289,103.780487804878,-1702,-17.6219512195122,-540,32.9268292682927,-51,0.221739130434783,17,0.0739130434782609,147,-0.717073170731707,
8749878,4628.90625,5248,-3.21765787860208,-15280,-9.36848559166156,-9792,6.00367872470877,264,104.817073170732,-1719,-16.0975609756098,-585,35.6707317073171,-51,0.221739130434783,15,0.0652173913043478,149,-0.726829268292683,
8750518,4648.4375,5648,-3.46290619251993,-14864,-9.113427345187,-10112,6.19987737584304,304,104.939024390244,-1721,-18.5365853658537,-596,36.3414634146341,-52,0.226086956521739,17,0.0739130434782609,149,-0.726829268292683,
8751158,4667.96875,5776,-3.54138565297364,-14480,-8.87798896382587,-10736,6.58246474555487,399,105.060975609756,-1723,-24.3292682926829,-608,37.0731707317073,-51,0.221739130434783,13,0.0565217391304348,153,-0.746341463414634,
8751798,4687.5,5792,-3.55119558553035,-14240,-8.73083997547517,-11568,7.09258123850398,516,107.012195121951,-1755,-31.4634146341463,-627,38.2317073170732,-53,0.230434782608696,8,0.0347826086956522,154,-0.751219512195122,
8752438,4707.03125,5536,-3.39423666462293,-13920,-8.53464132434089,-12176,7.4653586756591,619,110.792682926829,-1817,-37.7439024390244,-626,38.1707317073171,-53,0.230434782608696,6,0.0260869565217391,156,-0.760975609756098,
8753078,4726.5625,4752,-2.91354996934396,-13648,-8.36787247087676,-12432,7.62231759656652,537,115.792682926829,-1899,-32.7439024390244,-601,36.6463414634146,-54,0.234782608695652,9,0.0391304347826087,156,-0.760975609756098,
8753718,4746.09375,4864,-2.98221949724096,-13056,-8.00490496627836,-12704,7.78908645003066,362,114.451219512195,-1877,-22.0731707317073,-597,36.4024390243902,-50,0.217391304347826,4,0.0173913043478261,158,-0.770731707317073,
8754358,4765.625,5120,-3.13917841814837,-12512,-7.67136725935009,-12816,7.85775597792765,309,116.09756097561,-1904,-18.8414634146341,-599,36.5243902439024,-50,0.217391304347826,-2,-0.00869565217391304,159,-0.775609756097561,
8754998,4785.15625,5200,-3.18822808093194,-12112,-7.42611894543225,-12704,7.78908645003066,303,116.280487804878,-1907,-18.4756097560976,-648,39.5121951219512,-49,0.21304347826087,-7,-0.0304347826086957,162,-0.790243902439024,
8755638,4804.6875,5040,-3.09012875536481,-11568,-7.09258123850398,-12432,7.62231759656652,347,115.365853658537,-1892,-21.1585365853659,-720,43.9024390243902,-48,0.208695652173913,-11,-0.0478260869565217,162,-0.790243902439024,
8756278,4824.21875,4832,-2.96259963212753,-10944,-6.70999386879215,-12272,7.52421827099939,406,113.231707317073,-1857,-24.7560975609756,-763,46.5243902439024,-51,0.221739130434783,-10,-0.0434782608695652,163,-0.795121951219512,
8756918,4843.75,4512,-2.76640098099326,-10272,-6.29797670141018,-12240,7.50459840588596,457,110.792682926829,-1817,-27.8658536585366,-783,47.7439024390244,-48,0.208695652173913,-13,-0.0565217391304348,165,-0.804878048780488,
8757558,4863.28125,4496,-2.75659104843654,-9456,-5.79767014101778,-12560,7.70079705702023,455,108.292682926829,-1776,-27.7439024390244,-807,49.2073170731707,-47,0.204347826086957,-18,-0.0782608695652174,166,-0.809756097560976,
8758198,4882.8125,4480,-2.74678111587983,-8784,-5.38565297363581,-12640,7.7498467198038,476,106.707317073171,-1750,-29.0243902439024,-807,49.2073170731707,-46,0.2,-15,-0.0652173913043478,164,-0.8,
8758838,4902.34375,4208,-2.5800122624157,-8000,-4.90496627835684,-12432,7.62231759656652,510,104.756097560976,-1718,-31.0975609756098,-808,49.2682926829268,-44,0.191304347826087,-22,-0.0956521739130435,166,-0.809756097560976,
8759478,4921.875,3968,-2.43286327406499,-7328,-4.49294911097486,-12048,7.3868792152054,534,101.280487804878,-1661,-32.5609756097561,-776,47.3170731707317,-44,0.191304347826087,-27,-0.117391304347826,165,-0.804878048780488,
8760118,4941.40625,3760,-2.30533415082771,-6448,-3.95340282035561,-12128,7.43592887798896,556,98.109756097561,-1609,-33.9024390243902,-743,45.3048780487805,-41,0.178260869565217,-29,-0.126086956521739,166,-0.809756097560976,
8760758,4960.9375,3664,-2.24647455548743,-5472,-3.35499693439608,-12176,7.4653586756591,535,94.2073170731707,-1545,-32.6219512195122,-750,45.7317073170732,-40,0.173913043478261,-29,-0.126086956521739,166,-0.809756097560976,
8761398,4980.46875,3520,-2.15818516247701,-4816,-2.95278969957082,-12032,7.37706928264868,511,90.7926829268293,-1489,-31.1585365853659,-735,44.8170731707317,-38,0.165217391304348,-34,-0.147826086956522,166,-0.809756097560976,
8762038,5000,3216,-1.97179644389945,-4288,-2.62906192519926,-11808,7.23973022685469,542,86.7073170731707,-1422,-33.0487804878049,-714,43.5365853658537,-37,0.160869565217391,-37,-0.160869565217391,166,-0.809756097560976,
8762678,5019.53125,2720,-1.66768853464132,-3712,-2.27590435315757,-11680,7.16125076640098,539,82.8048780487805,-1358,-32.8658536585366,-691,42.1341463414634,-37,0.160869565217391,-35,-0.152173913043478,164,-0.8,
8763318,5039.0625,2464,-1.51072961373391,-3312,-2.03065603923973,-11488,7.04353157572042,443,77.9268292682927,-1278,-27.0121951219512,-645,39.3292682926829,-36,0.156521739130435,-44,-0.191304347826087,166,-0.809756097560976,
8763958,5058.59375,2064,-1.26548129981606,-2768,-1.69711833231147,-11152,6.83752299202943,332,73.0487804878049,-1198,-20.2439024390244,-611,37.2560975609756,-36,0.156521739130435,-41,-0.178260869565217,164,-0.8,
8764598,5078.125,1856,-1.13795217657879,-2064,-1.26548129981606,-10912,6.69037400367872,275,66.3414634146341,-1088,-16.7682926829268,-581,35.4268292682927,-33,0.143478260869565,-43,-0.18695652173913,163,-0.795121951219512,
8765238,5097.65625,1552,-0.951563458001226,-1248,-0.765174739423666,-10896,6.68056407112201,237,59.4512195121951,-975,-14.4512195121951,-528,32.1951219512195,-32,0.139130434782609,-47,-0.204347826086957,163,-0.795121951219512,
8765878,5117.1875,1056,-0.647455548743102,-368,-0.225628448804414,-10672,6.54322501532802,145,52.8048780487805,-866,-8.84146341463415,-460,28.0487804878049,-32,0.139130434782609,-45,-0.195652173913043,162,-0.790243902439024,
8766518,5136.71875,816,-0.500306560392397,16,0.00980993255671367,-10624,6.51379521765788,-23,44.8780487804878,-736,1.40243902439024,-382,23.2926829268293,-31,0.134782608695652,-48,-0.208695652173913,164,-0.8,
8767158,5156.25,1600,-0.980993255671367,416,0.255058246474555,-10832,6.64132434089516,-19,35.6707317073171,-585,1.15853658536585,-325,19.8170731707317,-30,0.130434782608696,-53,-0.230434782608696,163,-0.795121951219512,
8767798,5175.78125,2320,-1.42244022072348,416,0.255058246474555,-11184,6.85714285714286,225,28.4146341463415,-466,-13.719512195122,-253,15.4268292682927,-31,0.134782608695652,-45,-0.195652173913043,161,-0.785365853658537,
8768438,5195.3125,2096,-1.28510116492949,320,0.196198651134273,-11648,7.14163090128755,479,22.7439024390244,-373,-29.2073170731707,-189,11.5243902439024,-29,0.126086956521739,-51,-0.221739130434783,162,-0.790243902439024,
8769078,5214.84375,1008,-0.618025751072961,384,0.235438381361128,-11936,7.3182096873084,488,19.0243902439024,-312,-29.7560975609756,-139,8.47560975609756,-27,0.117391304347826,-52,-0.226086956521739,160,-0.780487804878049,
8769718,5234.375,752,-0.461066830165543,672,0.412017167381974,-12272,7.52421827099939,359,13.9024390243902,-228,-21.890243902439,-122,7.4390243902439,-27,0.117391304347826,-48,-0.208695652173913,161,-0.785365853658537,
8770358,5253.90625,1216,-0.745554874310239,880,0.539546290619252,-12880,7.89699570815451,390,8.84146341463415,-145,-23.780487804878,-102,6.21951219512195,-24,0.104347826086957,-54,-0.234782608695652,161,-0.785365853658537,
8770998,5273.4375,1536,-0.941753525444513,896,0.549356223175966,-13600,8.33844267320662,499,7.19512195121951,-118,-30.4268292682927,-71,4.32926829268293,-25,0.108695652173913,-52,-0.226086956521739,159,-0.775609756097561,
8771638,5292.96875,688,-0.421827099938688,912,0.559166155732679,-14032,8.60331085223789,455,6.03658536585366,-99,-27.7439024390244,-43,2.6219512195122,-27,0.117391304347826,-50,-0.217391304347826,159,-0.775609756097561,
8772278,5312.5,320,-0.196198651134273,1024,0.627835683629675,-14272,8.7504598405886,253,3.96341463414634,-65,-15.4268292682927,-23,1.40243902439024,-25,0.108695652173913,-50,-0.217391304347826,157,-0.765853658536585,
8772918,5332.03125,672,-0.412017167381974,1056,0.647455548743102,-14672,8.99570815450644,109,0.853658536585366,-14,-6.64634146341464,-22,1.34146341463415,-24,0.104347826086957,-52,-0.226086956521739,157,-0.765853658536585,
8773558,5351.5625,944,-0.578786020846107,960,0.58859595340282,-14848,9.10361741263029,94,0.24390243902439,-4,-5.73170731707317,-26,1.58536585365854,-26,0.11304347826087,-49,-0.21304347826087,158,-0.770731707317073,
8774198,5371.09375,944,-0.578786020846107,672,0.412017167381974,-14832,9.09380748007357,86,-0.853658536585366,14,-5.24390243902439,-11,0.670731707317073,-26,0.11304347826087,-49,-0.21304347826087,157,-0.765853658536585,
8774838,5390.625,848,-0.519926425505825,464,0.284488044144696,-14880,9.12323727774372,14,-1.64634146341463,27,-0.853658536585366,7,-0.426829268292683,-23,0.1,-51,-0.221739130434783,157,-0.765853658536585,
8775478,5410.15625,960,-0.58859595340282,640,0.392397302268547,-15024,9.21152667075414,-116,-3.35365853658537,55,7.07317073170732,25,-1.52439024390244,-24,0.104347826086957,-50,-0.217391304347826,157,-0.765853658536585,
8776118,5429.6875,1680,-1.03004291845494,784,0.48068669527897,-15264,9.35867565910484,-117,-5.60975609756098,92,7.13414634146342,37,-2.25609756097561,-26,0.11304347826087,-47,-0.204347826086957,157,-0.765853658536585,
8776758,5449.21875,1936,-1.18700183936235,704,0.431637032495402,-15536,9.52544451256898,40,-6.15853658536585,101,-2.4390243902439,56,-3.41463414634146,-23,0.1,-53,-0.230434782608696,158,-0.770731707317073,
8777398,5468.75,1712,-1.04966278356836,736,0.451256897608829,-15680,9.6137339055794,73,-6.21951219512195,102,-4.45121951219512,63,-3.84146341463415,-23,0.1,-50,-0.217391304347826,160,-0.780487804878049,
8778038,5488.28125,1856,-1.13795217657879,832,0.510116492949111,-15968,9.79031269160024,67,-7.19512195121951,118,-4.08536585365854,79,-4.81707317073171,-26,0.11304347826087,-50,-0.217391304347826,157,-0.765853658536585,
8778678,5507.8125,2128,-1.30472103004292,656,0.402207234825261,-16368,10.0355610055181,156,-6.70731707317073,110,-9.51219512195122,91,-5.54878048780488,-24,0.104347826086957,-46,-0.2,156,-0.760975609756098,
8779318,5527.34375,1984,-1.2164316370325,688,0.421827099938688,-16464,10.0944206008584,218,-5.79268292682927,95,-13.2926829268293,95,-5.79268292682927,-25,0.108695652173913,-49,-0.21304347826087,157,-0.765853658536585,
8779958,5546.875,1552,-0.951563458001226,688,0.421827099938688,-16448,10.0846106683017,193,-4.87804878048781,80,-11.7682926829268,89,-5.42682926829268,-23,0.1,-48,-0.208695652173913,156,-0.760975609756098,
8780598,5566.40625,1360,-0.833844267320662,816,0.500306560392397,-16640,10.2023298589822,91,-4.26829268292683,70,-5.54878048780488,69,-4.20731707317073,-23,0.1,-49,-0.21304347826087,159,-0.775609756097561,
8781238,5585.9375,1872,-1.1477621091355,688,0.421827099938688,-16864,10.3396689147762,41,-3.65853658536585,60,-2.5,48,-2.92682926829268,-23,0.1,-50,-0.217391304347826,158,-0.770731707317073,
8781878,5605.46875,1840,-1.12814224402207,688,0.421827099938688,-16992,10.4181483752299,95,-1.28048780487805,21,-5.79268292682927,37,-2.25609756097561,-21,0.091304347826087,-48,-0.208695652173913,158,-0.770731707317073,
8782518,5625,1696,-1.03985285101165,720,0.441446965052115,-17072,10.4671980380135,108,0.548780487804878,-9,-6.58536585365854,20,-1.21951219512195,-22,0.0956521739130435,-46,-0.2,156,-0.760975609756098,
8783158,5644.53125,1552,-0.951563458001226,656,0.402207234825261,-17008,10.4279583077866,72,2.37804878048781,-39,-4.39024390243902,16,-0.975609756097561,-24,0.104347826086957,-50,-0.217391304347826,156,-0.760975609756098,
8783798,5664.0625,1488,-0.912323727774372,688,0.421827099938688,-16992,10.4181483752299,27,4.02439024390244,-66,-1.64634146341463,6,-0.365853658536585,-22,0.0956521739130435,-51,-0.221739130434783,157,-0.765853658536585,
8784438,5683.59375,1696,-1.03985285101165,736,0.451256897608829,-16944,10.3887185775598,7,4.32926829268293,-71,-0.426829268292683,12,-0.731707317073171,-24,0.104347826086957,-51,-0.221739130434783,157,-0.765853658536585,
8785078,5703.125,1808,-1.10852237890864,560,0.343347639484979,-16896,10.3592887798896,32,5.79268292682927,-95,-1.95121951219512,25,-1.52439024390244,-21,0.091304347826087,-48,-0.208695652173913,156,-0.760975609756098,
8785718,5722.65625,1760,-1.0790925812385,560,0.343347639484979,-16816,10.3102391171061,71,7.07317073170732,-116,-4.32926829268293,23,-1.40243902439024,-22,0.0956521739130435,-47,-0.204347826086957,156,-0.760975609756098,
8786358,5742.1875,1696,-1.03985285101165,512,0.313917841814838,-16416,10.0649908031882,96,8.10975609756098,-133,-5.85365853658537,-14,0.853658536585366,-21,0.091304347826087,-49,-0.21304347826087,157,-0.765853658536585,
8786998,5761.71875,1536,-0.941753525444513,688,0.421827099938688,-16272,9.9767014101778,167,8.23170731707317,-135,-10.1829268292683,-38,2.31707317073171,-22,0.0956521739130435,-52,-0.226086956521739,158,-0.770731707317073,
8787638,5781.25,1392,-0.853464132434089,864,0.529736358062538,-16288,9.98651134273452,238,8.17073170731707,-134,-14.5121951219512,-45,2.74390243902439,-21,0.091304347826087,-49,-0.21304347826087,158,-0.770731707317073,
8788278,5800.78125,1360,-0.833844267320662,816,0.500306560392397,-16400,10.0551808706315,280,8.53658536585366,-140,-17.0731707317073,-35,2.13414634146341,-20,0.0869565217391304,-51,-0.221739130434783,155,-0.75609756097561,
8788918,5820.3125,1248,-0.765174739423666,640,0.392397302268547,-16320,10.0061312078479,318,9.32926829268293,-153,-19.390243902439,-27,1.64634146341463,-21,0.091304347826087,-49,-0.21304347826087,155,-0.75609756097561,
8789558,5839.84375,1264,-0.77498467198038,512,0.313917841814838,-16224,9.94727161250766,318,9.63414634146342,-158,-19.390243902439,-36,2.19512195121951,-18,0.0782608695652174,-53,-0.230434782608696,156,-0.760975609756098,
8790198,5859.375,960,-0.58859595340282,704,0.431637032495402,-16192,9.92765174739424,317,10.0609756097561,-165,-19.3292682926829,-51,3.10975609756098,-20,0.0869565217391304,-51,-0.221739130434783,156,-0.760975609756098,
8790838,5878.90625,800,-0.490496627835684,752,0.461066830165543,-16144,9.89822194972409,277,10,-164,-16.890243902439,-50,3.04878048780488,-17,0.0739130434782609,-50,-0.217391304347826,155,-0.75609756097561,
8791478,5898.4375,976,-0.598405885959534,496,0.304107909258124,-16096,9.86879215205395,234,10.1219512195122,-166,-14.2682926829268,-42,2.5609756097561,-20,0.0869565217391304,-48,-0.208695652173913,153,-0.746341463414634,
8792118,5917.96875,688,-0.421827099938688,528,0.323727774371551,-16016,9.81974248927039,232,10.8536585365854,-178,-14.1463414634146,-52,3.17073170731707,-18,0.0782608695652174,-54,-0.234782608695652,155,-0.75609756097561,
8792758,5937.5,288,-0.176578786020846,720,0.441446965052115,-16000,9.80993255671367,170,11.219512195122,-184,-10.3658536585366,-79,4.81707317073171,-18,0.0782608695652174,-49,-0.21304347826087,152,-0.741463414634146,
8793398,5957.03125,240,-0.147148988350705,512,0.313917841814838,-15824,9.70202329858982,72,11.280487804878,-185,-4.39024390243902,-99,6.03658536585366,-15,0.0652173913043478,-54,-0.234782608695652,152,-0.741463414634146,
8794038,5976.5625,192,-0.117719190680564,416,0.255058246474555,-15840,9.71183323114654,40,11.5853658536585,-190,-2.4390243902439,-122,7.4390243902439,-16,0.0695652173913043,-50,-0.217391304347826,153,-0.746341463414634,
8794678,5996.09375,32,-0.0196198651134273,528,0.323727774371551,-15776,9.67259350091968,13,12.1951219512195,-200,-0.792682926829268,-171,10.4268292682927,-17,0.0739130434782609,-49,-0.21304347826087,152,-0.741463414634146,
8795318,6015.625,16,-0.00980993255671367,688,0.421827099938688,-15456,9.47639484978541,-13,12.5,-205,0.792682926829268,-220,13.4146341463415,-17,0.0739130434782609,-47,-0.204347826086957,152,-0.741463414634146,
8795958,6035.15625,-192,0.117719190680564,880,0.539546290619252,-15488,9.49601471489883,-1,12.3170731707317,-202,0.0609756097560976,-259,15.7926829268293,-18,0.0782608695652174,-47,-0.204347826086957,151,-0.736585365853659,
8796598,6054.6875,-416,0.255058246474555,1072,0.657265481299816,-15424,9.45677498467198,-30,12.6219512195122,-207,1.82926829268293,-310,18.9024390243902,-14,0.0608695652173913,-54,-0.234782608695652,154,-0.751219512195122,
8797238,6074.21875,-144,0.088289393010423,1136,0.696505211526671,-15360,9.41753525444513,-47,11.219512195122,-184,2.86585365853659,-304,18.5365853658537,-15,0.0652173913043478,-52,-0.226086956521739,152,-0.741463414634146,
8797878,6093.75,80,-0.0490496627835684,1200,0.735744941753525,-15488,9.49601471489883,60,10.3658536585366,-170,-3.65853658536585,-265,16.1585365853659,-15,0.0652173913043478,-51,-0.221739130434783,151,-0.736585365853659,
8798518,6113.28125,16,-0.00980993255671367,1408,0.863274064990803,-15632,9.58430410790926,180,8.53658536585366,-140,-10.9756097560976,-219,13.3536585365854,-16,0.0695652173913043,-48,-0.208695652173913,150,-0.731707317073171,
8799158,6132.8125,-64,0.0392397302268547,1616,0.990803188228081,-15632,9.58430410790926,233,6.34146341463415,-104,-14.2073170731707,-161,9.81707317073171,-15,0.0652173913043478,-48,-0.208695652173913,150,-0.731707317073171,
8799798,6152.34375,48,-0.029429797670141,1488,0.912323727774372,-15664,9.60392397302268,260,3.71951219512195,-61,-15.8536585365854,-100,6.09756097560976,-14,0.0608695652173913,-51,-0.221739130434783,151,-0.736585365853659,
8800438,6171.875,-160,0.0980993255671367,1584,0.971183323114654,-15648,9.59411404046597,298,1.95121951219512,-32,-18.1707317073171,-40,2.4390243902439,-13,0.0565217391304348,-51,-0.221739130434783,151,-0.736585365853659,
8801078,6191.40625,-288,0.176578786020846,1616,0.990803188228081,-15664,9.60392397302268,232,1.21951219512195,-20,-14.1463414634146,13,-0.792682926829268,-15,0.0652173913043478,-51,-0.221739130434783,150,-0.731707317073171,
8801718,6210.9375,-160,0.0980993255671367,1472,0.902513795217658,-15824,9.70202329858982,153,-0.182926829268293,3,-9.32926829268293,50,-3.04878048780488,-15,0.0652173913043478,-47,-0.204347826086957,150,-0.731707317073171,
8802358,6230.46875,-336,0.206008583690987,1568,0.96137339055794,-15728,9.64316370324954,123,-0.182926829268293,3,-7.5,81,-4.9390243902439,-14,0.0608695652173913,-54,-0.234782608695652,151,-0.736585365853659,
8802998,6250,-336,0.206008583690987,1696,1.03985285101165,-15712,9.63335377069283,33,0.121951219512195,-2,-2.01219512195122,97,-5.91463414634146,-12,0.0521739130434783,-54,-0.234782608695652,151,-0.736585365853659,
8803638,6269.53125,-64,0.0392397302268547,1728,1.05947271612508,-15584,9.55487431023912,-71,-0.670731707317073,11,4.32926829268293,94,-5.73170731707317,-13,0.0565217391304348,-48,-0.208695652173913,152,-0.741463414634146,
8804278,6289.0625,256,-0.156958920907419,1712,1.04966278356836,-15520,9.51563458001226,-93,-2.07317073170732,34,5.67073170731707,87,-5.30487804878049,-13,0.0565217391304348,-50,-0.217391304347826,151,-0.736585365853659,
8804918,6308.59375,288,-0.176578786020846,1680,1.03004291845494,-15456,9.47639484978541,-64,-3.59756097560976,59,3.90243902439024,61,-3.71951219512195,-13,0.0565217391304348,-50,-0.217391304347826,150,-0.731707317073171,
8805558,6328.125,432,-0.264868179031269,1648,1.01042305334151,-15536,9.52544451256898,-26,-4.87804878048781,80,1.58536585365854,22,-1.34146341463415,-12,0.0521739130434783,-51,-0.221739130434783,151,-0.736585365853659,
8806198,6347.65625,304,-0.18638871857756,1504,0.922133660331085,-15520,9.51563458001226,41,-5.60975609756098,92,-2.5,6,-0.365853658536585,-14,0.0608695652173913,-50,-0.217391304347826,150,-0.731707317073171,
8806838,6367.1875,208,-0.127529123237278,1424,0.873083997547517,-15632,9.58430410790926,114,-6.09756097560976,100,-6.95121951219512,7,-0.426829268292683,-13,0.0565217391304348,-51,-0.221739130434783,150,-0.731707317073171,
8807478,6386.71875,48,-0.029429797670141,1312,0.804414469650521,-15872,9.73145309625996,134,-6.58536585365854,108,-8.17073170731707,22,-1.34146341463415,-13,0.0565217391304348,-47,-0.204347826086957,151,-0.736585365853659,
8808118,6406.25,-48,0.029429797670141,1232,0.755364806866953,-16064,9.84917228694053,115,-6.52439024390244,107,-7.01219512195122,46,-2.80487804878049,-12,0.0521739130434783,-51,-0.221739130434783,151,-0.736585365853659,
8808758,6425.78125,-128,0.0784794604537094,1056,0.647455548743102,-16064,9.84917228694053,57,-5.91463414634146,97,-3.47560975609756,69,-4.20731707317073,-13,0.0565217391304348,-49,-0.21304347826087,151,-0.736585365853659,
8809398,6445.3125,32,-0.0196198651134273,816,0.500306560392397,-16144,9.89822194972409,-24,-5.54878048780488,91,1.46341463414634,99,-6.03658536585366,-12,0.0521739130434783,-49,-0.21304347826087,151,-0.736585365853659,
8810038,6464.84375,16,-0.00980993255671367,800,0.490496627835684,-16208,9.93746167995095,-60,-4.69512195121951,77,3.65853658536585,110,-6.70731707317073,-14,0.0608695652173913,-52,-0.226086956521739,152,-0.741463414634146,
8810678,6484.375,32,-0.0196198651134273,416,0.255058246474555,-16112,9.87860208461067,-98,-3.84146341463415,63,5.97560975609756,96,-5.85365853658537,-14,0.0608695652173913,-52,-0.226086956521739,152,-0.741463414634146,
8811318,6503.90625,96,-0.058859595340282,320,0.196198651134273,-16144,9.89822194972409,-145,-3.41463414634146,56,8.84146341463415,75,-4.57317073170732,-15,0.0652173913043478,-47,-0.204347826086957,151,-0.736585365853659,
8811958,6523.4375,288,-0.176578786020846,160,0.0980993255671367,-16176,9.91784181483752,-165,-3.71951219512195,61,10.0609756097561,46,-2.80487804878049,-13,0.0565217391304348,-52,-0.226086956521739,153,-0.746341463414634,
8812598,6542.96875,496,-0.304107909258124,48,0.029429797670141,-16256,9.96689147762109,-129,-3.29268292682927,54,7.86585365853659,22,-1.34146341463415,-14,0.0608695652173913,-47,-0.204347826086957,151,-0.736585365853659,
8813238,6562.5,288,-0.176578786020846,224,0.137339055793991,-16352,10.0257510729614,-46,-3.17073170731707,52,2.80487804878049,-22,1.34146341463415,-15,0.0652173913043478,-46,-0.2,152,-0.741463414634146,
8813878,6582.03125,48,-0.029429797670141,432,0.264868179031269,-16352,10.0257510729614,12,-3.04878048780488,50,-0.731707317073171,-59,3.59756097560976,-15,0.0652173913043478,-50,-0.217391304347826,153,-0.746341463414634,
8814518,6601.5625,16,-0.00980993255671367,496,0.304107909258124,-16544,10.1434702636419,57,-3.35365853658537,55,-3.47560975609756,-71,4.32926829268293,-14,0.0608695652173913,-51,-0.221739130434783,152,-0.741463414634146,
8815158,6621.09375,-240,0.147148988350705,496,0.304107909258124,-16752,10.2709993868792,116,-2.25609756097561,37,-7.07317073170732,-51,3.10975609756098,-15,0.0652173913043478,-47,-0.204347826086957,152,-0.741463414634146,
8815798,6640.625,-416,0.255058246474555,560,0.343347639484979,-16656,10.2121397915389,115,-0.365853658536585,6,-7.01219512195122,-43,2.6219512195122,-14,0.0608695652173913,-48,-0.208695652173913,152,-0.741463414634146,
8816438,6660.15625,-448,0.274678111587983,352,0.215818516247701,-16688,10.2317596566524,59,1.03658536585366,-17,-3.59756097560976,-24,1.46341463414634,-13,0.0565217391304348,-50,-0.217391304347826,152,-0.741463414634146,
8817078,6679.6875,-416,0.255058246474555,256,0.156958920907419,-16576,10.1630901287554,19,1.89024390243902,-31,-1.15853658536585,-1,0.0609756097560976,-14,0.0608695652173913,-49,-0.21304347826087,150,-0.731707317073171,
8817718,6699.21875,-464,0.284488044144696,464,0.284488044144696,-16384,10.0453709380748,-24,3.41463414634146,-56,1.46341463414634,6,-0.365853658536585,-15,0.0652173913043478,-48,-0.208695652173913,151,-0.736585365853659,
8818358,6718.75,-352,0.215818516247701,544,0.333537706928265,-16192,9.92765174739424,-89,4.08536585365854,-67,5.42682926829268,-2,0.121951219512195,-13,0.0565217391304348,-49,-0.21304347826087,152,-0.741463414634146,
8818998,6738.28125,64,-0.0392397302268547,608,0.37277743715512,-15888,9.74126302881668,-141,3.90243902439024,-64,8.59756097560976,-5,0.304878048780488,-14,0.0608695652173913,-49,-0.21304347826087,154,-0.751219512195122,
8819638,6757.8125,304,-0.18638871857756,656,0.402207234825261,-15792,9.6824034334764,-124,2.92682926829268,-48,7.5609756097561,3,-0.182926829268293,-15,0.0652173913043478,-46,-0.2,152,-0.741463414634146,
8820278,6777.34375,384,-0.235438381361128,656,0.402207234825261,-15744,9.65297363580625,-52,2.07317073170732,-34,3.17073170731707,1,-0.0609756097560976,-15,0.0652173913043478,-44,-0.191304347826087,151,-0.736585365853659,
8820918,6796.875,304,-0.18638871857756,560,0.343347639484979,-15712,9.63335377069283,3,1.52439024390244,-25,-0.182926829268293,-7,0.426829268292683,-17,0.0739130434782609,-48,-0.208695652173913,151,-0.736585365853659,
8821558,6816.40625,240,-0.147148988350705,608,0.37277743715512,-15648,9.59411404046597,49,0.853658536585366,-14,-2.98780487804878,-15,0.914634146341463,-16,0.0695652173913043,-49,-0.21304347826087,151,-0.736585365853659,
8822198,6835.9375,80,-0.0490496627835684,448,0.274678111587983,-15632,9.58430410790926,20,1.46341463414634,-24,-1.21951219512195,-20,1.21951219512195,-17,0.0739130434782609,-45,-0.195652173913043,151,-0.736585365853659,
8822838,6855.46875,-80,0.0490496627835684,528,0.323727774371551,-15600,9.56468424279583,-33,1.46341463414634,-24,2.01219512195122,-24,1.46341463414634,-13,0.0565217391304348,-52,-0.226086956521739,152,-0.741463414634146,
8823478,6875,-80,0.0490496627835684,560,0.343347639484979,-15616,9.57449417535254,-91,1.28048780487805,-21,5.54878048780488,-17,1.03658536585366,-14,0.0608695652173913,-46,-0.2,152,-0.741463414634146,
8824118,6894.53125,80,-0.0490496627835684,640,0.392397302268547,-15632,9.58430410790926,-121,-0.0609756097560976,1,7.37804878048781,-15,0.914634146341463,-15,0.0652173913043478,-45,-0.195652173913043,152,-0.741463414634146,
8824758,6914.0625,176,-0.10790925812385,720,0.441446965052115,-15696,9.62354383813611,-122,-1.34146341463415,22,7.4390243902439,-9,0.548780487804878,-16,0.0695652173913043,-49,-0.21304347826087,152,-0.741463414634146,
8825398,6933.59375,352,-0.215818516247701,592,0.362967504598406,-15760,9.66278356836297,-103,-2.31707317073171,38,6.28048780487805,-6,0.365853658536585,-17,0.0739130434782609,-43,-0.18695652173913,150,-0.731707317073171,
8826038,6953.125,400,-0.245248313917842,608,0.37277743715512,-15824,9.70202329858982,-83,-2.25609756097561,37,5.0609756097561,1,-0.0609756097560976,-16,0.0695652173913043,-46,-0.2,152,-0.741463414634146,
8826678,6972.65625,336,-0.206008583690987,512,0.313917841814838,-15968,9.79031269160024,-80,-2.98780487804878,49,4.87804878048781,6,-0.365853658536585,-15,0.0652173913043478,-48,-0.208695652173913,152,-0.741463414634146,
8827318,6992.1875,368,-0.225628448804414,496,0.304107909258124,-16144,9.89822194972409,-69,-3.65853658536585,60,4.20731707317073,-7,0.426829268292683,-16,0.0695652173913043,-43,-0.18695652173913,154,-0.751219512195122,
8827958,7011.71875,624,-0.382587369711833,224,0.137339055793991,-16400,10.0551808706315,-21,-3.59756097560976,59,1.28048780487805,-8,0.487804878048781,-16,0.0695652173913043,-44,-0.191304347826087,152,-0.741463414634146,
8828598,7031.25,576,-0.353157572041692,32,0.0196198651134273,-16560,10.1532801961987,47,-3.47560975609756,57,-2.86585365853659,-9,0.548780487804878,-15,0.0652173913043478,-46,-0.2,153,-0.746341463414634,
8829238,7050.78125,352,-0.215818516247701,64,0.0392397302268547,-16672,10.2219497240956,66,-3.53658536585366,58,-4.02439024390244,-20,1.21951219512195,-16,0.0695652173913043,-46,-0.2,153,-0.746341463414634,
8829878,7070.3125,240,-0.147148988350705,144,0.088289393010423,-16736,10.2611894543225,74,-2.31707317073171,38,-4.51219512195122,-25,1.52439024390244,-17,0.0739130434782609,-47,-0.204347826086957,154,-0.751219512195122,
8830518,7089.84375,176,-0.10790925812385,192,0.117719190680564,-16752,10.2709993868792,78,-0.731707317073171,12,-4.75609756097561,-18,1.09756097560976,-18,0.0782608695652174,-45,-0.195652173913043,153,-0.746341463414634,
8831158,7109.375,16,-0.00980993255671367,80,0.0490496627835684,-16704,10.2415695892091,58,0.426829268292683,-7,-3.53658536585366,4,-0.24390243902439,-14,0.0608695652173913,-47,-0.204347826086957,152,-0.741463414634146,
8831798,7128.90625,80,-0.0490496627835684,48,0.029429797670141,-16528,10.1336603310852,28,0.426829268292683,-7,-1.70731707317073,15,-0.914634146341463,-15,0.0652173913043478,-48,-0.208695652173913,152,-0.741463414634146,
8832438,7148.4375,176,-0.10790925812385,304,0.18638871857756,-16336,10.0159411404047,55,-0.609756097560976,10,-3.35365853658537,29,-1.76829268292683,-15,0.0652173913043478,-46,-0.2,154,-0.751219512195122,
8833078,7167.96875,496,-0.304107909258124,528,0.323727774371551,-16464,10.0944206008584,123,-1.28048780487805,21,-7.5,46,-2.80487804878049,-17,0.0739130434782609,-45,-0.195652173913043,153,-0.746341463414634,
8833718,7187.5,640,-0.392397302268547,352,0.215818516247701,-16512,10.1238503985285,157,-0.975609756097561,16,-9.57317073170732,82,-5,-14,0.0608695652173913,-49,-0.21304347826087,153,-0.746341463414634,
8834358,7207.03125,544,-0.333537706928265,0,0,-16320,10.0061312078479,157,-0.731707317073171,12,-9.57317073170732,103,-6.28048780487805,-14,0.0608695652173913,-48,-0.208695652173913,154,-0.751219512195122,
8834998,7226.5625,464,-0.284488044144696,-144,-0.088289393010423,-16256,9.96689147762109,107,-0.731707317073171,12,-6.52439024390244,76,-4.63414634146342,-16,0.0695652173913043,-44,-0.191304347826087,153,-0.746341463414634,
8835638,7246.09375,448,-0.274678111587983,-80,-0.0490496627835684,-16176,9.91784181483752,91,-1.03658536585366,17,-5.54878048780488,28,-1.70731707317073,-14,0.0608695652173913,-46,-0.2,152,-0.741463414634146,
8836278,7265.625,560,-0.343347639484979,-16,-0.00980993255671367,-16128,9.88841201716738,128,-0.914634146341463,15,-7.80487804878049,-9,0.548780487804878,-12,0.0521739130434783,-48,-0.208695652173913,153,-0.746341463414634,
8836918,7285.15625,432,-0.264868179031269,-48,-0.029429797670141,-16144,9.89822194972409,144,-0.121951219512195,2,-8.78048780487805,-33,2.01219512195122,-14,0.0608695652173913,-41,-0.178260869565217,153,-0.746341463414634,
8837558,7304.6875,80,-0.0490496627835684,48,0.029429797670141,-16112,9.87860208461067,105,0.914634146341463,-15,-6.40243902439024,-50,3.04878048780488,-12,0.0521739130434783,-44,-0.191304347826087,151,-0.736585365853659,
8838198,7324.21875,32,-0.0196198651134273,144,0.088289393010423,-15904,9.75107296137339,59,0.365853658536585,-6,-3.59756097560976,-47,2.86585365853659,-14,0.0608695652173913,-43,-0.18695652173913,151,-0.736585365853659,
8838838,7343.75,160,-0.0980993255671367,0,0,-15888,9.74126302881668,115,0.182926829268293,-3,-7.01219512195122,-46,2.80487804878049,-13,0.0565217391304348,-46,-0.2,153,-0.746341463414634,
8839478,7363.28125,128,-0.0784794604537094,-96,-0.058859595340282,-15984,9.80012262415696,144,0.670731707317073,-11,-8.78048780487805,-57,3.47560975609756,-14,0.0608695652173913,-47,-0.204347826086957,151,-0.736585365853659,
8840118,7382.8125,-288,0.176578786020846,-80,-0.0490496627835684,-15968,9.79031269160024,95,2.07317073170732,-34,-5.79268292682927,-75,4.57317073170732,-14,0.0608695652173913,-40,-0.173913043478261,150,-0.731707317073171,
8840758,7402.34375,-688,0.421827099938688,-128,-0.0784794604537094,-15872,9.73145309625996,-8,2.92682926829268,-48,0.487804878048781,-98,5.97560975609756,-13,0.0565217391304348,-45,-0.195652173913043,150,-0.731707317073171,
8841398,7421.875,-736,0.451256897608829,-64,-0.0392397302268547,-15680,9.6137339055794,-93,3.04878048780488,-50,5.67073170731707,-106,6.46341463414634,-13,0.0565217391304348,-47,-0.204347826086957,152,-0.741463414634146,
8842038,7441.40625,-464,0.284488044144696,-96,-0.058859595340282,-15680,9.6137339055794,-94,2.01219512195122,-33,5.73170731707317,-107,6.52439024390244,-12,0.0521739130434783,-45,-0.195652173913043,152,-0.741463414634146,
8842678,7460.9375,-352,0.215818516247701,-64,-0.0392397302268547,-15808,9.69221336603311,-42,1.40243902439024,-23,2.5609756097561,-109,6.64634146341464,-12,0.0521739130434783,-47,-0.204347826086957,151,-0.736585365853659,
8843318,7480.46875,-400,0.245248313917842,-96,-0.058859595340282,-15904,9.75107296137339,-17,0.121951219512195,-2,1.03658536585366,-107,6.52439024390244,-11,0.0478260869565217,-47,-0.204347826086957,151,-0.736585365853659,
8843958,7500,-528,0.323727774371551,-224,-0.137339055793991,-16000,9.80993255671367,2,-0.426829268292683,7,-0.121951219512195,-88,5.36585365853659,-13,0.0565217391304348,-42,-0.182608695652174,151,-0.736585365853659,
8844598,7519.53125,-624,0.382587369711833,-144,-0.088289393010423,-16096,9.86879215205395,13,-0.548780487804878,9,-0.792682926829268,-72,4.39024390243902,-13,0.0565217391304348,-41,-0.178260869565217,152,-0.741463414634146,
8845238,7539.0625,-688,0.421827099938688,-160,-0.0980993255671367,-16336,10.0159411404047,16,-0.609756097560976,10,-0.975609756097561,-51,3.10975609756098,-12,0.0521739130434783,-46,-0.2,151,-0.736585365853659,
8845878,7558.59375,-576,0.353157572041692,-288,-0.176578786020846,-16448,10.0846106683017,41,0.0609756097560976,-1,-2.5,-30,1.82926829268293,-13,0.0565217391304348,-41,-0.178260869565217,152,-0.741463414634146,
8846518,7578.125,-672,0.412017167381974,-400,-0.245248313917842,-16576,10.1630901287554,41,0.914634146341463,-15,-2.5,-15,0.914634146341463,-13,0.0565217391304348,-43,-0.18695652173913,151,-0.736585365853659,
8847158,7597.65625,-720,0.441446965052115,-256,-0.156958920907419,-16640,10.2023298589822,-14,2.74390243902439,-45,0.853658536585366,-11,0.670731707317073,-13,0.0565217391304348,-42,-0.182608695652174,151,-0.736585365853659,
8847798,7617.1875,-592,0.362967504598406,-224,-0.137339055793991,-16368,10.0355610055181,-79,3.53658536585366,-58,4.81707317073171,-3,0.182926829268293,-12,0.0521739130434783,-45,-0.195652173913043,150,-0.731707317073171,
8848438,7636.71875,-320,0.196198651134273,-192,-0.117719190680564,-16272,9.9767014101778,-96,3.96341463414634,-65,5.85365853658537,3,-0.182926829268293,-16,0.0695652173913043,-45,-0.195652173913043,151,-0.736585365853659,
8849078,7656.25,-64,0.0392397302268547,-96,-0.058859595340282,-16096,9.86879215205395,-78,3.17073170731707,-52,4.75609756097561,1,-0.0609756097560976,-12,0.0521739130434783,-43,-0.18695652173913,151,-0.736585365853659,
8849718,7675.78125,144,-0.088289393010423,-112,-0.0686695278969957,-16048,9.83936235438381,-31,2.4390243902439,-40,1.89024390243902,2,-0.121951219512195,-13,0.0565217391304348,-43,-0.18695652173913,151,-0.736585365853659,
8850358,7695.3125,128,-0.0784794604537094,-384,-0.235438381361128,-16064,9.84917228694053,8,2.5,-41,-0.487804878048781,14,-0.853658536585366,-15,0.0652173913043478,-42,-0.182608695652174,151,-0.736585365853659,
8850998,7714.84375,-80,0.0490496627835684,-592,-0.362967504598406,-16048,9.83936235438381,-20,2.74390243902439,-45,1.21951219512195,13,-0.792682926829268,-14,0.0608695652173913,-43,-0.18695652173913,151,-0.736585365853659,
8851638,7734.375,-16,0.00980993255671367,-528,-0.323727774371551,-15968,9.79031269160024,-51,2.80487804878049,-46,3.10975609756098,-2,0.121951219512195,-12,0.0521739130434783,-45,-0.195652173913043,151,-0.736585365853659,
8852278,7753.90625,0,0,-368,-0.225628448804414,-15840,9.71183323114654,-43,2.25609756097561,-37,2.6219512195122,-31,1.89024390243902,-13,0.0565217391304348,-40,-0.173913043478261,151,-0.736585365853659,
8852918,7773.4375,-16,0.00980993255671367,-224,-0.137339055793991,-15872,9.73145309625996,-26,1.15853658536585,-19,1.58536585365854,-49,2.98780487804878,-13,0.0565217391304348,-40,-0.173913043478261,152,-0.741463414634146,
8853558,7792.96875,48,-0.029429797670141,-80,-0.0490496627835684,-16080,9.85898221949724,8,0.365853658536585,-6,-0.487804878048781,-54,3.29268292682927,-12,0.0521739130434783,-46,-0.2,151,-0.736585365853659,
8854198,7812.5,48,-0.029429797670141,-128,-0.0784794604537094,-16240,9.95708154506438,22,-0.426829268292683,7,-1.34146341463415,-45,2.74390243902439,-13,0.0565217391304348,-46,-0.2,153,-0.746341463414634,
8854838,7832.03125,48,-0.029429797670141,-288,-0.176578786020846,-16368,10.0355610055181,46,-0.731707317073171,12,-2.80487804878049,-28,1.70731707317073,-14,0.0608695652173913,-42,-0.182608695652174,153,-0.746341463414634,
8855478,7851.5625,-48,0.029429797670141,-384,-0.235438381361128,-16368,10.0355610055181,101,-0.365853658536585,6,-6.15853658536585,-4,0.24390243902439,-14,0.0608695652173913,-42,-0.182608695652174,152,-0.741463414634146,
8856118,7871.09375,-272,0.166768853464132,-448,-0.274678111587983,-16560,10.1532801961987,107,0,0,-6.52439024390244,2,-0.121951219512195,-12,0.0521739130434783,-45,-0.195652173913043,154,-0.751219512195122,
8856758,7890.625,-400,0.245248313917842,-448,-0.274678111587983,-16656,10.2121397915389,88,1.03658536585366,-17,-5.36585365853659,1,-0.0609756097560976,-12,0.0521739130434783,-45,-0.195652173913043,153,-0.746341463414634,
8857398,7910.15625,-288,0.176578786020846,-400,-0.245248313917842,-16720,10.2513795217658,61,1.76829268292683,-29,-3.71951219512195,0,0,-12,0.0521739130434783,-42,-0.182608695652174,150,-0.731707317073171,
8858038,7929.6875,-208,0.127529123237278,-416,-0.255058246474555,-16720,10.2513795217658,70,2.13414634146341,-35,-4.26829268292683,6,-0.365853658536585,-12,0.0521739130434783,-40,-0.173913043478261,149,-0.726829268292683,
8858678,7949.21875,-112,0.0686695278969957,-528,-0.323727774371551,-16720,10.2513795217658,90,3.23170731707317,-53,-5.48780487804878,0,0,-13,0.0565217391304348,-40,-0.173913043478261,152,-0.741463414634146,
8859318,7968.75,-272,0.166768853464132,-720,-0.441446965052115,-16592,10.1729000613121,96,3.71951219512195,-61,-5.85365853658537,-3,0.182926829268293,-13,0.0565217391304348,-44,-0.191304347826087,151,-0.736585365853659,
8859958,7988.28125,-320,0.196198651134273,-880,-0.539546290619252,-16528,10.1336603310852,107,4.81707317073171,-79,-6.52439024390244,-7,0.426829268292683,-11,0.0478260869565217,-41,-0.178260869565217,150,-0.731707317073171,
8860598,8007.8125,-560,0.343347639484979,-784,-0.48068669527897,-16464,10.0944206008584,90,6.52439024390244,-107,-5.48780487804878,-15,0.914634146341463,-11,0.0478260869565217,-42,-0.182608695652174,151,-0.736585365853659,
8861238,8027.34375,-832,0.510116492949111,-576,-0.353157572041692,-16208,9.93746167995095,26,7.92682926829268,-130,-1.58536585365854,-35,2.13414634146341,-13,0.0565217391304348,-42,-0.182608695652174,150,-0.731707317073171,
8861878,8046.875,-784,0.48068669527897,-288,-0.176578786020846,-16128,9.88841201716738,-22,7.98780487804878,-131,1.34146341463415,-74,4.51219512195122,-13,0.0565217391304348,-46,-0.2,151,-0.736585365853659,
8862518,8066.40625,-576,0.353157572041692,-112,-0.0686695278969957,-16032,9.8295524218271,-11,7.37804878048781,-121,0.670731707317073,-93,5.67073170731707,-10,0.0434782608695652,-46,-0.2,150,-0.731707317073171,
8863158,8085.9375,-512,0.313917841814838,-144,-0.088289393010423,-16016,9.81974248927039,66,6.58536585365854,-108,-4.02439024390244,-76,4.63414634146342,-11,0.0478260869565217,-46,-0.2,150,-0.731707317073171,
8863798,8105.46875,-784,0.48068669527897,-192,-0.117719190680564,-16000,9.80993255671367,112,6.40243902439024,-105,-6.82926829268293,-45,2.74390243902439,-14,0.0608695652173913,-43,-0.18695652173913,150,-0.731707317073171,
8864438,8125,-1072,0.657265481299816,-336,-0.206008583690987,-15952,9.78050275904353,70,6.64634146341464,-109,-4.26829268292683,-16,0.975609756097561,-12,0.0521739130434783,-42,-0.182608695652174,151,-0.736585365853659,
8865078,8144.53125,-1120,0.686695278969957,-336,-0.206008583690987,-15808,9.69221336603311,24,6.89024390243902,-113,-1.46341463414634,3,-0.182926829268293,-10,0.0434782608695652,-46,-0.2,150,-0.731707317073171,
8865718,8164.0625,-1120,0.686695278969957,-160,-0.0980993255671367,-15680,9.6137339055794,-26,7.01219512195122,-115,1.58536585365854,16,-0.975609756097561,-10,0.0434782608695652,-43,-0.18695652173913,148,-0.721951219512195,
8866358,8183.59375,-928,0.568976088289393,-96,-0.058859595340282,-15680,9.6137339055794,-72,6.09756097560976,-100,4.39024390243902,19,-1.15853658536585,-12,0.0521739130434783,-42,-0.182608695652174,149,-0.726829268292683,
8866998,8203.125,-640,0.392397302268547,-32,-0.0196198651134273,-15712,9.63335377069283,-78,5.54878048780488,-91,4.75609756097561,17,-1.03658536585366,-13,0.0565217391304348,-43,-0.18695652173913,150,-0.731707317073171,
8867638,8222.65625,-592,0.362967504598406,80,0.0490496627835684,-15648,9.59411404046597,-59,5,-82,3.59756097560976,15,-0.914634146341463,-12,0.0521739130434783,-40,-0.173913043478261,149,-0.726829268292683,
8868278,8242.1875,-496,0.304107909258124,176,0.10790925812385,-15584,9.55487431023912,-37,3.96341463414634,-65,2.25609756097561,25,-1.52439024390244,-11,0.0478260869565217,-40,-0.173913043478261,150,-0.731707317073171,
8868918,8261.71875,-368,0.225628448804414,144,0.088289393010423,-15696,9.62354383813611,-19,2.68292682926829,-44,1.15853658536585,36,-2.19512195121951,-11,0.0478260869565217,-43,-0.18695652173913,150,-0.731707317073171,
8869558,8281.25,-272,0.166768853464132,-64,-0.0392397302268547,-15824,9.70202329858982,10,1.70731707317073,-28,-0.609756097560976,68,-4.14634146341463,-10,0.0434782608695652,-43,-0.18695652173913,150,-0.731707317073171,
8870198,8300.78125,-256,0.156958920907419,-224,-0.137339055793991,-15904,9.75107296137339,18,1.95121951219512,-32,-1.09756097560976,92,-5.60975609756098,-12,0.0521739130434783,-44,-0.191304347826087,151,-0.736585365853659,
8870838,8320.3125,-336,0.206008583690987,-32,-0.0196198651134273,-15936,9.77069282648682,-37,2.31707317073171,-38,2.25609756097561,96,-5.85365853658537,-13,0.0565217391304348,-46,-0.2,151,-0.736585365853659,
8871478,8339.84375,-192,0.117719190680564,-32,-0.0196198651134273,-15904,9.75107296137339,-100,2.5,-41,6.09756097560976,82,-5,-11,0.0478260869565217,-45,-0.195652173913043,150,-0.731707317073171,
8872118,8359.375,-80,0.0490496627835684,-256,-0.156958920907419,-16032,9.8295524218271,-133,2.4390243902439,-40,8.10975609756098,59,-3.59756097560976,-13,0.0565217391304348,-43,-0.18695652173913,151,-0.736585365853659,
8872758,8378.90625,-48,0.029429797670141,-224,-0.137339055793991,-15952,9.78050275904353,-135,3.17073170731707,-52,8.23170731707317,25,-1.52439024390244,-12,0.0521739130434783,-46,-0.2,151,-0.736585365853659,
8873398,8398.4375,48,-0.029429797670141,-48,-0.029429797670141,-15824,9.70202329858982,-143,2.4390243902439,-40,8.71951219512195,-8,0.487804878048781,-14,0.0608695652173913,-43,-0.18695652173913,150,-0.731707317073171,
8874038,8417.96875,128,-0.0784794604537094,80,0.0490496627835684,-15792,9.6824034334764,-113,1.28048780487805,-21,6.89024390243902,-39,2.37804878048781,-13,0.0565217391304348,-46,-0.2,150,-0.731707317073171,
8874678,8437.5,256,-0.156958920907419,256,0.156958920907419,-15936,9.77069282648682,-40,-0.426829268292683,7,2.4390243902439,-55,3.35365853658537,-12,0.0521739130434783,-47,-0.204347826086957,152,-0.741463414634146,
8875318,8457.03125,464,-0.284488044144696,-64,-0.0392397302268547,-16144,9.89822194972409,46,-1.76829268292683,29,-2.80487804878049,-35,2.13414634146341,-13,0.0565217391304348,-42,-0.182608695652174,152,-0.741463414634146,
8875958,8476.5625,128,-0.0784794604537094,-336,-0.206008583690987,-16224,9.94727161250766,142,-1.89024390243902,31,-8.65853658536586,-2,0.121951219512195,-12,0.0521739130434783,-41,-0.178260869565217,152,-0.741463414634146,
8876598,8496.09375,-208,0.127529123237278,-288,-0.176578786020846,-16320,10.0061312078479,131,-1.64634146341463,27,-7.98780487804878,9,-0.548780487804878,-11,0.0478260869565217,-44,-0.191304347826087,150,-0.731707317073171,
8877238,8515.625,-304,0.18638871857756,-448,-0.274678111587983,-16320,10.0061312078479,62,-0.914634146341463,15,-3.78048780487805,-11,0.670731707317073,-12,0.0521739130434783,-45,-0.195652173913043,152,-0.741463414634146,
8877878,8535.15625,-256,0.156958920907419,-496,-0.304107909258124,-16336,10.0159411404047,48,-0.365853658536585,6,-2.92682926829268,-41,2.5,-15,0.0652173913043478,-41,-0.178260869565217,150,-0.731707317073171,
8878518,8554.6875,-416,0.255058246474555,-496,-0.304107909258124,-16416,10.0649908031882,42,0.670731707317073,-11,-2.5609756097561,-55,3.35365853658537,-12,0.0521739130434783,-42,-0.182608695652174,150,-0.731707317073171,
8879158,8574.21875,-576,0.353157572041692,-336,-0.206008583690987,-16288,9.98651134273452,4,1.64634146341463,-27,-0.24390243902439,-60,3.65853658536585,-13,0.0565217391304348,-46,-0.2,151,-0.736585365853659,
8879798,8593.75,-560,0.343347639484979,-192,-0.117719190680564,-16112,9.87860208461067,-42,2.19512195121951,-36,2.5609756097561,-57,3.47560975609756,-12,0.0521739130434783,-40,-0.173913043478261,150,-0.731707317073171,
8880438,8613.28125,-400,0.245248313917842,-128,-0.0784794604537094,-15920,9.7608828939301,-62,2.01219512195122,-33,3.78048780487805,-50,3.04878048780488,-11,0.0478260869565217,-41,-0.178260869565217,150,-0.731707317073171,
8881078,8632.8125,-192,0.117719190680564,-272,-0.166768853464132,-15904,9.75107296137339,-6,0.975609756097561,-16,0.365853658536585,-29,1.76829268292683,-14,0.0608695652173913,-38,-0.165217391304348,150,-0.731707317073171,
8881718,8652.34375,-256,0.156958920907419,-272,-0.166768853464132,-16016,9.81974248927039,61,-0.0609756097560976,1,-3.71951219512195,-9,0.548780487804878,-13,0.0565217391304348,-43,-0.18695652173913,148,-0.721951219512195,
8882358,8671.875,-352,0.215818516247701,-160,-0.0980993255671367,-16224,9.94727161250766,94,-0.609756097560976,10,-5.73170731707317,0,0,-13,0.0565217391304348,-42,-0.182608695652174,149,-0.726829268292683,
8882998,8691.40625,-400,0.245248313917842,-112,-0.0686695278969957,-16336,10.0159411404047,97,-0.670731707317073,11,-5.91463414634146,-1,0.0609756097560976,-13,0.0565217391304348,-44,-0.191304347826087,149,-0.726829268292683,
8883638,8710.9375,-496,0.304107909258124,-208,-0.127529123237278,-16336,10.0159411404047,69,0.304878048780488,-5,-4.20731707317073,-9,0.548780487804878,-14,0.0608695652173913,-39,-0.169565217391304,149,-0.726829268292683,
8884278,8730.46875,-608,0.37277743715512,-288,-0.176578786020846,-16256,9.96689147762109,21,1.40243902439024,-23,-1.28048780487805,-18,1.09756097560976,-12,0.0521739130434783,-40,-0.173913043478261,150,-0.731707317073171,
8884918,8750,-464,0.284488044144696,-608,-0.37277743715512,-16240,9.95708154506438,-14,1.95121951219512,-32,0.853658536585366,-34,2.07317073170732,-13,0.0565217391304348,-39,-0.169565217391304,150,-0.731707317073171,
8885558,8769.53125,-400,0.245248313917842,-736,-0.451256897608829,-16208,9.93746167995095,-9,2.74390243902439,-45,0.548780487804878,-45,2.74390243902439,-12,0.0521739130434783,-43,-0.18695652173913,149,-0.726829268292683,
8886198,8789.0625,-528,0.323727774371551,-512,-0.313917841814838,-16208,9.93746167995095,-4,3.04878048780488,-50,0.24390243902439,-56,3.41463414634146,-11,0.0478260869565217,-46,-0.2,151,-0.736585365853659,
8886838,8808.59375,-560,0.343347639484979,-240,-0.147148988350705,-16160,9.90803188228081,-22,2.80487804878049,-46,1.34146341463415,-55,3.35365853658537,-13,0.0565217391304348,-41,-0.178260869565217,150,-0.731707317073171,
8887478,8828.125,-576,0.353157572041692,-352,-0.215818516247701,-16096,9.86879215205395,-41,2.98780487804878,-49,2.5,-56,3.41463414634146,-12,0.0521739130434783,-42,-0.182608695652174,151,-0.736585365853659,
8888118,8847.65625,-528,0.323727774371551,-272,-0.166768853464132,-16032,9.8295524218271,-26,2.6219512195122,-43,1.58536585365854,-56,3.41463414634146,-12,0.0521739130434783,-40,-0.173913043478261,150,-0.731707317073171,
8888758,8867.1875,-592,0.362967504598406,-192,-0.117719190680564,-16016,9.81974248927039,4,3.10975609756098,-51,-0.24390243902439,-55,3.35365853658537,-12,0.0521739130434783,-41,-0.178260869565217,150,-0.731707317073171,
8889398,8886.71875,-576,0.353157572041692,-272,-0.166768853464132,-16096,9.86879215205395,24,2.07317073170732,-34,-1.46341463414634,-49,2.98780487804878,-12,0.0521739130434783,-41,-0.178260869565217,149,-0.726829268292683,
8890038,8906.25,-576,0.353157572041692,-336,-0.206008583690987,-16208,9.93746167995095,42,1.89024390243902,-31,-2.5609756097561,-37,2.25609756097561,-13,0.0565217391304348,-37,-0.160869565217391,148,-0.721951219512195,
8890678,8925.78125,-656,0.402207234825261,-560,-0.343347639484979,-16320,10.0061312078479,22,1.89024390243902,-31,-1.34146341463415,-26,1.58536585365854,-13,0.0565217391304348,-39,-0.169565217391304,148,-0.721951219512195,
8891318,8945.3125,-480,0.29429797670141,-880,-0.539546290619252,-16480,10.1042305334151,-23,2.19512195121951,-36,1.40243902439024,-18,1.09756097560976,-14,0.0608695652173913,-42,-0.182608695652174,150,-0.731707317073171,
8891958,8964.84375,-528,0.323727774371551,-752,-0.461066830165543,-16528,10.1336603310852,-2,3.04878048780488,-50,0.121951219512195,-29,1.76829268292683,-12,0.0521739130434783,-42,-0.182608695652174,151,-0.736585365853659,
8892598,8984.375,-736,0.451256897608829,-704,-0.431637032495402,-16784,10.2906192519926,14,3.23170731707317,-53,-0.853658536585366,-41,2.5,-13,0.0565217391304348,-42,-0.182608695652174,148,-0.721951219512195,
8893238,9003.90625,-816,0.500306560392397,-272,-0.166768853464132,-16880,10.3494788473329,7,4.57317073170732,-75,-0.426829268292683,-57,3.47560975609756,-12,0.0521739130434783,-42,-0.182608695652174,149,-0.726829268292683,
8893878,9023.4375,-944,0.578786020846107,-256,-0.156958920907419,-16848,10.3298589822195,-14,5.85365853658537,-96,0.853658536585366,-60,3.65853658536585,-14,0.0608695652173913,-38,-0.165217391304348,149,-0.726829268292683,
8894518,9042.96875,-848,0.519926425505825,-416,-0.255058246474555,-16800,10.3004291845494,-43,7.31707317073171,-120,2.6219512195122,-46,2.80487804878049,-15,0.0652173913043478,-40,-0.173913043478261,150,-0.731707317073171,
8895158,9062.5,-672,0.412017167381974,-544,-0.333537706928265,-16640,10.2023298589822,-41,8.53658536585366,-140,2.5,-39,2.37804878048781,-11,0.0478260869565217,-38,-0.165217391304348,150,-0.731707317073171,
8895798,9082.03125,-800,0.490496627835684,-672,-0.412017167381974,-16416,10.0649908031882,-2,10,-164,0.121951219512195,-30,1.82926829268293,-13,0.0565217391304348,-40,-0.173913043478261,149,-0.726829268292683,
8896438,9101.5625,-656,0.402207234825261,-800,-0.490496627835684,-16496,10.1140404659718,-6,10.5487804878049,-173,0.365853658536585,-28,1.70731707317073,-14,0.0608695652173913,-36,-0.156521739130435,148,-0.721951219512195,
8897078,9121.09375,-688,0.421827099938688,-384,-0.235438381361128,-16272,9.9767014101778,-15,11.5243902439024,-189,0.914634146341463,-35,2.13414634146341,-14,0.0608695652173913,-37,-0.160869565217391,149,-0.726829268292683,
8897718,9140.625,-848,0.519926425505825,-144,-0.088289393010423,-16144,9.89822194972409,-47,12.2560975609756,-201,2.86585365853659,-43,2.6219512195122,-13,0.0565217391304348,-42,-0.182608695652174,150,-0.731707317073171,
8898358,9160.15625,-704,0.431637032495402,-96,-0.058859595340282,-15888,9.74126302881668,-98,12.9878048780488,-213,5.97560975609756,-29,1.76829268292683,-11,0.0478260869565217,-43,-0.18695652173913,149,-0.726829268292683,
8898998,9179.6875,-432,0.264868179031269,-336,-0.206008583690987,-15696,9.62354383813611,-100,12.9878048780488,-213,6.09756097560976,9,-0.548780487804878,-11,0.0478260869565217,-46,-0.2,151,-0.736585365853659,
8899638,9199.21875,-288,0.176578786020846,-176,-0.10790925812385,-15648,9.59411404046597,-91,12.3170731707317,-202,5.54878048780488,45,-2.74390243902439,-12,0.0521739130434783,-44,-0.191304347826087,152,-0.741463414634146,
8900278,9218.75,-80,0.0490496627835684,-208,-0.127529123237278,-15680,9.6137339055794,-114,10.4878048780488,-172,6.95121951219512,68,-4.14634146341463,-11,0.0478260869565217,-42,-0.182608695652174,150,-0.731707317073171,
8900918,9238.28125,208,-0.127529123237278,-416,-0.255058246474555,-15760,9.66278356836297,-134,8.17073170731707,-134,8.17073170731707,86,-5.24390243902439,-15,0.0652173913043478,-44,-0.191304347826087,151,-0.736585365853659,
8901558,9257.8125,240,-0.147148988350705,-624,-0.382587369711833,-16208,9.93746167995095,-88,6.46341463414634,-106,5.36585365853659,99,-6.03658536585366,-14,0.0608695652173913,-46,-0.2,151,-0.736585365853659,
8902198,9277.34375,288,-0.176578786020846,-544,-0.333537706928265,-16688,10.2317596566524,-94,5.91463414634146,-97,5.73170731707317,79,-4.81707317073171,-15,0.0652173913043478,-44,-0.191304347826087,150,-0.731707317073171,
8902838,9296.875,96,-0.058859595340282,-48,-0.029429797670141,-17008,10.4279583077866,-38,6.95121951219512,-114,2.31707317073171,58,-3.53658536585366,-14,0.0608695652173913,-42,-0.182608695652174,150,-0.731707317073171,
8903478,9316.40625,-288,0.176578786020846,400,0.245248313917842,-17296,10.6045370938075,24,7.92682926829268,-130,-1.46341463414634,46,-2.80487804878049,-15,0.0652173913043478,-41,-0.178260869565217,150,-0.731707317073171,
8904118,9335.9375,-416,0.255058246474555,400,0.245248313917842,-17232,10.5652973635806,0,10.9146341463415,-179,0,28,-1.70731707317073,-14,0.0608695652173913,-43,-0.18695652173913,150,-0.731707317073171,
8904758,9355.46875,-496,0.304107909258124,576,0.353157572041692,-17040,10.4475781729001,-29,13.8414634146341,-227,1.76829268292683,20,-1.21951219512195,-15,0.0652173913043478,-44,-0.191304347826087,152,-0.741463414634146,
8905398,9375,-416,0.255058246474555,896,0.549356223175966,-16832,10.3200490496628,-20,15.4268292682927,-253,1.21951219512195,29,-1.76829268292683,-14,0.0608695652173913,-47,-0.204347826086957,151,-0.736585365853659,
8906038,9394.53125,-160,0.0980993255671367,784,0.48068669527897,-16688,10.2317596566524,-13,15.7926829268293,-259,0.792682926829268,47,-2.86585365853659,-13,0.0565217391304348,-49,-0.21304347826087,152,-0.741463414634146,
8906678,9414.0625,32,-0.0196198651134273,896,0.549356223175966,-16768,10.2808093194359,33,15.3048780487805,-251,-2.01219512195122,66,-4.02439024390244,-13,0.0565217391304348,-45,-0.195652173913043,151,-0.736585365853659,
8907318,9433.59375,272,-0.166768853464132,976,0.598405885959534,-16960,10.3985285101165,107,14.5121951219512,-238,-6.52439024390244,70,-4.26829268292683,-15,0.0652173913043478,-44,-0.191304347826087,150,-0.731707317073171,
8907958,9453.125,672,-0.412017167381974,352,0.215818516247701,-17280,10.5947271612508,223,13.8414634146341,-227,-13.5975609756098,77,-4.69512195121951,-12,0.0521739130434783,-51,-0.221739130434783,151,-0.736585365853659,
8908598,9472.65625,320,-0.196198651134273,272,0.166768853464132,-17680,10.8399754751686,427,14.8780487804878,-244,-26.0365853658537,85,-5.18292682926829,-10,0.0434782608695652,-51,-0.221739130434783,151,-0.736585365853659,
8909238,9492.1875,-304,0.18638871857756,160,0.0980993255671367,-18144,11.1244635193133,463,18.2317073170732,-299,-28.2317073170732,65,-3.96341463414634,-9,0.0391304347826087,-48,-0.208695652173913,147,-0.717073170731707,
8909878,9511.71875,-848,0.519926425505825,48,0.029429797670141,-17920,10.9871244635193,376,23.109756097561,-379,-22.9268292682927,42,-2.5609756097561,-10,0.0434782608695652,-49,-0.21304347826087,145,-0.707317073170732,
8910518,9531.25,-992,0.608215818516248,240,0.147148988350705,-17440,10.6928264868179,228,26.4024390243902,-433,-13.9024390243902,10,-0.609756097560976,-9,0.0391304347826087,-46,-0.2,146,-0.712195121951219,
8911158,9550.78125,-624,0.382587369711833,592,0.362967504598406,-16896,10.3592887798896,101,28.7804878048781,-472,-6.15853658536585,-20,1.21951219512195,-11,0.0478260869565217,-53,-0.230434782608696,148,-0.721951219512195,
8911798,9570.3125,-352,0.215818516247701,688,0.421827099938688,-16112,9.87860208461067,106,30.4268292682927,-499,-6.46341463414634,-49,2.98780487804878,-8,0.0347826086956522,-51,-0.221739130434783,148,-0.721951219512195,
8912438,9589.84375,-688,0.421827099938688,784,0.48068669527897,-15152,9.29000613120785,164,31.4634146341463,-516,-10,-58,3.53658536585366,-12,0.0521739130434783,-49,-0.21304347826087,146,-0.712195121951219,
8913078,9609.375,-1104,0.676885346413243,1264,0.77498467198038,-13904,8.52483139178418,89,30.5487804878049,-501,-5.42682926829268,-70,4.26829268292683,-8,0.0347826086956522,-55,-0.239130434782609,147,-0.717073170731707,
8913718,9628.90625,-1216,0.745554874310239,1680,1.03004291845494,-12672,7.76946658491723,-105,26.5243902439024,-435,6.40243902439024,-68,4.14634146341463,-9,0.0391304347826087,-52,-0.226086956521739,145,-0.707317073170732,
8914358,9648.4375,-784,0.48068669527897,2032,1.24586143470264,-11920,7.30839975475169,-337,20.3658536585366,-334,20.5487804878049,-66,4.02439024390244,-10,0.0434782608695652,-52,-0.226086956521739,147,-0.717073170731707,
8914998,9667.96875,-16,0.00980993255671367,2688,1.6480686695279,-11648,7.14163090128755,-457,15.1829268292683,-249,27.8658536585366,-68,4.14634146341463,-8,0.0347826086956522,-58,-0.252173913043478,148,-0.721951219512195,
8915638,9687.5,656,-0.402207234825261,3216,1.97179644389945,-11344,6.95524218270999,-451,9.51219512195122,-156,27.5,-82,5,-12,0.0521739130434783,-51,-0.221739130434783,148,-0.721951219512195,
8916278,9707.03125,784,-0.48068669527897,3488,2.13856529736358,-11008,6.74923359901901,-308,2.86585365853659,-47,18.780487804878,-69,4.20731707317073,-11,0.0478260869565217,-53,-0.230434782608696,148,-0.721951219512195,
8916918,9726.5625,368,-0.225628448804414,3440,2.10913549969344,-10976,6.72961373390558,-181,-5.0609756097561,83,11.0365853658537,-23,1.40243902439024,-10,0.0434782608695652,-53,-0.230434782608696,148,-0.721951219512195,
8917558,9746.09375,272,-0.166768853464132,3440,2.10913549969344,-11392,6.98467198038013,-210,-12.3780487804878,203,12.8048780487805,10,-0.609756097560976,-12,0.0521739130434783,-52,-0.226086956521739,150,-0.731707317073171,
8918198,9765.625,816,-0.500306560392397,2864,1.75597792765175,-12256,7.51440833844267,-254,-19.8170731707317,325,15.4878048780488,21,-1.28048780487805,-12,0.0521739130434783,-54,-0.234782608695652,150,-0.731707317073171,
8918838,9785.15625,912,-0.559166155732679,2272,1.39301042305334,-13008,7.97547516860822,-120,-24.390243902439,400,7.31707317073171,45,-2.74390243902439,-15,0.0652173913043478,-49,-0.21304347826087,149,-0.726829268292683,
8919478,9804.6875,224,-0.137339055793991,2128,1.30472103004292,-13360,8.19129368485592,-15,-27.1341463414634,445,0.914634146341463,48,-2.92682926829268,-12,0.0521739130434783,-47,-0.204347826086957,149,-0.726829268292683,
8920118,9824.21875,-432,0.264868179031269,2160,1.32434089515635,-13344,8.1814837522992,-75,-29.8780487804878,490,4.57317073170732,85,-5.18292682926829,-13,0.0565217391304348,-47,-0.204347826086957,148,-0.721951219512195,
8920758,9843.75,16,-0.00980993255671367,1296,0.794604537093807,-14096,8.64255058246474,-145,-36.4634146341463,598,8.84146341463415,182,-11.0975609756098,-15,0.0652173913043478,-45,-0.195652173913043,150,-0.731707317073171,
8921398,9863.28125,704,-0.431637032495402,192,0.117719190680564,-15984,9.80012262415696,101,-41.9512195121951,688,-6.15853658536585,258,-15.7317073170732,-11,0.0478260869565217,-48,-0.208695652173913,151,-0.736585365853659,
8922038,9882.8125,208,-0.127529123237278,-64,-0.0392397302268547,-17888,10.9675045984059,473,-42.9268292682927,704,-28.8414634146341,234,-14.2682926829268,-13,0.0565217391304348,-47,-0.204347826086957,150,-0.731707317073171,
8922678,9902.34375,-1392,0.853464132434089,-288,-0.176578786020846,-18928,11.6051502145923,657,-38.5975609756098,633,-40.0609756097561,155,-9.45121951219512,-13,0.0565217391304348,-46,-0.2,148,-0.721951219512195,
8923318,9921.875,-2464,1.51072961373391,-768,-0.470876762722256,-19504,11.958307786634,499,-33.6585365853659,552,-30.4268292682927,92,-5.60975609756098,-10,0.0434782608695652,-48,-0.208695652173913,148,-0.721951219512195,
8923958,9941.40625,-2464,1.51072961373391,-1024,-0.627835683629675,-20144,12.3507050889025,177,-26.9512195121951,442,-10.7926829268293,34,-2.07317073170732,-11,0.0478260869565217,-46,-0.2,147,-0.717073170731707,
8924598,9960.9375,-1968,1.20662170447578,-1328,-0.814224402207235,-20288,12.4389944819129,-66,-12.2560975609756,201,4.02439024390244,-38,2.31707317073171,-10,0.0434782608695652,-44,-0.191304347826087,150,-0.731707317073171,
8925238,9980.46875,-1584,0.971183323114654,-1584,-0.971183323114654,-20224,12.3997547516861,-72,-6.40243902439024,105,4.39024390243902,-50,3.04878048780488,-11,0.0478260869565217,-47,-0.204347826086957,149,-0.726829268292683,
8925878,10000,-1456,0.892703862660944,-1344,-0.824034334763949,-19952,12.2329858982219,-96,-0.853658536585366,14,5.85365853658537,-47,2.86585365853659,-10,0.0434782608695652,-47,-0.204347826086957,150,-0.731707317073171,
8926518,10019.53125,-1136,0.696505211526671,-1120,-0.686695278969957,-19280,11.82096873084,-116,3.53658536585366,-58,7.07317073170732,-40,2.4390243902439,-12,0.0521739130434783,-42,-0.182608695652174,149,-0.726829268292683,
8927158,10039.0625,-1056,0.647455548743102,-1024,-0.627835683629675,-18432,11.3010423053341,-88,6.76829268292683,-111,5.36585365853659,-16,0.975609756097561,-12,0.0521739130434783,-43,-0.18695652173913,150,-0.731707317073171,
8927798,10058.59375,-816,0.500306560392397,-816,-0.500306560392397,-17712,10.859595340282,-86,8.35365853658537,-137,5.24390243902439,0,0,-11,0.0478260869565217,-46,-0.2,150,-0.731707317073171,
8928438,10078.125,-576,0.353157572041692,-736,-0.451256897608829,-17072,10.4671980380135,-51,9.51219512195122,-156,3.10975609756098,13,-0.792682926829268,-11,0.0478260869565217,-45,-0.195652173913043,150,-0.731707317073171,
8929078,10097.65625,-432,0.264868179031269,-592,-0.362967504598406,-16432,10.0748007357449,2,9.32926829268293,-153,-0.121951219512195,10,-0.609756097560976,-12,0.0521739130434783,-44,-0.191304347826087,149,-0.726829268292683,
8929718,10117.1875,-288,0.176578786020846,-512,-0.313917841814838,-15904,9.75107296137339,55,8.65853658536586,-142,-3.35365853658537,6,-0.365853658536585,-14,0.0608695652173913,-41,-0.178260869565217,148,-0.721951219512195,
8930358,10136.71875,-400,0.245248313917842,-528,-0.323727774371551,-15712,9.63335377069283,73,8.17073170731707,-134,-4.45121951219512,-3,0.182926829268293,-13,0.0565217391304348,-41,-0.178260869565217,148,-0.721951219512195,
8930998,10156.25,-496,0.304107909258124,-672,-0.412017167381974,-15648,9.59411404046597,43,8.23170731707317,-135,-2.6219512195122,-18,1.09756097560976,-13,0.0565217391304348,-43,-0.18695652173913,149,-0.726829268292683,
8931638,10175.78125,-528,0.323727774371551,-640,-0.392397302268547,-15616,9.57449417535254,31,7.6219512195122,-125,-1.89024390243902,-26,1.58536585365854,-12,0.0521739130434783,-39,-0.169565217391304,149,-0.726829268292683,
8932278,10195.3125,-640,0.392397302268547,-512,-0.313917841814838,-15648,9.59411404046597,6,7.31707317073171,-120,-0.365853658536585,-33,2.01219512195122,-12,0.0521739130434783,-41,-0.178260869565217,148,-0.721951219512195,
8932918,10214.84375,-608,0.37277743715512,-432,-0.264868179031269,-15728,9.64316370324954,0,6.89024390243902,-113,0,-27,1.64634146341463,-12,0.0521739130434783,-45,-0.195652173913043,148,-0.721951219512195,
8933558,10234.375,-800,0.490496627835684,-224,-0.137339055793991,-15712,9.63335377069283,-28,6.52439024390244,-107,1.70731707317073,-23,1.40243902439024,-11,0.0478260869565217,-47,-0.204347826086957,150,-0.731707317073171,
8934198,10253.90625,-672,0.412017167381974,-112,-0.0686695278969957,-15616,9.57449417535254,-31,5.24390243902439,-86,1.89024390243902,-12,0.731707317073171,-10,0.0434782608695652,-48,-0.208695652173913,149,-0.726829268292683,
8934838,10273.4375,-544,0.333537706928265,96,0.058859595340282,-15664,9.60392397302268,12,2.98780487804878,-49,-0.731707317073171,6,-0.365853658536585,-9,0.0391304347826087,-48,-0.208695652173913,151,-0.736585365853659,
8935478,10292.96875,-560,0.343347639484979,224,0.137339055793991,-15568,9.5450643776824,46,2.19512195121951,-36,-2.80487804878049,14,-0.853658536585366,-13,0.0565217391304348,-43,-0.18695652173913,149,-0.726829268292683,
8936118,10312.5,-464,0.284488044144696,240,0.147148988350705,-15648,9.59411404046597,52,1.28048780487805,-21,-3.17073170731707,28,-1.70731707317073,-14,0.0608695652173913,-42,-0.182608695652174,149,-0.726829268292683,
8936758,10332.03125,-336,0.206008583690987,128,0.0784794604537094,-15760,9.66278356836297,90,0.914634146341463,-15,-5.48780487804878,41,-2.5,-11,0.0478260869565217,-47,-0.204347826086957,150,-0.731707317073171,
8937398,10351.5625,-256,0.156958920907419,-96,-0.058859595340282,-16000,9.80993255671367,81,1.34146341463415,-22,-4.9390243902439,42,-2.5609756097561,-12,0.0521739130434783,-43,-0.18695652173913,149,-0.726829268292683,
8938038,10371.09375,-480,0.29429797670141,-128,-0.0784794604537094,-16096,9.86879215205395,30,1.46341463414634,-24,-1.82926829268293,28,-1.70731707317073,-14,0.0608695652173913,-44,-0.191304347826087,148,-0.721951219512195,
8938678,10390.625,-672,0.412017167381974,-128,-0.0784794604537094,-16144,9.89822194972409,-54,2.07317073170732,-34,3.29268292682927,17,-1.03658536585366,-11,0.0478260869565217,-44,-0.191304347826087,147,-0.717073170731707,
8939318,10410.15625,-448,0.274678111587983,-96,-0.058859595340282,-16080,9.85898221949724,-87,3.23170731707317,-53,5.30487804878049,-6,0.365853658536585,-11,0.0478260869565217,-46,-0.2,149,-0.726829268292683,
8939958,10429.6875,-528,0.323727774371551,-48,-0.029429797670141,-16032,9.8295524218271,-86,3.29268292682927,-54,5.24390243902439,-15,0.914634146341463,-11,0.0478260869565217,-41,-0.178260869565217,147,-0.717073170731707,
8940598,10449.21875,-432,0.264868179031269,48,0.029429797670141,-16000,9.80993255671367,-119,2.68292682926829,-44,7.25609756097561,-30,1.82926829268293,-13,0.0565217391304348,-44,-0.191304347826087,150,-0.731707317073171,
8941238,10468.75,-208,0.127529123237278,96,0.058859595340282,-16048,9.83936235438381,-63,2.19512195121951,-36,3.84146341463415,-29,1.76829268292683,-11,0.0478260869565217,-44,-0.191304347826087,150,-0.731707317073171,
8941878,10488.28125,-416,0.255058246474555,32,0.0196198651134273,-16128,9.88841201716738,11,1.34146341463415,-22,-0.670731707317073,-18,1.09756097560976,-13,0.0565217391304348,-44,-0.191304347826087,149,-0.726829268292683,
8942518,10507.8125,-672,0.412017167381974,32,0.0196198651134273,-16176,9.91784181483752,-15,1.28048780487805,-21,0.914634146341463,-13,0.792682926829268,-13,0.0565217391304348,-44,-0.191304347826087,148,-0.721951219512195,
8943158,10527.34375,-576,0.353157572041692,64,0.0392397302268547,-16336,10.0159411404047,-60,1.46341463414634,-24,3.65853658536585,-18,1.09756097560976,-14,0.0608695652173913,-41,-0.178260869565217,149,-0.726829268292683,
8943798,10546.875,-448,0.274678111587983,-64,-0.0392397302268547,-16176,9.91784181483752,-36,1.95121951219512,-32,2.19512195121951,-14,0.853658536585366,-11,0.0478260869565217,-47,-0.204347826086957,150,-0.731707317073171,
8944438,10566.40625,-512,0.313917841814838,-128,-0.0784794604537094,-16096,9.86879215205395,-29,2.25609756097561,-37,1.76829268292683,-9,0.548780487804878,-12,0.0521739130434783,-45,-0.195652173913043,150,-0.731707317073171,
8945078,10585.9375,-464,0.284488044144696,-208,-0.127529123237278,-16160,9.90803188228081,-43,2.5,-41,2.6219512195122,-13,0.792682926829268,-13,0.0565217391304348,-42,-0.182608695652174,149,-0.726829268292683,
8945718,10605.46875,-288,0.176578786020846,-224,-0.137339055793991,-16176,9.91784181483752,-39,2.5609756097561,-42,2.37804878048781,-9,0.548780487804878,-11,0.0478260869565217,-43,-0.18695652173913,148,-0.721951219512195,
