Sample, Time, ACCX, ACCY, ACCZ, MAGX, MAGY, MAGZ, GYRX, GYRY, GYRZ
0,63851.374000,-26.922,-20.237,-243.151,33.043,-345.322,-333.453,-25.500,-10.240,4.780
1,63851.401000,-24.964,-18.213,-241.174,37.866,-343.435,-330.587,-24.500,-32.240,8.780
2,63851.424000,-26.922,-17.202,-243.151,27.130,-348.175,-329.407,-19.500,-39.240,14.780
3,63851.447000,-30.837,-17.202,-243.151,30.091,-345.297,-332.416,-14.500,-32.240,13.780
4,63851.469000,-29.859,-17.202,-242.162,32.065,-347.249,-332.449,-7.500,-4.240,13.780
5,63851.486000,-26.922,-19.225,-243.151,30.056,-343.363,-331.433,-5.500,10.760,13.780
6,63851.509000,-26.922,-18.213,-243.151,31.043,-344.339,-331.449,-10.500,-15.240,11.780
7,63851.541000,-30.837,-19.225,-242.162,31.079,-348.209,-331.446,-12.500,-39.240,4.780
8,63851.562000,-30.837,-17.202,-245.127,32.983,-346.294,-329.513,-5.500,-18.240,4.780
9,63851.575000,-30.837,-18.213,-246.116,27.147,-346.238,-331.378,5.500,7.760,3.780
10,63851.599000,-30.837,-17.202,-246.116,32.983,-346.294,-329.513,8.500,9.760,4.780
11,63851.614000,-27.901,-19.225,-245.127,34.022,-347.267,-332.483,9.500,2.760,3.780
12,63851.631000,-27.901,-19.225,-245.127,32.983,-344.358,-330.499,4.500,-26.240,1.780
13,63851.645000,-28.880,-18.213,-244.139,24.264,-348.145,-333.294,6.500,-35.240,-1.220
14,63851.672000,-30.837,-18.213,-243.151,30.100,-348.200,-331.428,15.500,-13.240,-3.220
15,63851.689000,-29.859,-18.213,-243.151,30.074,-349.169,-329.458,20.500,17.760,-3.220
16,63851.712000,-26.922,-19.225,-242.162,29.103,-344.320,-332.400,21.500,26.760,1.780
17,63851.744000,-24.964,-20.237,-240.185,29.104,-348.192,-330.426,13.500,2.760,8.780
18,63851.759000,-24.964,-20.237,-240.185,32.066,-349.185,-331.462,4.500,-40.240,9.780
19,63851.776000,-27.901,-19.225,-240.185,34.931,-345.344,-329.548,5.500,-54.240,10.780
20,63851.819000,-31.816,-19.225,-239.197,25.207,-346.220,-332.328,11.500,-25.240,14.780
21,63851.829000,-30.837,-20.237,-241.174,27.138,-345.271,-331.379,18.500,20.760,22.780
22,63851.855000,-26.922,-20.237,-240.185,34.957,-346.311,-330.532,12.500,10.760,18.780
23,63851.868000,-26.922,-21.249,-237.220,37.867,-345.371,-329.600,-0.500,-20.240,10.780
24,63851.882000,-30.837,-20.237,-240.185,34.992,-346.309,-332.501,-6.500,-2.240,5.780
25,63851.904000,-30.837,-18.213,-239.197,31.044,-350.146,-328.489,-8.500,20.760,7.780
26,63851.926000,-27.901,-20.237,-241.174,27.130,-348.175,-329.407,-20.500,8.760,12.780
27,63851.949000,-24.964,-20.237,-241.174,27.147,-346.238,-331.378,-20.500,-34.240,15.780
28,63851.958000,-27.901,-19.225,-244.139,29.096,-349.160,-329.440,-19.500,-46.240,13.780
29,63851.992000,-32.795,-18.213,-244.139,31.035,-347.243,-329.477,-7.500,-21.240,12.780
30,63852.10000,-33.774,-18.213,-244.139,30.100,-348.200,-331.428,0.500,20.760,17.780
31,63852.33000,-31.816,-17.202,-242.162,33.997,-350.172,-329.526,5.500,29.760,16.780
32,63852.53000,-27.901,-18.213,-244.139,35.936,-348.255,-329.563,1.500,10.760,12.780
33,63852.75000,-30.837,-19.225,-245.127,28.134,-345.279,-332.381,3.500,-11.240,9.780
34,63852.103000,-29.859,-18.213,-244.139,31.070,-347.241,-331.447,6.500,-20.240,5.780
35,63852.122000,-33.774,-16.190,-242.162,32.058,-350.153,-330.476,14.500,6.760,5.780
36,63852.135000,-29.859,-19.225,-244.139,25.190,-348.156,-330.357,19.500,23.760,6.780
37,63852.144000,-27.901,-20.237,-242.162,27.182,-348.172,-332.361,20.500,25.760,1.780
38,63852.167000,-30.837,-18.213,-241.174,31.070,-347.241,-331.447,16.500,6.760,-0.220
39,63852.194000,-32.795,-16.190,-241.174,30.073,-345.298,-331.431,21.500,16.760,-0.220
40,63852.214000,-26.922,-20.237,-238.208,32.039,-346.283,-331.465,24.500,44.760,5.780
41,63852.234000,-25.943,-20.237,-238.208,31.086,-345.305,-333.418,15.500,21.760,5.780
42,63852.255000,-28.880,-20.237,-238.208,31.113,-346.271,-334.402,-1.500,-3.240,-0.220
43,63852.274000,-30.837,-19.225,-238.208,30.091,-345.297,-332.416,-8.500,-7.240,-3.220
44,63852.294000,-30.837,-20.237,-238.208,34.983,-345.341,-332.502,-13.500,0.760,-10.220
45,63852.303000,-28.880,-20.237,-239.197,30.091,-345.297,-332.416,-14.500,2.760,-12.220
46,63852.322000,-28.880,-21.249,-240.185,34.005,-345.332,-332.485,-23.500,-7.240,-16.220
47,63852.349000,-29.859,-19.225,-240.185,30.082,-346.265,-331.430,-33.500,-13.240,-24.220
48,63852.365000,-31.816,-18.213,-242.162,29.148,-349.157,-332.395,-33.500,-7.240,-24.220
49,63852.393000,-31.816,-18.213,-243.151,29.086,-346.257,-330.428,-27.500,13.760,-27.220
50,63852.415000,-29.859,-19.225,-243.151,29.120,-342.384,-334.371,-24.500,25.760,-27.220
51,63852.433000,-28.880,-18.213,-244.139,29.103,-342.385,-333.386,-19.500,22.760,-27.220
52,63852.455000,-28.880,-19.225,-243.151,29.103,-344.320,-332.400,-15.500,22.760,-25.220
53,63852.478000,-26.922,-19.225,-244.139,28.133,-343.343,-333.368,-14.500,25.760,-24.220
54,63852.504000,-24.964,-18.213,-245.127,34.013,-344.364,-333.471,-15.500,20.760,-24.220
55,63852.552000,-25.943,-20.237,-244.139,35.997,-347.284,-333.503,-16.500,10.760,-24.220
56,63852.552000,-23.985,-20.237,-242.162,35.000,-345.340,-333.487,-17.500,4.760,-23.220
57,63852.565000,-25.943,-19.225,-243.151,31.060,-342.402,-333.421,-18.500,-9.240,-22.220
58,63852.585000,-25.943,-18.213,-245.127,35.000,-345.340,-333.487,-11.500,10.760,-20.220
59,63852.605000,-24.964,-18.213,-244.139,27.207,-345.267,-335.318,-5.500,36.760,-12.220
60,63852.623000,-22.027,-17.202,-244.139,25.172,-342.350,-332.332,-5.500,32.760,-1.220
61,63852.647000,-22.027,-18.213,-241.174,27.224,-343.330,-337.290,-6.500,-4.240,3.780
62,63852.664000,-23.006,-19.225,-242.162,33.078,-345.320,-335.422,-6.500,-22.240,8.780
63,63852.687000,-26.922,-18.213,-241.174,27.189,-341.396,-336.307,-7.500,-19.240,10.780
64,63852.711000,-24.964,-17.202,-242.162,31.164,-344.332,-338.343,-6.500,11.760,14.780
65,63852.728000,-24.964,-19.225,-243.151,32.091,-346.280,-334.419,-13.500,-4.240,11.780
66,63852.744000,-25.943,-17.202,-245.127,29.103,-342.385,-333.386,-12.500,-9.240,6.780
67,63852.766000,-27.901,-18.213,-245.127,31.069,-343.370,-333.420,-5.500,6.760,8.780
68,63852.789000,-26.922,-18.213,-243.151,31.103,-343.368,-335.389,3.500,19.760,18.780
69,63852.809000,-23.985,-19.225,-243.151,32.046,-339.507,-335.411,1.500,9.760,21.780
70,63852.838000,-24.964,-20.237,-244.139,34.013,-344.364,-333.471,-2.500,-15.240,16.780
71,63852.856000,-26.922,-17.202,-244.139,25.215,-345.251,-333.314,-3.500,-27.240,12.780
72,63852.865000,-28.880,-16.190,-244.139,26.193,-343.324,-334.318,-1.500,-18.240,7.780
73,63852.888000,-27.901,-17.202,-245.127,26.176,-341.389,-334.320,4.500,17.760,8.780
74,63852.905000,-25.943,-17.202,-244.139,26.185,-344.293,-333.333,6.500,16.760,12.780
75,63852.928000,-25.943,-17.202,-243.151,30.133,-342.391,-336.358,4.500,0.760,8.780
76,63852.948000,-27.901,-16.190,-243.151,32.099,-343.376,-336.392,2.500,-8.240,2.780
77,63852.962000,-27.901,-17.202,-243.151,28.177,-344.309,-335.337,0.500,-14.240,-1.220
78,63852.990000,-27.901,-18.213,-245.127,23.266,-342.329,-335.252,5.500,1.760,-3.220
79,63853.23000,-27.901,-18.213,-243.151,26.219,-342.355,-336.289,7.500,14.760,-4.220
80,63853.48000,-26.922,-17.202,-241.174,32.081,-341.441,-336.394,5.500,15.760,-8.220
81,63853.65000,-28.880,-17.202,-242.162,31.059,-340.467,-334.408,6.500,25.760,-9.220
82,63853.83000,-25.943,-18.213,-244.139,23.293,-343.296,-336.236,8.500,32.760,-7.220
83,63853.100000,-22.027,-19.225,-244.139,27.223,-341.395,-338.277,4.500,9.760,-7.220
84,63853.114000,-23.985,-17.202,-243.151,28.167,-339.470,-337.311,4.500,-12.240,-7.220
85,63853.137000,-26.922,-15.178,-242.162,27.189,-341.396,-336.307,13.500,0.760,-1.220
86,63853.157000,-26.922,-15.178,-244.139,34.029,-340.491,-336.429,25.500,35.760,4.780
87,63853.179000,-24.964,-19.225,-244.139,32.082,-343.377,-335.407,31.500,44.760,10.780
88,63853.201000,-23.985,-20.237,-243.151,33.007,-339.517,-334.443,26.500,44.760,7.780
89,63853.221000,-23.006,-20.237,-243.151,27.180,-340.429,-336.308,22.500,11.760,5.780
90,63853.239000,-23.985,-20.237,-246.116,34.021,-341.460,-335.443,19.500,-17.240,3.780
91,63853.261000,-26.922,-19.225,-246.116,33.094,-341.448,-338.380,25.500,8.760,4.780
92,63853.281000,-23.006,-20.237,-244.139,22.304,-338.448,-338.193,-730.500,84.760,-6.220
93,63853.310000,52.375,-94.103,-268.849,20.222,-356.827,-321.399,-241.500,-1074.240,302.780
94,63853.313000,-89.576,-67.794,-242.162,26.146,-358.814,-323.470,331.500,-301.240,-89.220
95,63853.338000,-171.809,-51.605,-274.780,25.240,-338.475,-338.245,290.500,1392.760,-164.220
96,63853.360000,-4.405,-1.012,-250.069,29.178,-333.669,-342.258,352.500,1282.760,-82.220
97,63853.408000,47.480,-45.534,-230.301,28.285,-329.784,-349.138,-57.500,492.760,-46.220
98,63853.416000,-32.795,17.202,-259.954,32.140,-334.662,-343.294,-179.500,-227.240,-192.220
99,63853.430000,-28.880,-25.296,-256.000,32.148,-333.694,-344.279,-5.500,-157.240,-33.220
100,63853.450000,-8.321,-17.202,-251.058,26.234,-332.675,-342.207,18.500,29.760,-18.220
101,63853.459000,-16.153,-17.202,-245.127,25.272,-330.729,-344.161,29.500,-23.240,-13.220
102,63853.493000,-19.090,-21.249,-243.151,31.187,-331.748,-346.234,45.500,13.760,-3.220
103,63853.513000,-5.384,-22.261,-240.185,33.110,-333.704,-343.312,51.500,42.760,2.780
104,63853.535000,-17.132,-23.273,-238.208,34.997,-331.790,-340.394,25.500,-50.240,11.780
105,63853.550000,-17.132,-22.261,-242.162,28.227,-336.562,-342.238,22.500,-50.240,17.780
106,63853.573000,-16.153,-23.273,-239.197,30.148,-332.711,-342.276,22.500,-35.240,16.780
107,63853.593000,-20.069,-23.273,-239.197,32.148,-333.694,-344.279,8.500,-39.240,11.780
108,63853.613000,-18.111,-20.237,-240.185,31.170,-333.685,-344.262,8.500,-7.240,7.780
109,63853.625000,-22.027,-18.213,-242.162,25.308,-334.599,-344.157,17.500,10.760,17.780
110,63853.639000,-15.174,-21.249,-244.139,35.067,-333.722,-343.347,28.500,48.760,35.780
111,63853.667000,-14.195,-21.249,-244.139,33.126,-331.767,-345.283,26.500,15.760,46.780
112,63853.691000,-16.153,-21.249,-243.151,29.213,-331.731,-345.214,31.500,-17.240,52.780
113,63853.716000,337.254,447.241,-153.205,20.491,-325.839,-352.942,35.500,-26.240,-336.220
114,63853.734000,10.279,-130.530,-191.753,11.549,-335.446,-339.975,-834.500,-1752.240,1157.780
115,63853.751000,-310.822,-64.759,-303.444,20.266,-357.793,-323.367,292.500,-1867.240,-431.220
116,63853.774000,-73.912,39.462,-285.652,22.355,-332.638,-344.107,643.500,1303.760,-113.220
117,63853.797000,76.849,-121.423,-234.255,22.431,-325.858,-351.992,311.500,1667.760,166.780
118,63853.820000,39.648,34.403,-234.255,27.383,-322.995,-357.005,-193.500,327.760,-144.220
119,63853.834000,-30.837,32.379,-261.931,24.387,-322.004,-354.000,-76.500,-190.240,-127.220
120,63853.850000,-23.985,-41.486,-269.838,23.374,-323.933,-351.027,-13.500,6.760,-51.220
121,63853.873000,-3.426,-11.130,-270.826,29.271,-323.017,-353.101,-2.500,-29.240,-50.220
122,63853.895000,-20.069,-6.071,-264.896,26.353,-324.925,-353.047,22.500,-63.240,-20.220
123,63853.918000,-16.153,-17.202,-252.046,30.258,-323.993,-353.117,78.500,67.760,12.780
124,63853.940000,8.321,-19.225,-245.127,24.413,-321.035,-355.971,97.500,95.760,3.780
125,63853.955000,-1.468,-22.261,-241.174,25.410,-326.850,-354.013,62.500,-85.240,14.780
126,63853.969000,-12.237,-19.225,-240.185,30.276,-325.928,-353.115,63.500,-95.240,27.780
127,63853.997000,-10.279,-21.249,-237.220,24.387,-323.940,-353.014,61.500,-84.240,33.780
128,63854.17000,-17.132,-21.249,-237.220,28.328,-328.814,-352.093,51.500,-44.240,31.780
129,63854.40000,-15.174,-23.273,-234.255,28.276,-324.945,-351.112,44.500,21.760,26.780
130,63854.58000,-12.237,-23.273,-235.243,25.332,-325.887,-350.075,34.500,22.760,15.780
131,63854.80000,-15.174,-21.249,-236.232,27.271,-323.970,-350.111,17.500,10.760,13.780
132,63854.103000,-13.216,-22.261,-239.197,31.325,-329.805,-355.098,11.500,-4.240,15.780
133,63854.134000,-15.174,-22.261,-243.151,34.155,-325.966,-351.215,12.500,-2.240,26.780
134,63854.150000,-13.216,-21.249,-243.151,23.510,-312.310,-364.825,16.500,-8.240,36.780
135,63854.172000,56.291,-240.822,-193.730,14.611,-324.818,-352.840,245.500,-1554.240,980.780
136,63854.191000,-37.690,-132.553,-216.463,14.478,-346.120,-334.108,-594.500,-1611.240,-356.220
137,63854.211000,-190.409,4.047,-281.699,14.409,-344.188,-331.155,106.500,-40.240,-71.220
138,63854.230000,-41.606,20.237,-267.861,15.480,-335.480,-341.029,294.500,713.760,65.780
139,63854.256000,15.174,-14.166,-253.035,16.432,-332.587,-341.049,261.500,548.760,79.780
140,63854.275000,-4.405,-20.237,-265.884,21.393,-332.628,-345.075,244.500,74.760,-2.220
141,63854.294000,-31.816,-8.095,-262.919,23.376,-331.676,-347.080,-59.500,232.760,-101.220
142,63854.319000,-8.321,-6.071,-270.826,25.315,-327.823,-348.103,33.500,181.760,-28.220
143,63854.345000,-3.426,-18.213,-269.838,30.278,-331.735,-350.155,31.500,-40.240,-19.220
144,63854.355000,-24.964,-9.107,-262.919,22.458,-330.696,-351.003,77.500,-8.240,1.780
145,63854.375000,-12.237,-12.142,-252.046,26.311,-327.831,-349.105,104.500,29.760,21.780
146,63854.401000,-6.363,-18.213,-246.116,26.303,-330.735,-347.133,90.500,-43.240,19.780
147,63854.416000,-15.174,-16.190,-244.139,23.402,-330.707,-349.050,92.500,-30.240,37.780
148,63854.443000,-13.216,-17.202,-242.162,21.401,-327.788,-348.034,97.500,-2.240,43.780
149,63854.452000,-17.132,-18.213,-239.197,24.389,-329.747,-350.053,95.500,13.760,48.780
150,63854.483000,-14.195,-19.225,-233.266,24.345,-326.846,-349.072,94.500,42.760,49.780
151,63854.485000,-11.258,-22.261,-230.301,27.316,-330.742,-349.120,71.500,43.760,47.780
152,63854.511000,-13.216,-23.273,-232.278,28.285,-329.784,-349.138,43.500,25.760,40.780
153,63854.534000,-13.216,-24.285,-236.232,24.354,-327.813,-349.071,23.500,-20.240,26.780
154,63854.555000,-15.174,-25.296,-238.208,22.397,-327.796,-349.036,11.500,-37.240,19.780
155,63854.578000,-18.111,-22.261,-241.174,30.269,-330.768,-350.156,18.500,-8.240,19.780
156,63854.595000,-294.180,276.237,-133.436,21.487,-327.783,-352.958,-1571.500,1883.760,-635.220
157,63854.618000,137.545,-94.103,-145.297,13.550,-340.301,-340.005,-973.500,-907.240,560.780
158,63854.627000,-169.851,-69.818,-234.255,6.710,-341.206,-339.883,11.500,-796.240,-399.220
159,63854.654000,-157.124,8.095,-288.618,11.685,-327.695,-351.800,435.500,1091.760,-91.220
160,63854.670000,-3.426,-8.095,-265.884,16.576,-319.996,-355.833,544.500,1036.760,40.780
161,63854.710000,69.017,-66.783,-242.162,15.640,-317.081,-359.758,-198.500,99.760,-32.220
162,63854.728000,18.111,9.107,-240.185,18.568,-321.948,-356.851,-180.500,-452.240,-217.220
163,63854.742000,-19.090,-21.249,-278.734,20.491,-323.903,-353.929,-75.500,-198.240,-123.220
164,63854.765000,-21.048,-6.071,-273.792,24.422,-325.874,-353.996,-26.500,-132.240,-107.220
165,63854.784000,-24.964,-5.059,-261.931,29.289,-326.888,-352.112,13.500,-20.240,-74.220
166,63854.810000,5.384,-14.166,-251.058,17.589,-321.939,-356.833,98.500,194.760,-29.220
167,63854.833000,9.300,-17.202,-246.116,24.386,-320.068,-354.987,105.500,106.760,-18.220
168,63854.850000,2.447,-17.202,-244.139,28.257,-321.074,-352.101,88.500,-60.240,11.780
169,63854.865000,-3.426,-15.178,-241.174,25.392,-324.915,-354.015,99.500,-152.240,43.780
170,63854.888000,-7.342,-15.178,-238.208,21.479,-326.815,-352.959,121.500,-122.240,88.780
171,63854.910000,-5.384,-18.213,-235.243,21.479,-326.815,-352.959,137.500,-44.240,129.780
172,63854.925000,-2.447,-23.273,-233.266,26.345,-325.893,-352.061,137.500,-20.240,154.780
173,63854.947000,-4.405,-26.308,-234.255,24.441,-329.744,-353.008,130.500,-32.240,158.780
174,63854.983000,-10.279,-28.332,-241.174,31.237,-325.938,-352.148,103.500,-85.240,154.780
175,63855.2000,-17.132,-27.320,-242.162,27.334,-334.613,-348.131,81.500,-110.240,144.780
176,63855.15000,137.545,-208.443,-119.598,12.697,-323.830,-355.760,-1750.500,1577.760,-18.220
177,63855.38000,-183.556,-190.229,-211.521,-3.320,-365.328,-313.097,-1127.500,-3116.240,733.780
178,63855.55000,-370.539,-16.190,-310.363,5.402,-373.156,-304.382,156.500,-1170.240,-492.220
179,63855.78000,-104.260,8.095,-287.629,12.412,-358.691,-321.259,504.500,2002.760,-57.220
180,63855.95000,20.069,-30.356,-262.919,18.439,-324.859,-347.985,613.500,2238.760,30.780
181,63855.109000,71.954,16.190,-242.162,12.679,-319.960,-356.749,118.500,1137.760,-32.220
182,63855.140000,-31.816,-8.095,-276.757,18.635,-316.137,-363.750,95.500,624.760,-138.220
183,63855.164000,-43.564,-34.403,-294.548,22.478,-306.497,-364.814,210.500,624.760,-114.220
184,63855.171000,-6.363,-14.166,-300.479,26.518,-293.943,-378.682,347.500,1040.760,-74.220
185,63855.189000,-5.384,-13.154,-293.560,31.478,-286.240,-386.655,525.500,1373.760,54.780
186,63855.210000,5.384,-21.249,-274.780,39.343,-260.176,-402.576,701.500,1961.760,153.780
187,63855.236000,50.417,-33.391,-257.977,53.111,-226.420,-424.517,861.500,2402.760,237.780
188,63855.257000,82.723,-48.569,-248.093,52.066,-206.089,-431.413,969.500,2557.760,309.780
189,63855.269000,97.407,-57.676,-234.255,63.746,-163.611,-450.374,1050.500,2797.760,460.780
190,63855.283000,120.902,-65.771,-212.510,78.304,-137.618,-457.553,1094.500,2946.760,601.780
191,63855.315000,149.293,-78.925,-174.950,93.705,-89.379,-468.711,1156.500,3233.760,691.780
192,63855.340000,193.346,-100.174,-128.494,95.544,-65.206,-474.679,1102.500,3300.760,861.780
193,63855.365000,241.315,-109.281,-91.923,105.915,-20.803,-475.899,867.500,2825.760,1009.780
194,63855.380000,256.979,-108.269,-62.270,109.730,-6.325,-477.952,513.500,1840.760,1094.780
195,63855.401000,236.421,-113.328,-21.745,115.522,0.392,-477.078,75.500,735.760,1082.780
196,63855.435000,208.031,-121.423,3.954,109.721,-3.422,-478.940,-490.500,-81.240,1088.780
197,63855.454000,199.220,-109.281,8.896,95.167,-14.896,-479.653,-1072.500,-731.240,1105.780
198,63855.454000,174.746,-74.877,-24.710,70.972,-41.760,-480.178,-1431.500,-1372.240,1161.780
199,63855.479000,117.966,-60.711,-55.351,52.435,-53.203,-476.883,-1485.500,-1543.240,1198.780
200,63855.499000,78.807,-64.759,-48.432,21.312,-80.977,-472.362,-1532.500,-1408.240,1255.780
201,63855.521000,73.912,-47.557,-30.641,14.490,-85.753,-471.252,-1663.500,-956.240,1291.780
202,63855.539000,76.849,-14.166,-42.502,-23.608,-97.985,-467.610,-1885.500,-674.240,1307.780
203,63855.561000,36.711,15.178,-105.761,-62.805,-108.279,-458.044,-2013.500,-726.240,1273.780
204,63855.584000,-0.489,23.273,-140.355,-82.452,-112.945,-450.800,-2054.500,-705.240,1129.780
205,63855.598000,-3.426,35.415,-139.367,-118.766,-119.397,-440.306,-2215.500,-702.240,918.780
206,63855.630000,-9.300,70.830,-154.193,-136.481,-126.986,-430.139,-2352.500,-769.240,681.780
207,63855.645000,-45.522,112.316,-197.683,-174.927,-129.559,-411.735,-2350.500,-763.240,421.780
208,63855.663000,-95.449,147.731,-239.197,-189.725,-131.368,-403.596,-2267.500,-379.240,332.780
209,63855.699000,-115.029,168.980,-254.023,-218.372,-122.414,-392.270,-2112.500,450.760,174.780
210,63855.727000,-82.723,186.182,-238.208,-227.512,-102.995,-383.271,-1986.500,1194.760,-31.220
211,63855.745000,-41.606,195.289,-226.347,-259.051,-94.980,-373.863,-1896.500,1326.760,-292.220
212,63855.759000,-51.396,186.182,-258.965,-278.951,-89.013,-357.766,-1859.500,1039.760,-619.220
213,63855.774000,-90.554,175.051,-308.386,-285.922,-85.086,-352.725,-1790.500,963.760,-986.220
214,63855.797000,-122.860,209.455,-329.143,-303.813,-79.134,-339.618,-1547.500,1322.760,-1389.220
215,63855.819000,-111.113,251.953,-318.270,-307.823,-76.200,-335.612,-1226.500,1863.760,-1771.220
216,63855.834000,-69.996,270.166,-300.479,-314.814,-64.531,-333.534,-1071.500,2121.760,-1975.220
217,63855.856000,-33.774,273.202,-307.398,-314.910,-61.633,-329.597,-861.500,2438.760,-2347.220
218,63855.876000,29.859,280.285,-327.166,-313.896,-63.575,-330.598,-674.500,2310.760,-2744.220
219,63855.896000,75.870,303.557,-321.236,-318.796,-68.371,-327.552,-437.500,1722.760,-3038.220
220,63855.912000,69.996,320.759,-320.247,-310.828,-74.241,-332.608,-106.500,1314.760,-3008.220
221,63855.928000,97.407,320.759,-312.340,-296.815,-85.963,-344.656,156.500,1204.760,-3029.220
222,63855.945000,175.725,340.996,-346.934,-296.717,-98.540,-343.658,435.500,848.760,-3232.220
223,63855.973000,184.535,359.210,-376.587,-275.802,-112.257,-357.795,867.500,1142.760,-3192.220
224,63855.990000,168.872,357.186,-385.483,-260.900,-110.442,-371.843,1521.500,1568.760,-2658.220
225,63856.13000,201.178,327.842,-340.015,-227.322,-101.048,-395.090,1810.500,2034.760,-2348.220
226,63856.38000,279.495,301.534,-291.583,-210.325,-99.243,-417.051,2169.500,1342.760,-1889.220
227,63856.65000,290.264,278.261,-341.992,-167.060,-113.174,-422.723,2247.500,46.760,-1828.220
228,63856.93000,218.799,279.273,-341.004,-123.658,-121.289,-439.232,2455.500,-236.240,-1796.220
229,63856.112000,269.706,266.119,-290.595,-104.957,-112.740,-450.402,2857.500,867.760,-1373.220
230,63856.120000,378.371,235.763,-217.452,-47.188,-92.937,-464.245,3138.500,1222.760,-824.220
231,63856.148000,397.950,193.265,-203.614,-14.828,-95.163,-467.769,3108.500,146.760,-434.220
232,63856.163000,331.380,176.063,-194.718,36.186,-104.329,-471.614,2972.500,-689.240,-159.220
233,63856.183000,301.033,162.909,-172.973,55.705,-108.381,-467.032,2950.500,-701.240,-2.220
234,63856.201000,299.075,130.530,-141.344,103.592,-115.596,-460.980,2950.500,-365.240,387.780
235,63856.228000,303.969,95.115,-111.691,152.449,-123.788,-453.959,2907.500,-122.240,787.780
236,63856.247000,305.927,65.771,-85.992,168.020,-127.807,-447.339,2735.500,-302.240,1118.780
237,63856.260000,277.537,51.605,-70.178,202.187,-153.288,-430.193,2502.500,-743.240,1368.780
238,63856.273000,222.715,42.498,-61.282,220.703,-164.108,-420.664,2322.500,-900.240,1647.780
239,63856.305000,196.283,15.178,-41.514,242.107,-192.380,-399.351,2175.500,-609.240,1995.780
240,63856.323000,183.556,-16.190,-27.676,244.932,-201.124,-388.562,1959.500,-404.240,2275.780
241,63856.343000,163.977,-32.379,-24.710,250.750,-229.250,-370.912,1682.500,-392.240,2456.780
242,63856.364000,131.671,-34.403,-12.849,247.856,-256.322,-359.015,1562.500,-461.240,2532.780
243,63856.388000,92.512,-33.391,-4.942,253.652,-268.963,-348.274,1336.500,-416.240,2679.780
244,63856.410000,57.270,-24.285,3.954,230.192,-291.978,-337.003,1096.500,-139.240,2791.780
245,63856.430000,26.922,-28.332,9.884,227.250,-302.598,-331.032,855.500,335.760,2876.780
246,63856.452000,12.237,-32.379,8.896,198.115,-314.902,-336.409,569.500,773.760,2902.780
247,63856.474000,-2.447,-20.237,8.896,180.563,-317.642,-338.064,254.500,1035.760,2874.780
248,63856.490000,-19.090,-13.154,-1.977,145.562,-315.373,-351.230,-29.500,1089.760,2803.780
249,63856.510000,-35.732,-9.107,-12.849,134.911,-316.237,-356.947,-352.500,1046.760,2662.780
250,63856.537000,-41.606,-1.012,-37.560,97.840,-311.053,-365.157,-524.500,1002.760,2580.780
251,63856.554000,-48.459,19.225,-69.189,58.812,-305.851,-373.333,-879.500,805.760,2394.780
252,63856.572000,-78.807,39.462,-82.039,33.422,-303.681,-376.824,-1143.500,616.760,2145.780
253,63856.594000,-118.945,52.617,-94.888,-2.846,-290.773,-379.151,-1318.500,812.760,1886.780
254,63856.608000,-127.755,57.676,-118.610,-18.418,-280.947,-388.731,-1476.500,1439.760,1615.780
255,63856.630000,-73.912,62.735,-124.541,-52.708,-245.793,-403.917,-1704.500,2041.760,1303.780
256,63856.653000,-40.627,80.949,-142.332,-69.381,-230.157,-409.547,-1969.500,2033.760,970.780
257,63856.682000,-52.375,101.186,-166.054,-105.810,-195.964,-413.865,-2164.500,1821.760,572.780
258,63856.697000,-51.396,114.340,-166.054,-138.307,-167.613,-416.276,-2331.500,1904.760,183.780
259,63856.715000,-14.195,128.506,-188.788,-163.916,-152.873,-413.872,-2409.500,1921.760,29.780
260,63856.733000,5.384,166.957,-216.463,-193.599,-120.683,-411.415,-2501.500,1919.760,-295.220
261,63856.758000,6.363,206.419,-220.417,-206.494,-112.834,-405.290,-2455.500,1930.760,-544.220
262,63856.783000,1.468,230.704,-207.568,-232.418,-82.625,-393.053,-2361.500,2189.760,-744.220
263,63856.799000,42.585,230.704,-230.301,-252.242,-71.814,-383.855,-2313.500,2183.760,-971.220
264,63856.826000,59.228,240.822,-270.826,-275.140,-57.113,-368.700,-2251.500,1655.760,-1287.220
265,63856.841000,17.132,262.071,-286.641,-286.095,-53.155,-359.651,-2033.500,1560.760,-1549.220
266,63856.864000,-9.300,282.308,-289.606,-308.022,-41.367,-342.541,-1790.500,2061.760,-1776.220
267,63856.890000,26.922,279.273,-326.178,-322.061,-30.614,-328.523,-1671.500,2249.760,-1918.220
268,63856.908000,83.702,279.273,-366.703,-327.021,-36.381,-321.537,-1473.500,1930.760,-2241.220
269,63856.935000,93.491,297.486,-397.344,-333.902,-49.871,-312.539,-1284.500,1111.760,-2603.220
270,63856.949000,62.164,334.925,-402.286,-339.815,-56.596,-306.520,-962.500,1050.760,-2846.220
271,63856.965000,71.954,361.233,-401.297,-339.673,-68.202,-308.478,-461.500,1640.760,-2932.220
272,63856.978000,140.482,355.162,-409.205,-332.754,-72.132,-310.565,94.500,1774.760,-2889.220
273,63857.5000,191.388,340.996,-379.552,-317.823,-82.899,-319.676,542.500,1252.760,-2764.220
274,63857.23000,200.199,332.901,-355.830,-302.691,-98.493,-337.646,878.500,817.760,-2641.220
275,63857.46000,205.094,328.854,-349.900,-295.702,-106.291,-341.698,1203.500,845.760,-2588.220
276,63857.68000,213.904,316.711,-344.958,-266.847,-117.169,-363.854,1399.500,876.760,-2526.220
277,63857.88000,235.442,299.510,-314.317,-248.064,-121.198,-373.042,1779.500,911.760,-2223.220
278,63857.110000,253.063,289.391,-295.537,-217.350,-123.389,-394.256,2063.500,607.760,-1853.220
279,63857.128000,257.958,281.296,-289.606,-197.510,-132.262,-405.426,2241.500,274.760,-1643.220
280,63857.145000,251.105,274.213,-290.595,-153.139,-137.483,-422.941,2420.500,138.760,-1515.220
281,63857.168000,245.231,259.036,-287.629,-132.513,-136.698,-428.229,2605.500,266.760,-1312.220
282,63857.188000,249.147,247.905,-262.919,-87.209,-135.155,-446.752,2779.500,294.760,-951.220
283,63857.215000,269.706,222.609,-240.185,-42.059,-139.428,-453.453,2816.500,-54.240,-616.220
284,63857.244000,285.369,201.360,-239.197,-13.586,-144.520,-456.904,2805.500,-304.240,-511.220
285,63857.258000,251.105,187.194,-252.046,41.210,-145.018,-457.873,2842.500,-466.240,-330.220
286,63857.280000,233.484,167.968,-252.046,63.724,-148.126,-457.283,2959.500,-14.240,-97.220
287,63857.298000,258.937,165.945,-210.533,111.591,-143.727,-456.166,3036.500,338.760,310.780
288,63857.320000,272.642,144.696,-163.089,133.014,-141.993,-451.625,2992.500,292.760,806.780
289,63857.340000,281.453,109.281,-156.170,171.013,-151.060,-438.504,2859.500,-109.240,1202.780
290,63857.360000,261.874,88.032,-128.494,206.044,-169.781,-418.429,2656.500,-479.240,1490.780
291,63857.377000,225.652,72.854,-104.772,225.599,-179.639,-412.856,2485.500,-572.240,1745.780
292,63857.398000,156.145,42.498,-45.467,249.876,-199.230,-392.589,2345.500,-306.240,2036.780
293,63857.418000,136.566,2.024,-39.537,252.772,-213.778,-382.779,2263.500,-173.240,2182.780
294,63857.444000,121.881,-21.249,-54.363,259.506,-235.140,-365.153,2004.500,-52.240,2399.780
295,63857.467000,103.281,-22.261,-44.479,259.449,-247.726,-355.293,1762.500,-201.240,2468.780
296,63857.481000,56.291,-12.142,-23.722,260.382,-272.903,-339.529,1605.500,-208.240,2518.780
297,63857.503000,24.964,-7.083,2.965,258.410,-284.501,-332.589,1493.500,325.760,2640.780
298,63857.525000,16.153,-17.202,31.629,247.736,-296.013,-331.402,1295.500,1194.760,2808.780
299,63857.545000,20.069,-51.605,43.490,225.474,-299.666,-342.817,864.500,1705.760,2906.780
300,63857.560000,29.859,-67.794,23.722,209.878,-294.681,-348.454,235.500,1475.760,2802.780
301,63857.574000,15.174,-50.593,4.942,185.581,-299.289,-354.910,-53.500,1187.760,2592.780
302,63857.593000,-15.174,-37.439,4.942,164.114,-298.122,-358.469,-480.500,607.760,2488.780
303,63857.635000,-27.901,-14.166,7.907,129.124,-304.564,-367.687,-828.500,516.760,2295.780
304,63857.648000,-47.480,18.213,-17.792,103.787,-302.391,-374.133,-1168.500,904.760,2158.780
305,63857.675000,-68.038,35.415,-73.143,60.842,-287.475,-387.173,-1439.500,1271.760,1979.780
306,63857.684000,-67.059,36.427,-88.958,25.758,-266.820,-405.281,-1566.500,1598.760,1751.780
307,63857.709000,-41.606,52.617,-69.189,3.196,-249.197,-410.809,-1815.500,1907.760,1512.780
308,63857.727000,-16.153,81.960,-104.772,-40.807,-227.501,-422.854,-2151.500,1722.760,1269.780
309,63857.749000,-26.922,109.281,-136.402,-54.560,-217.700,-424.591,-2374.500,1134.760,940.780
310,63857.780000,-24.964,125.470,-146.286,-97.844,-196.028,-421.881,-2501.500,914.760,845.780
311,63857.789000,-27.901,156.838,-192.741,-123.538,-187.099,-411.593,-2826.500,649.760,647.780
312,63857.811000,-47.480,188.206,-219.429,-169.719,-178.949,-403.894,-2916.500,528.760,368.780
313,63857.834000,-103.281,219.573,-205.591,-206.336,-154.445,-392.446,-2815.500,1243.760,44.780
314,63857.854000,-103.281,225.644,-195.707,-224.145,-133.002,-392.156,-2643.500,2646.760,-295.220
315,63857.869000,38.669,211.478,-212.510,-250.141,-93.118,-380.914,-2519.500,3345.760,-676.220
316,63857.892000,116.987,219.573,-245.127,-267.947,-81.354,-375.690,-2444.500,2252.760,-1075.220
317,63857.914000,38.669,252.964,-238.208,-291.840,-72.452,-356.573,-2437.500,1276.760,-1319.220
318,63857.937000,-24.964,291.415,-265.884,-308.796,-65.544,-341.514,-2397.500,1660.760,-1520.220
319,63857.952000,13.216,316.711,-324.201,-322.842,-59.631,-324.537,-2312.500,1981.760,-1679.220
320,63857.974000,56.291,320.759,-341.992,-331.918,-54.727,-311.584,-2035.500,2064.760,-2046.220
321,63857.998000,32.795,334.925,-350.888,-347.702,-59.431,-301.455,-1697.500,1831.760,-2322.220
322,63858.27000,57.270,347.067,-390.425,-353.781,-59.390,-289.534,-1314.500,2145.760,-2496.220
323,63858.30000,113.071,353.138,-427.985,-361.651,-64.160,-284.467,-932.500,2119.760,-2754.220
324,63858.71000,150.272,361.233,-442.811,-357.586,-78.706,-285.506,-482.500,1662.760,-2953.220
325,63858.85000,160.061,357.186,-425.019,-352.588,-84.552,-288.541,53.500,1243.760,-2821.220
326,63858.108000,162.019,344.032,-405.251,-337.621,-101.124,-296.662,542.500,895.760,-2515.220
327,63858.122000,162.998,350.103,-413.158,-332.545,-109.869,-302.649,755.500,761.760,-2388.220
328,63858.144000,172.788,348.079,-422.054,-303.688,-128.490,-320.858,1180.500,632.760,-2325.220
329,63858.167000,200.199,359.210,-401.297,-279.752,-138.357,-341.943,1593.500,792.760,-2459.220
330,63858.174000,229.568,352.126,-360.772,-263.792,-145.258,-356.000,2042.500,980.760,-2436.220
331,63858.194000,270.685,322.783,-317.282,-212.460,-147.631,-381.516,2441.500,988.760,-2068.220
332,63858.217000,272.642,299.510,-274.780,-190.640,-143.938,-400.612,2721.500,726.760,-1432.220
333,63858.233000,271.663,291.415,-259.954,-149.180,-144.292,-422.018,2877.500,334.760,-950.220
334,63858.250000,282.432,277.249,-237.220,-125.548,-149.336,-428.337,2962.500,-48.240,-723.220
335,63858.275000,255.021,258.024,-226.347,-82.251,-151.650,-441.898,3028.500,-227.240,-558.220
336,63858.308000,219.778,222.609,-234.255,-53.745,-152.869,-449.292,3078.500,-121.240,-460.220
337,63858.323000,236.421,203.383,-209.544,0.140,-149.482,-456.156,3131.500,210.760,-217.220
338,63858.350000,270.685,199.336,-185.822,51.057,-153.815,-457.052,3097.500,112.760,34.780
339,63858.377000,267.748,175.051,-168.031,78.473,-155.999,-457.535,3016.500,-104.240,346.780
340,63858.395000,257.958,149.755,-141.344,120.438,-165.099,-447.438,2887.500,-149.240,725.780
341,63858.402000,246.210,125.470,-119.598,135.038,-166.204,-442.772,2735.500,-277.240,1099.780
342,63858.422000,229.568,98.150,-99.830,171.124,-180.091,-429.612,2549.500,-446.240,1421.780
343,63858.452000,212.925,67.794,-84.015,186.687,-188.950,-420.033,2349.500,-562.240,1685.780
344,63858.469000,186.493,53.628,-63.259,209.095,-212.389,-402.681,2246.500,-626.240,1802.780
345,63858.490000,159.082,30.356,-53.375,221.735,-239.611,-384.169,2018.500,-688.240,2009.780
346,63858.508000,130.692,15.178,-54.363,221.626,-250.264,-372.341,1823.500,-669.240,2175.780
347,63858.526000,92.512,10.119,-51.398,229.443,-277.437,-357.680,1672.500,-477.240,2323.780
348,63858.548000,62.164,-4.047,-44.479,220.561,-284.137,-349.640,1540.500,-45.240,2463.780
349,63858.562000,48.459,-18.213,-42.502,206.926,-298.527,-345.444,1360.500,287.760,2591.780
350,63858.589000,50.417,-25.296,-35.583,206.954,-305.301,-343.468,1126.500,461.760,2680.780
351,63858.612000,26.922,-21.249,-26.687,186.443,-316.727,-339.154,875.500,578.760,2754.780
352,63858.634000,-3.426,-34.403,-22.734,168.865,-318.500,-339.825,526.500,710.760,2759.780
353,63858.649000,-12.237,-37.439,-33.606,151.436,-327.041,-345.413,357.500,725.760,2705.780
354,63858.669000,-25.943,-35.415,-40.525,116.331,-324.778,-352.670,62.500,644.760,2496.780
355,63858.692000,-45.522,-31.368,-48.432,106.510,-318.884,-353.488,-169.500,761.760,2263.780
356,63858.717000,-92.512,-20.237,-70.178,73.465,-312.761,-368.662,-339.500,1178.760,2049.780
357,63858.729000,-80.765,-21.249,-80.062,67.653,-305.929,-375.458,-588.500,1644.760,1848.780
358,63858.754000,-52.375,-4.047,-87.969,33.564,-283.347,-395.555,-905.500,1748.760,1609.780
359,63858.777000,-54.333,21.249,-96.865,14.969,-269.628,-402.133,-1234.500,1560.760,1399.780
360,63858.797000,-69.017,44.522,-98.842,-17.344,-248.041,-411.431,-1473.500,1459.760,1136.780
361,63858.819000,-69.996,57.676,-106.749,-48.749,-218.725,-420.755,-1660.500,1606.760,877.780
362,63858.842000,-44.543,59.700,-147.274,-58.521,-201.213,-430.447,-1775.500,2055.760,757.780
363,63858.860000,-2.447,70.830,-165.066,-92.015,-167.046,-434.816,-1963.500,2080.760,436.780
364,63858.893000,-9.300,108.269,-163.089,-114.680,-153.300,-432.463,-2143.500,1729.760,46.780
365,63858.899000,-19.090,131.542,-170.008,-149.201,-128.806,-428.927,-2286.500,1492.760,-272.220
366,63858.918000,9.300,153.802,-208.556,-156.166,-118.104,-427.832,-2431.500,1518.760,-515.220
367,63858.940000,29.859,180.111,-224.371,-194.652,-99.385,-418.313,-2497.500,1421.760,-757.220
368,63858.965000,24.964,201.360,-249.081,-223.411,-87.533,-402.067,-2527.500,1130.760,-979.220
369,63858.980000,22.027,218.561,-259.954,-239.232,-86.432,-392.928,-2471.500,933.760,-1198.220
370,63859.3000,23.985,225.644,-276.757,-264.155,-79.461,-369.853,-2421.500,926.760,-1294.220
371,63859.20000,13.216,227.668,-326.178,-270.111,-81.348,-363.838,-2327.500,948.760,-1513.220
372,63859.38000,4.405,245.881,-370.656,-300.747,-82.057,-345.575,-2174.500,943.760,-1843.220
373,63859.64000,-20.069,266.119,-375.598,-302.815,-86.885,-336.673,-1879.500,1082.760,-2186.220
374,63859.82000,-14.195,303.557,-369.668,-314.730,-88.724,-325.631,-1553.500,1536.760,-2446.220
375,63859.104000,45.522,323.794,-378.564,-322.575,-90.589,-323.521,-1174.500,1862.760,-2671.220
376,63859.122000,88.597,325.818,-382.517,-326.469,-98.296,-320.490,-816.500,1678.760,-2883.220
377,63859.143000,83.702,326.830,-401.297,-317.565,-110.953,-319.648,-465.500,1310.760,-2950.220
378,63859.165000,102.302,329.866,-387.459,-308.627,-115.865,-324.723,-46.500,1212.760,-2841.220
379,63859.185000,112.092,326.830,-361.761,-298.598,-125.620,-333.749,177.500,1115.760,-2736.220
380,63859.202000,140.482,326.830,-353.853,-278.834,-139.337,-338.020,567.500,976.760,-2611.220
381,63859.219000,162.019,325.818,-363.737,-261.861,-144.309,-355.051,900.500,904.760,-2603.220
382,63859.255000,155.166,313.676,-359.784,-251.945,-149.230,-360.143,1275.500,899.760,-2562.220
383,63859.269000,188.451,306.593,-343.969,-219.265,-150.470,-382.377,1657.500,1084.760,-2341.220
384,63859.287000,233.484,312.664,-322.224,-175.848,-150.841,-403.818,1951.500,1054.760,-2138.220
385,63859.305000,249.147,275.225,-330.131,-160.002,-152.908,-413.941,2246.500,665.760,-1868.220
386,63859.328000,238.379,244.870,-335.073,-110.801,-151.402,-431.549,2501.500,473.760,-1476.220
387,63859.348000,267.748,244.870,-318.270,-94.044,-155.418,-436.763,2608.500,463.760,-1280.220
388,63859.367000,308.864,236.775,-322.224,-45.942,-155.845,-446.474,2730.500,90.760,-1003.220
389,63859.389000,309.843,235.763,-298.502,-15.469,-161.920,-451.928,2851.500,-369.240,-789.220
390,63859.417000,265.790,233.739,-246.116,36.383,-165.296,-450.872,3029.500,-414.240,-341.220
391,63859.439000,260.895,189.217,-208.556,66.718,-171.379,-448.449,3083.500,-354.240,156.780
392,63859.457000,270.685,161.897,-170.996,107.756,-182.403,-440.302,2981.500,-672.240,489.780
393,63859.474000,241.315,135.589,-148.263,153.656,-203.152,-425.338,2844.500,-1028.240,677.780
394,63859.497000,185.514,116.364,-120.587,165.278,-209.073,-415.692,2738.500,-837.240,875.780
395,63859.519000,152.229,90.055,-91.923,197.416,-224.862,-399.507,2638.500,-280.240,1163.780
396,63859.537000,141.461,54.640,-72.154,216.823,-227.953,-389.018,2558.500,-17.240,1324.780
397,63859.560000,144.398,22.261,-61.282,235.226,-237.811,-373.580,2339.500,261.760,1581.780
398,63859.588000,141.461,0.000,-54.363,237.185,-245.572,-369.668,2075.500,130.760,1743.780
399,63859.615000,125.797,-18.213,-45.467,254.594,-259.295,-351.255,1825.500,-36.240,1869.780
400,63859.644000,102.302,-21.249,-37.560,248.684,-275.698,-340.303,1589.500,98.760,2017.780
401,63859.647000,75.870,-20.237,-25.699,251.569,-281.535,-334.440,1389.500,461.760,2193.780
402,63859.665000,69.996,-43.510,-29.653,236.964,-293.012,-332.199,1069.500,639.760,2367.780
403,63859.683000,74.891,-65.771,-48.432,234.081,-298.790,-332.142,735.500,515.760,2469.780
404,63859.703000,80.765,-55.652,-48.432,208.739,-311.136,-330.694,576.500,374.760,2530.780
405,63859.725000,47.480,-31.368,-38.548,192.159,-318.725,-329.408,344.500,196.760,2550.780
406,63859.752000,9.300,-27.320,-29.653,163.975,-328.135,-334.805,144.500,505.760,2636.780
407,63859.765000,0.489,-33.391,-51.398,150.345,-328.006,-338.502,-140.500,886.760,2710.780
408,63859.788000,5.384,-13.154,-76.108,113.379,-328.624,-349.660,-359.500,962.760,2708.780
409,63859.810000,-3.426,8.095,-90.934,76.325,-323.439,-358.855,-494.500,891.760,2634.780
410,63859.828000,-28.880,26.308,-82.039,58.762,-315.533,-365.445,-608.500,1083.760,2515.780
411,63859.853000,-50.417,33.391,-67.212,21.732,-303.571,-379.571,-844.500,1460.760,2364.780
412,63859.868000,-42.585,49.581,-75.120,0.167,-287.891,-385.114,-1105.500,1509.760,2101.780
413,63859.874000,-50.417,67.794,-98.842,-39.956,-268.169,-394.272,-1241.500,1480.760,1947.780
414,63859.894000,-55.312,63.747,-120.587,-52.627,-260.307,-400.948,-1549.500,1291.760,1640.780
415,63859.925000,-55.312,74.877,-123.552,-90.007,-230.943,-404.259,-1861.500,1327.760,1257.780
416,63859.948000,-81.744,115.352,-143.320,-127.370,-203.514,-407.568,-2051.500,1591.760,947.780
417,63859.965000,-85.660,137.613,-175.938,-150.000,-189.765,-407.184,-2128.500,1900.760,664.780
418,63859.988000,-56.291,142.672,-171.985,-177.727,-153.722,-406.735,-2267.500,1968.760,311.780
419,63860.25000,-22.027,156.838,-185.822,-191.567,-141.991,-404.535,-2420.500,1817.760,-88.220
420,63860.44000,-31.816,177.075,-238.208,-219.412,-117.569,-391.273,-2454.500,1473.760,-547.220
421,63860.60000,-60.207,233.739,-298.502,-237.138,-116.448,-385.054,-2390.500,1471.760,-969.220
422,63860.78000,-54.333,275.225,-271.815,-259.015,-96.913,-374.845,-2167.500,1744.760,-1086.220
423,63860.100000,-17.132,289.391,-297.514,-274.019,-74.537,-367.715,-1892.500,2315.760,-1267.220
424,63860.115000,28.880,261.059,-351.876,-290.906,-63.753,-358.569,-1640.500,2377.760,-1558.220
425,63860.136000,36.711,250.941,-384.494,-296.060,-57.915,-346.671,-1483.500,1884.760,-1918.220
426,63860.157000,27.901,278.261,-390.425,-305.940,-56.864,-341.575,-1301.500,1424.760,-2280.220
427,63860.174000,19.090,312.664,-355.830,-310.857,-63.596,-336.558,-934.500,1434.760,-2605.220
428,63860.200000,55.312,318.735,-334.085,-314.727,-66.462,-337.471,-520.500,1957.760,-2772.220
429,63860.222000,136.566,299.510,-371.645,-305.886,-64.604,-340.583,-240.500,2119.760,-2905.220
430,63860.237000,185.514,300.522,-382.517,-307.764,-71.357,-341.526,-111.500,1795.760,-2992.220
431,63860.273000,173.767,320.759,-345.946,-293.792,-89.857,-347.658,174.500,951.760,-3086.220
432,63860.292000,136.566,326.830,-349.900,-278.862,-98.687,-357.757,502.500,762.760,-2970.220
433,63860.305000,166.914,328.854,-351.876,-260.088,-99.814,-367.932,978.500,1411.760,-2862.220
434,63860.328000,259.916,306.593,-355.830,-230.467,-95.226,-386.182,1486.500,1903.760,-2741.220
435,63860.340000,337.254,273.202,-347.923,-223.410,-95.277,-398.120,1864.500,1421.760,-2479.220
436,63860.361000,332.359,260.047,-326.178,-185.854,-98.497,-418.470,2079.500,474.760,-2124.220
437,63860.385000,290.264,259.036,-306.409,-161.227,-101.614,-426.777,2258.500,74.760,-1745.220
438,63860.408000,302.011,247.905,-294.548,-123.722,-108.709,-442.199,2451.500,124.760,-1398.220
439,63860.430000,324.528,216.538,-272.803,-77.534,-108.149,-454.831,2532.500,172.760,-1235.220
440,63860.448000,315.717,195.289,-249.081,-55.859,-115.111,-460.128,2641.500,-74.240,-919.220
441,63860.470000,295.159,181.123,-220.417,-6.821,-118.453,-465.914,2717.500,-234.240,-509.220
442,63860.485000,282.432,155.826,-204.602,12.670,-115.732,-463.309,2748.500,-226.240,-119.220
443,63860.508000,279.495,128.506,-189.776,60.714,-124.874,-465.133,2732.500,-276.240,194.780
444,63860.536000,272.642,102.198,-184.834,82.207,-128.943,-461.570,2688.500,-304.240,480.780
445,63860.538000,259.916,91.067,-167.042,127.133,-135.164,-454.482,2664.500,-179.240,757.780
446,63860.555000,240.337,80.949,-149.251,143.655,-136.290,-447.882,2653.500,46.760,1142.780
447,63860.583000,248.168,59.700,-121.575,176.839,-144.340,-439.600,2609.500,151.760,1347.780
448,63860.603000,252.084,39.462,-99.830,211.921,-159.187,-424.452,2423.500,51.760,1702.780
449,63860.625000,218.799,25.296,-90.934,216.755,-166.011,-417.638,2173.500,-277.240,1947.780
450,63860.645000,177.683,26.308,-78.085,233.230,-184.561,-399.203,1975.500,-306.240,2181.780
451,63860.663000,147.335,21.249,-57.328,241.105,-201.084,-393.417,1844.500,5.760,2426.780
452,63860.690000,128.734,7.083,-37.560,244.962,-213.705,-383.625,1664.500,414.760,2672.780
453,63860.714000,123.839,-11.130,-31.629,240.098,-224.306,-379.589,1369.500,554.760,2880.780
454,63860.740000,116.008,-17.202,-29.653,236.284,-244.591,-374.576,1052.500,330.760,3011.780
455,63860.759000,90.554,-6.071,-19.768,219.663,-260.894,-366.387,752.500,216.760,3074.780
456,63860.792000,43.564,11.130,-16.803,211.958,-270.494,-368.208,635.500,213.760,3091.780
457,63860.805000,-3.426,13.154,-13.838,181.748,-276.019,-371.605,448.500,648.760,3077.780
458,63860.815000,-21.048,-8.095,-17.792,159.373,-278.711,-377.113,166.500,1209.760,3011.780
459,63860.835000,-0.489,-34.403,-33.606,132.165,-278.451,-387.461,-259.500,1284.760,2857.780
460,63860.853000,12.237,-25.296,-36.571,109.711,-274.372,-391.990,-738.500,855.760,2628.780
461,63860.867000,-2.447,0.000,-37.560,70.736,-276.910,-399.174,-1139.500,396.760,2354.780
462,63860.898000,-51.396,33.391,-49.421,55.054,-275.802,-397.913,-1360.500,420.760,2053.780
463,63860.919000,-79.786,38.451,-69.189,19.904,-264.830,-407.148,-1500.500,1069.760,1804.780
464,63860.942000,-69.996,48.569,-93.900,-21.252,-237.358,-417.281,-1572.500,1409.760,1654.780
465,63860.959000,-58.249,59.700,-107.737,-44.809,-221.663,-420.821,-1724.500,1921.760,1351.780
466,63860.985000,-49.438,66.783,-115.645,-72.336,-186.576,-431.204,-1933.500,2087.760,1039.780
467,63860.999000,-37.690,92.079,-107.737,-93.954,-168.963,-434.780,-2208.500,2094.760,723.780
468,63861.34000,1.468,126.482,-119.598,-136.383,-137.628,-430.128,-2497.500,1865.760,447.780
469,63861.59000,8.321,141.660,-171.985,-157.134,-124.869,-424.854,-2717.500,1264.760,113.780
470,63861.59000,-21.048,154.814,-216.463,-198.571,-111.932,-411.338,-2836.500,1026.760,-227.220
471,63861.73000,-42.585,185.170,-236.232,-232.268,-95.199,-395.010,-2889.500,1330.760,-602.220
472,63861.95000,-56.291,224.632,-257.977,-249.164,-85.384,-384.878,-2731.500,1524.760,-1001.220
473,63861.115000,-30.837,257.012,-269.838,-271.093,-69.724,-369.741,-2598.500,1960.760,-1204.220
474,63861.137000,-13.216,282.308,-280.710,-289.020,-59.903,-356.638,-2327.500,2194.760,-1536.220
475,63861.163000,16.153,289.391,-287.629,-311.936,-41.331,-342.472,-2200.500,2283.760,-1756.220
476,63861.183000,50.417,284.332,-337.050,-323.886,-41.236,-330.447,-2039.500,1825.760,-2063.220
477,63861.212000,42.585,299.510,-342.981,-330.906,-48.927,-316.531,-1707.500,1474.760,-2315.220
478,63861.215000,4.405,330.877,-311.351,-336.934,-45.010,-309.538,-1221.500,1978.760,-2360.220
479,63861.243000,27.901,355.162,-284.664,-349.767,-43.933,-303.406,-814.500,2494.760,-2333.220
480,63861.265000,109.155,329.866,-334.085,-350.753,-48.764,-300.429,-562.500,1880.760,-2571.220
481,63861.284000,163.977,296.474,-365.714,-345.772,-58.483,-300.506,-472.500,1378.760,-2780.220
482,63861.300000,131.671,314.688,-369.668,-340.675,-76.906,-302.543,-225.500,989.760,-3163.220
483,63861.323000,103.281,354.150,-391.413,-339.505,-84.647,-309.446,341.500,1778.760,-3220.220
484,63861.350000,158.103,381.470,-377.575,-318.654,-83.849,-327.536,1046.500,2528.760,-2931.220
485,63861.365000,260.895,363.257,-357.807,-302.782,-81.076,-341.603,1607.500,2136.760,-2455.220
486,63861.390000,296.138,316.711,-326.178,-271.028,-88.111,-363.814,1994.500,1161.760,-1982.220
487,63861.413000,260.895,308.617,-314.317,-235.369,-90.343,-388.069,2335.500,576.760,-1576.220
488,63861.445000,304.948,299.510,-279.722,-215.504,-92.440,-404.170,2636.500,606.760,-1285.220
489,63861.464000,318.654,268.142,-270.826,-182.903,-90.780,-423.453,2794.500,593.760,-1172.220
490,63861.478000,310.822,235.763,-253.035,-152.415,-87.175,-434.826,2857.500,374.760,-1104.220
491,63861.493000,327.465,223.621,-208.556,-105.163,-84.683,-453.385,2955.500,354.760,-769.220
492,63861.509000,323.549,205.407,-190.764,-83.540,-89.713,-456.715,2944.500,-62.240,-311.220
493,63861.543000,310.822,182.134,-189.776,-34.379,-100.791,-465.447,2851.500,-663.240,-1.220
494,63861.549000,258.937,174.040,-179.892,-10.755,-106.804,-470.780,2776.500,-933.240,156.780
495,63861.574000,232.505,154.814,-170.996,31.358,-118.799,-467.574,2786.500,-622.240,378.780
496,63861.595000,229.568,131.542,-156.170,74.403,-122.095,-466.363,2809.500,-180.240,697.780
497,63861.615000,247.189,99.162,-122.564,103.716,-125.268,-462.940,2753.500,-17.240,998.780
498,63861.634000,268.727,80.949,-102.795,138.857,-133.336,-454.692,2653.500,-104.240,1132.780
499,63861.662000,250.126,63.747,-95.876,152.480,-144.112,-445.076,2396.500,-581.240,1379.780
500,63861.677000,196.283,55.652,-95.876,176.940,-166.597,-433.669,2156.500,-946.240,1618.780
501,63861.694000,163.977,28.332,-87.969,190.572,-178.340,-424.052,2034.500,-813.240,1880.780
502,63861.727000,170.830,4.047,-72.154,204.173,-201.700,-406.545,1868.500,-577.240,2086.780
503,63861.753000,169.851,-17.202,-56.340,213.939,-227.923,-391.920,1599.500,-660.240,2222.780
504,63861.767000,158.103,-27.320,-69.189,211.986,-245.327,-383.005,1252.500,-935.240,2256.780
505,63861.783000,110.134,-8.095,-83.027,206.071,-276.249,-364.160,1036.500,-1117.240,2283.780
506,63861.815000,63.143,3.036,-91.923,195.268,-288.737,-355.094,1011.500,-845.240,2368.780
507,63861.818000,28.880,1.012,-79.073,186.406,-308.986,-341.131,1035.500,-524.240,2440.780
508,63861.834000,20.069,-9.107,-58.317,177.619,-314.712,-339.000,1016.500,251.760,2593.780
509,63861.868000,30.837,-13.154,-42.502,161.106,-318.425,-343.626,846.500,756.760,2657.780
510,63861.890000,26.922,-15.178,-42.502,132.861,-323.000,-348.043,598.500,851.760,2706.780
511,63861.905000,-4.405,-6.071,-51.398,119.266,-322.869,-353.709,346.500,806.760,2717.780
512,63861.928000,-32.795,-1.012,-47.444,95.877,-321.682,-359.203,99.500,939.760,2650.780
513,63861.948000,-43.564,0.000,-41.514,72.470,-316.625,-365.686,-213.500,1175.760,2494.780
514,63861.968000,-54.333,7.083,-51.398,42.245,-299.889,-379.938,-554.500,1374.760,2231.780
515,63861.990000,-63.143,8.095,-76.108,27.644,-294.911,-386.577,-718.500,1402.760,2078.780
516,63862.10000,-69.996,26.308,-97.853,-0.772,-273.362,-394.959,-1008.500,1375.760,1721.780
517,63862.29000,-86.639,47.557,-93.900,-21.272,-261.557,-403.470,-1209.500,1556.760,1432.780
518,63862.52000,-87.618,66.783,-91.923,-52.618,-227.398,-418.707,-1429.500,2106.760,1224.780
519,63862.72000,-60.207,70.830,-107.737,-85.152,-185.498,-426.056,-1675.500,2498.760,980.780
520,63862.104000,-32.795,74.877,-141.344,-96.942,-168.939,-431.774,-1952.500,2280.760,670.780
521,63862.119000,-13.216,95.115,-161.112,-128.590,-135.765,-429.284,-2182.500,1769.760,289.780
522,63862.143000,-27.901,124.459,-158.147,-149.262,-127.842,-425.974,-2320.500,1526.760,-75.220
523,63862.160000,-50.417,154.814,-168.031,-186.841,-99.457,-417.466,-2444.500,1824.760,-418.220
524,63862.179000,-27.901,168.980,-213.498,-196.785,-87.762,-414.351,-2502.500,2025.760,-578.220
525,63862.183000,12.237,187.194,-261.931,-233.462,-62.294,-399.949,-2568.500,2001.760,-982.220
526,63862.210000,25.943,222.609,-248.093,-259.304,-50.470,-382.770,-2531.500,1751.760,-1366.220
527,63862.228000,30.837,254.988,-226.347,-277.143,-44.515,-372.617,-2446.500,1631.760,-1603.220
528,63862.240000,53.354,274.213,-248.093,-299.043,-39.501,-353.531,-2358.500,1564.760,-1852.220
529,63862.274000,67.059,284.332,-295.537,-316.864,-39.353,-341.402,-2182.500,1425.760,-2092.220
530,63862.295000,58.249,293.439,-309.375,-334.743,-45.983,-322.374,-1957.500,1468.760,-2248.220
531,63862.314000,43.564,319.747,-318.270,-336.839,-44.037,-315.448,-1534.500,1843.760,-2405.220
532,63862.337000,43.564,347.067,-276.757,-344.927,-42.045,-301.525,-1277.500,2155.760,-2426.220
533,63862.352000,95.449,349.091,-286.641,-351.776,-41.983,-301.403,-835.500,2490.760,-2609.220
534,63862.375000,157.124,324.806,-337.050,-349.800,-49.743,-298.476,-512.500,2157.760,-2786.220
535,63862.388000,150.272,323.794,-372.633,-349.615,-62.315,-302.402,-171.500,1685.760,-2928.220
536,63862.415000,157.124,344.032,-353.853,-342.661,-66.243,-306.459,259.500,1754.760,-2878.220
537,63862.438000,186.493,358.198,-344.958,-328.649,-72.157,-321.466,731.500,1824.760,-2791.220
538,63862.460000,229.568,347.067,-354.842,-314.802,-77.113,-327.612,1212.500,1635.760,-2581.220
539,63862.483000,264.811,334.925,-351.876,-291.898,-81.167,-348.686,1616.500,1247.760,-2246.220
540,63862.498000,287.327,330.877,-341.992,-280.865,-86.089,-361.674,1964.500,901.760,-1971.220
541,63862.523000,279.495,326.830,-327.166,-246.193,-89.280,-384.926,2154.500,813.760,-1828.220
542,63862.535000,263.832,304.569,-302.456,-206.666,-82.839,-411.228,2516.500,873.760,-1495.220
543,63862.558000,284.390,288.379,-270.826,-184.966,-83.025,-421.457,2765.500,828.760,-1120.220
544,63862.590000,332.359,268.142,-256.000,-131.764,-85.421,-442.084,2824.500,229.760,-940.220
545,63862.623000,320.612,247.905,-267.861,-117.934,-88.442,-448.232,2890.500,-230.240,-812.220
546,63862.637000,275.579,237.787,-255.012,-65.840,-89.868,-461.950,3031.500,32.760,-467.220
547,63862.640000,281.453,237.787,-230.301,-35.430,-89.171,-467.411,3144.500,248.760,-7.220
548,63862.673000,304.948,215.526,-195.707,13.589,-84.771,-476.159,3108.500,29.760,384.780
549,63862.685000,318.654,183.146,-187.799,45.899,-94.743,-472.781,3059.500,-189.240,544.780
550,63862.706000,258.937,148.743,-149.251,86.944,-97.055,-469.567,2957.500,-524.240,840.780
551,63862.729000,255.021,129.518,-115.645,132.885,-111.027,-460.519,2922.500,-368.240,1184.780
552,63862.750000,262.853,107.257,-92.911,155.339,-115.106,-455.989,2793.500,-156.240,1521.780
553,63862.773000,247.189,82.972,-70.178,183.624,-127.952,-444.661,2573.500,-358.240,1809.780
554,63862.785000,209.989,73.866,-46.456,202.149,-139.740,-435.131,2328.500,-587.240,2089.780
555,63862.808000,169.851,64.759,-29.653,225.536,-167.060,-415.823,2122.500,-611.240,2379.780
556,63862.829000,135.587,33.391,-17.792,233.376,-183.585,-408.067,1947.500,-395.240,2609.780
557,63862.843000,124.818,3.036,-16.803,232.326,-205.842,-392.271,1669.500,-36.240,2750.780
558,63862.857000,119.924,-12.142,-20.757,232.366,-229.069,-382.400,1509.500,64.760,2788.780
559,63862.889000,96.428,-8.095,-23.722,227.484,-235.800,-379.353,1202.500,126.760,2873.780
560,63862.912000,61.185,-8.095,-23.722,211.989,-256.942,-377.085,977.500,196.760,2985.780
561,63862.929000,37.690,-2.024,-16.803,207.081,-262.706,-373.053,772.500,459.760,3090.780
562,63862.949000,31.816,3.036,-6.919,182.769,-275.058,-374.578,535.500,732.760,3193.780
563,63862.972000,19.090,11.130,-5.931,173.054,-278.836,-376.370,256.500,870.760,3232.780
564,63862.992000,-1.468,-4.047,-16.803,131.145,-283.284,-382.515,-47.500,832.760,3137.780
565,63863.14000,-15.174,-16.190,-39.537,120.485,-283.180,-388.233,-413.500,630.760,2886.780
566,63863.49000,-28.880,-6.071,-50.409,84.341,-281.880,-391.533,-591.500,532.760,2706.780
567,63863.82000,-50.417,13.154,-50.409,52.102,-279.648,-394.903,-908.500,492.760,2361.780
568,63863.82000,-70.975,33.391,-55.351,23.751,-274.549,-398.345,-1174.500,768.760,2029.780
569,63863.97000,-76.849,33.391,-84.015,-7.574,-255.874,-406.673,-1417.500,1186.760,1736.780
570,63863.115000,-53.354,38.451,-105.761,-24.246,-246.046,-409.343,-1704.500,1462.760,1464.780
571,63863.140000,-41.606,74.877,-126.517,-66.413,-222.439,-415.515,-1936.500,1444.760,1151.780
572,63863.158000,-61.185,108.269,-132.448,-83.078,-205.835,-422.131,-2063.500,1497.760,891.780
573,63863.175000,-66.080,109.281,-150.239,-116.560,-180.379,-422.553,-2217.500,1758.760,642.780
574,63863.189000,-39.648,126.482,-200.649,-157.986,-146.147,-420.876,-2345.500,1843.760,275.780
575,63863.217000,-30.837,161.897,-235.243,-177.775,-133.399,-414.634,-2334.500,1689.760,66.780
576,63863.239000,-47.480,190.229,-229.313,-204.538,-108.980,-407.298,-2213.500,1633.760,-293.220
577,63863.262000,-55.312,197.312,-249.081,-209.606,-97.331,-403.284,-2155.500,1907.760,-667.220
578,63863.279000,-7.342,208.443,-263.907,-236.422,-69.044,-394.967,-2117.500,2502.760,-991.220
579,63863.302000,36.711,229.692,-280.710,-256.264,-54.363,-386.757,-2083.500,2663.760,-1298.220
580,63863.323000,80.765,236.775,-300.479,-278.228,-34.834,-371.625,-1996.500,2126.760,-1555.220
581,63863.350000,92.512,250.941,-289.606,-295.237,-25.992,-354.599,-1853.500,1591.760,-1827.220
582,63863.379000,53.354,265.107,-295.537,-305.108,-25.908,-349.502,-1678.500,1550.760,-2060.220
583,63863.393000,59.228,261.059,-328.154,-313.213,-23.917,-334.594,-1558.500,1729.760,-2170.220
584,63863.412000,101.323,249.929,-358.795,-323.993,-27.691,-331.445,-1310.500,1857.760,-2393.220
585,63863.437000,102.302,274.213,-369.668,-330.979,-35.380,-319.499,-1036.500,1526.760,-2624.220
586,63863.445000,89.576,305.581,-350.888,-335.862,-38.239,-318.425,-590.500,1510.760,-2707.220
587,63863.468000,133.629,320.759,-339.027,-333.782,-44.057,-322.393,-121.500,1732.760,-2677.220
588,63863.485000,173.767,318.735,-342.981,-324.959,-42.200,-324.520,275.500,1528.760,-2614.220
589,63863.505000,204.115,302.545,-338.039,-316.868,-57.743,-331.536,621.500,1146.760,-2499.220
590,63863.530000,196.283,299.510,-320.247,-297.927,-69.507,-345.640,991.500,805.760,-2336.220
591,63863.552000,176.704,294.451,-301.467,-294.765,-77.265,-354.547,1372.500,774.760,-2132.220
592,63863.572000,203.136,277.249,-291.583,-265.081,-79.449,-372.790,1538.500,835.760,-2024.220
593,63863.594000,250.126,246.893,-302.456,-254.196,-83.411,-377.900,1717.500,485.760,-1968.220
594,63863.612000,248.168,253.976,-307.398,-221.478,-96.264,-396.184,1869.500,59.760,-1956.220
595,63863.634000,226.631,254.988,-306.409,-199.690,-104.188,-407.389,2133.500,244.760,-1770.220
596,63863.657000,259.916,241.834,-281.699,-162.170,-105.475,-426.756,2365.500,467.760,-1462.220
597,63863.672000,281.453,214.514,-260.942,-118.839,-105.851,-443.273,2483.500,274.760,-1165.220
598,63863.694000,296.138,182.134,-265.884,-103.079,-105.987,-449.459,2499.500,-100.240,-964.220
599,63863.711000,302.011,171.004,-273.792,-54.923,-116.090,-457.190,2502.500,-233.240,-866.220
600,63863.770000,273.621,178.087,-268.849,-28.453,-114.392,-461.598,2570.500,-107.240,-781.220
601,63863.783000,277.537,181.123,-233.266,19.509,-109.020,-466.391,2746.500,325.760,-342.220
602,63863.783000,303.969,149.755,-199.660,32.220,-106.232,-467.604,2820.500,304.760,255.780
603,63863.798000,316.696,114.340,-189.776,80.142,-113.445,-463.521,2723.500,-254.240,663.780
604,63863.820000,288.306,108.269,-175.938,100.779,-119.434,-465.848,2610.500,-640.240,909.780
605,63863.838000,235.442,99.162,-168.031,142.728,-134.342,-451.806,2566.500,-507.240,1172.780
606,63863.857000,208.031,77.913,-147.274,174.934,-146.256,-441.533,2509.500,-181.240,1489.780
607,63863.879000,217.820,55.652,-114.656,192.418,-149.327,-432.978,2338.500,-225.240,1735.780
608,63863.894000,217.820,36.427,-86.981,212.947,-175.648,-418.544,2199.500,-361.240,1901.780
609,63863.914000,188.451,11.130,-85.004,214.794,-184.383,-407.737,1896.500,-670.240,1950.780
610,63863.934000,151.250,10.119,-81.050,227.486,-207.730,-394.152,1695.500,-639.240,2089.780
611,63863.954000,122.860,14.166,-68.201,235.265,-221.355,-384.429,1577.500,-380.240,2290.780
612,63863.982000,100.344,-9.107,-61.282,235.262,-241.681,-373.577,1408.500,-129.240,2435.780
613,63863.999000,101.323,-28.332,-52.386,227.448,-261.935,-363.570,1200.500,-41.240,2508.780
614,63864.26000,87.618,-25.296,-38.548,219.657,-271.541,-360.468,971.500,-68.240,2584.780
615,63864.48000,65.101,-21.249,-36.571,201.089,-294.600,-349.283,778.500,30.760,2662.780
616,63864.83000,34.753,-17.202,-37.560,191.418,-303.216,-351.071,619.500,326.760,2719.780
617,63864.102000,-5.384,-20.237,-34.595,171.945,-309.808,-352.687,517.500,506.760,2728.780
618,63864.115000,-6.363,-19.225,-33.606,156.315,-308.696,-354.381,277.500,723.760,2690.780
619,63864.124000,-14.195,-20.237,-23.722,128.078,-310.366,-360.771,-32.500,776.760,2554.780
620,63864.152000,-25.943,-28.332,-34.595,108.578,-312.120,-363.377,-419.500,709.760,2371.780
621,63864.162000,-42.585,-6.071,-71.166,71.506,-306.936,-371.587,-822.500,613.760,2139.780
622,63864.180000,-58.249,25.296,-91.923,41.258,-302.784,-377.948,-1021.500,636.760,1897.780
623,63864.203000,-71.954,42.498,-85.004,26.579,-292.972,-382.622,-1081.500,1018.760,1684.780
624,63864.217000,-76.849,37.439,-88.958,-6.566,-272.336,-399.780,-1192.500,1648.760,1518.780
625,63864.244000,-44.543,31.368,-105.761,-27.170,-256.666,-404.356,-1314.500,1923.760,1307.780
626,63864.267000,-16.153,63.747,-141.344,-63.434,-225.367,-416.549,-1660.500,2059.760,1165.780
627,63864.289000,-21.048,91.067,-145.297,-73.335,-208.830,-418.362,-1928.500,1627.760,826.780
628,63864.307000,-44.543,99.162,-166.054,-110.714,-187.209,-417.726,-2159.500,1276.760,521.780
629,63864.332000,-60.207,116.364,-200.649,-150.075,-166.540,-415.085,-2334.500,1380.760,230.780
630,63864.374000,-49.438,152.791,-221.405,-159.059,-149.047,-413.962,-2407.500,1865.760,-70.220
631,63864.377000,-28.880,187.194,-228.324,-189.745,-119.754,-408.531,-2372.500,2170.760,-423.220
632,63864.398000,-0.489,193.265,-236.232,-210.540,-102.159,-403.262,-2342.500,2131.760,-755.220
633,63864.418000,23.006,201.360,-229.313,-235.363,-81.631,-393.002,-2395.500,1944.760,-1120.220
634,63864.438000,24.964,230.704,-240.185,-247.315,-71.857,-385.911,-2450.500,1863.760,-1273.220
635,63864.457000,23.006,250.941,-279.722,-278.092,-60.959,-365.690,-2517.500,1757.760,-1556.220
636,63864.473000,21.048,250.941,-298.502,-293.948,-55.989,-356.555,-2421.500,1587.760,-1881.220
637,63864.495000,11.258,248.917,-305.421,-308.936,-57.809,-337.583,-2303.500,1541.760,-2234.220
638,63864.509000,14.195,275.225,-336.062,-334.704,-63.403,-315.463,-2201.500,1699.760,-2666.220
639,63864.537000,47.480,330.877,-368.680,-338.624,-74.015,-309.474,-1932.500,1846.760,-3122.220
640,63864.559000,67.059,377.423,-384.494,-347.576,-80.718,-297.495,-1445.500,1876.760,-3277.220
641,63864.578000,117.966,380.459,-385.483,-347.583,-85.558,-294.535,-858.500,1894.760,-3074.220
642,63864.595000,167.893,368.316,-367.691,-339.691,-100.144,-290.720,-580.500,1756.760,-2930.220
643,63864.618000,182.577,359.210,-352.865,-341.473,-107.860,-296.586,-54.500,1080.760,-2678.220
644,63864.638000,185.514,343.020,-353.853,-328.463,-122.478,-305.660,376.500,632.760,-2451.220
645,63864.655000,158.103,324.806,-356.819,-302.655,-140.111,-317.909,772.500,442.760,-2286.220
646,63864.675000,133.629,314.688,-339.027,-289.795,-146.026,-323.052,1194.500,523.760,-2088.220
647,63864.698000,145.377,314.688,-298.502,-267.789,-156.842,-345.086,1575.500,694.760,-1852.220
648,63864.725000,155.166,301.534,-284.664,-256.861,-157.898,-354.139,1836.500,589.760,-1737.220
649,63864.747000,156.145,279.273,-286.641,-223.167,-164.952,-375.400,2011.500,440.760,-1703.220
650,63864.773000,162.998,283.320,-281.699,-202.358,-170.932,-387.575,2139.500,446.760,-1702.220
651,63864.790000,169.851,274.213,-276.757,-156.022,-171.330,-408.083,2202.500,571.760,-1684.220
652,63864.819000,191.388,243.858,-275.768,-137.275,-171.491,-417.275,2368.500,675.760,-1553.220
653,63864.822000,231.526,230.704,-260.942,-92.032,-168.983,-432.845,2508.500,641.760,-1275.220
654,63864.848000,258.937,213.502,-252.046,-43.948,-165.540,-443.544,2611.500,352.760,-963.220
655,63864.865000,245.231,193.265,-259.954,-25.280,-162.801,-449.784,2691.500,204.760,-617.220
656,63864.888000,241.315,177.075,-263.907,26.622,-158.430,-455.630,2789.500,390.760,-276.220
657,63864.904000,231.526,160.885,-257.977,50.070,-152.838,-457.036,2943.500,680.760,82.780
658,63864.925000,238.379,144.696,-225.359,101.831,-138.797,-459.937,3049.500,946.760,536.780
659,63864.943000,287.327,123.447,-179.892,124.267,-137.070,-457.383,3038.500,816.760,787.780
660,63864.968000,293.201,99.162,-166.054,159.295,-142.241,-444.214,2829.500,18.760,1166.780
661,63864.990000,229.568,81.960,-165.066,205.168,-162.023,-428.267,2661.500,-568.240,1408.780
662,63865.13000,186.493,73.866,-160.124,213.906,-167.915,-421.523,2570.500,-379.240,1634.780
663,63865.30000,200.199,62.735,-133.436,239.152,-184.611,-402.261,2462.500,-125.240,1824.780
664,63865.48000,184.535,56.664,-96.865,250.819,-193.434,-393.597,2347.500,-145.240,2079.780
665,63865.73000,156.145,38.451,-59.305,261.423,-213.867,-374.072,2151.500,-79.240,2408.780
666,63865.93000,141.461,22.261,-41.514,271.195,-231.378,-364.380,1871.500,-110.240,2665.780
667,63865.115000,123.839,14.166,-38.548,260.395,-259.352,-347.420,1618.500,-197.240,2818.780
668,63865.133000,82.723,-6.071,-32.618,251.604,-283.469,-335.423,1507.500,-158.240,2862.780
669,63865.152000,59.228,-19.225,-23.722,246.689,-296.008,-327.446,1258.500,74.760,2906.780
670,63865.170000,29.859,-17.202,-20.757,233.115,-311.363,-326.203,1065.500,327.760,2932.780
671,63865.208000,7.342,-17.202,-13.838,216.552,-320.887,-324.915,863.500,682.760,2923.780
672,63865.212000,-9.300,-21.249,-5.931,183.398,-327.353,-327.274,613.500,1001.760,2874.780
673,63865.239000,-24.964,-29.344,-7.907,176.704,-327.282,-336.016,300.500,1169.760,2765.780
674,63865.257000,-31.816,-37.439,-0.988,141.651,-326.952,-345.240,-123.500,1148.760,2583.780
675,63865.275000,-37.690,-37.439,-10.873,127.086,-325.844,-351.875,-563.500,940.760,2354.780
676,63865.297000,-44.543,-24.285,-29.653,89.097,-321.616,-363.021,-762.500,839.760,2212.780
677,63865.319000,-70.975,-8.095,-37.560,55.878,-315.503,-368.347,-1128.500,725.760,1884.780
678,63865.339000,-75.870,7.083,-45.467,32.409,-303.674,-374.837,-1487.500,926.760,1622.780
679,63865.361000,-74.891,33.391,-70.178,0.175,-286.923,-386.100,-1736.500,1147.760,1376.780
680,63865.382000,-80.765,58.688,-93.900,-21.389,-275.115,-389.670,-1854.500,1411.760,1135.780
681,63865.404000,-91.533,64.759,-85.992,-59.505,-247.664,-405.764,-2025.500,1939.760,896.780
682,63865.427000,-35.732,87.020,-127.506,-79.175,-229.101,-409.375,-2342.500,2284.760,643.780
683,63865.447000,-7.342,129.518,-153.205,-115.543,-195.872,-416.646,-2628.500,2078.760,225.780
684,63865.462000,-17.132,176.063,-167.042,-154.023,-168.442,-412.060,-2874.500,1718.760,-158.220
685,63865.504000,-36.711,211.478,-185.822,-180.654,-152.727,-407.669,-2957.500,1593.760,-347.220
686,63865.523000,-22.027,231.715,-222.394,-213.400,-129.230,-393.335,-3030.500,1784.760,-636.220
687,63865.537000,-1.468,246.893,-256.988,-230.201,-118.441,-389.112,-2980.500,2070.760,-914.220
688,63865.545000,10.279,270.166,-281.699,-264.912,-99.765,-371.784,-2891.500,2136.760,-1243.220
689,63865.568000,16.153,300.522,-290.595,-276.925,-87.091,-362.727,-2753.500,2287.760,-1603.220
690,63865.590000,31.816,326.830,-316.293,-306.785,-71.366,-341.543,-2552.500,2503.760,-1928.220
691,63865.608000,56.291,331.889,-326.178,-313.006,-55.846,-329.638,-2215.500,2752.760,-2169.220
692,63865.627000,82.723,346.055,-330.131,-330.802,-50.857,-321.453,-1800.500,2802.760,-2361.220
693,63865.656000,121.881,335.937,-333.097,-339.877,-47.888,-307.514,-1345.500,2679.760,-2477.220
694,63865.665000,153.208,320.759,-352.865,-347.696,-50.720,-306.388,-1135.500,2186.760,-2499.220
695,63865.688000,135.587,330.877,-370.656,-351.669,-55.527,-300.405,-750.500,1714.760,-2543.220
696,63865.715000,126.776,338.972,-364.726,-346.741,-59.441,-300.488,-240.500,1716.760,-2548.220
697,63865.733000,159.082,331.889,-338.039,-337.709,-63.380,-311.472,337.500,1921.760,-2466.220
698,63865.754000,202.157,319.747,-325.189,-331.733,-67.299,-315.511,777.500,1771.760,-2260.220
699,63865.783000,216.841,310.640,-338.039,-309.885,-72.317,-331.643,1091.500,1233.760,-2138.220
700,63865.790000,234.463,311.652,-337.050,-292.841,-83.092,-349.652,1361.500,851.760,-2173.220
701,63865.809000,221.736,309.628,-332.108,-281.879,-84.146,-360.674,1662.500,621.760,-2198.220
702,63865.838000,221.736,308.617,-305.421,-254.055,-91.147,-381.831,1840.500,674.760,-2104.220
703,63865.852000,266.769,309.628,-301.467,-230.407,-92.319,-391.108,2148.500,850.760,-1767.220
704,63865.860000,293.201,290.403,-292.571,-188.928,-96.543,-411.526,2402.500,570.760,-1484.220
705,63865.893000,285.369,273.202,-277.745,-169.150,-100.580,-421.716,2582.500,166.760,-1253.220
706,63865.915000,263.832,262.071,-265.884,-132.608,-101.859,-441.066,2719.500,24.760,-929.220
707,63865.933000,271.663,243.858,-246.116,-83.414,-107.128,-454.728,2857.500,34.760,-599.220
708,63865.955000,290.264,225.644,-229.313,-58.892,-104.443,-460.087,2908.500,-130.240,-367.220
709,63865.973000,286.348,199.336,-214.486,-6.858,-110.712,-467.891,2907.500,-317.240,-147.220
710,63865.990000,270.685,183.146,-205.591,16.626,-110.926,-468.307,2914.500,-211.240,165.780
711,63866.15000,271.663,171.004,-180.880,67.543,-115.258,-469.203,2921.500,-80.240,352.780
712,63866.38000,288.306,147.731,-150.239,83.121,-112.501,-466.528,2899.500,76.760,752.780
713,63866.60000,276.558,116.364,-127.506,126.142,-120.638,-461.373,2807.500,-35.240,1169.780
714,63866.80000,265.790,90.055,-104.772,152.424,-124.757,-451.988,2648.500,-155.240,1541.780
715,63866.103000,235.442,70.830,-91.923,184.691,-137.635,-444.669,2466.500,-320.240,1850.780
716,63866.125000,204.115,62.735,-75.120,209.999,-159.168,-426.387,2281.500,-306.240,2138.780
717,63866.149000,177.683,47.557,-61.282,209.976,-169.816,-419.483,2102.500,-246.240,2423.780
718,63866.172000,155.166,30.356,-52.386,226.529,-193.201,-403.012,1896.500,-170.240,2645.780
719,63866.194000,135.587,9.107,-49.421,228.472,-204.835,-396.142,1781.500,-137.240,2714.780
720,63866.209000,113.071,-3.036,-45.467,229.456,-226.137,-385.305,1528.500,-0.240,2815.780
721,63866.227000,96.428,-12.142,-33.606,233.399,-238.754,-380.438,1275.500,189.760,2930.780
722,63866.249000,71.954,-11.130,-11.861,215.886,-255.043,-377.156,984.500,393.760,3062.780
723,63866.267000,51.396,-16.190,-1.977,192.526,-268.373,-376.727,644.500,578.760,3147.780
724,63866.290000,37.690,-7.083,-9.884,173.970,-270.138,-377.381,294.500,566.760,3123.780
725,63866.308000,23.985,1.012,-14.826,144.747,-278.574,-379.808,-47.500,456.760,2998.780
726,63866.345000,3.426,19.225,-21.745,132.168,-288.130,-382.527,-316.500,373.760,2771.780
727,63866.353000,-38.669,24.285,-12.849,99.973,-288.799,-386.879,-554.500,588.760,2510.780
728,63866.375000,-76.849,11.130,-21.745,79.467,-285.706,-390.458,-686.500,756.760,2360.780
729,63866.390000,-77.828,-12.142,-53.375,42.351,-273.749,-399.659,-967.500,1061.760,2039.780
730,63866.413000,-57.270,-12.142,-65.236,266.482,-259.329,-415.455,-1265.500,1175.760,1721.780
731,63866.443000,-52.375,25.296,-57.328,-8.459,-249.085,-415.525,-1612.500,1260.760,1459.780
732,63866.450000,-51.396,62.735,-76.108,-42.808,-224.582,-421.837,-1883.500,1373.760,1292.780
733,63866.479000,-41.606,87.020,-115.645,-63.428,-212.784,-423.455,-2019.500,1340.760,1057.780
734,63866.494000,-32.795,88.032,-129.483,-99.846,-187.301,-423.825,-2170.500,1310.760,822.780
735,63866.512000,-35.732,92.079,-145.297,-113.625,-180.406,-422.605,-2360.500,1332.760,528.780
736,63866.532000,-50.417,120.411,-169.019,-162.886,-150.943,-417.830,-2440.500,1400.760,218.780
737,63866.570000,-43.564,149.755,-192.741,-175.834,-137.289,-411.710,-2454.500,1607.760,59.780
738,63866.587000,-23.006,180.111,-218.440,-205.445,-118.647,-406.286,-2476.500,1646.760,-305.220
739,63866.606000,-29.859,206.419,-229.313,-234.339,-90.348,-391.041,-2458.500,1920.760,-641.220
740,63866.609000,-24.964,227.668,-236.232,-255.115,-76.624,-384.783,-2368.500,2480.760,-952.220
741,63866.632000,12.237,242.846,-242.162,-281.973,-53.179,-371.537,-2244.500,2556.760,-1286.220
742,63866.659000,65.101,239.810,-275.768,-294.003,-42.441,-360.508,-2068.500,2194.760,-1635.220
743,63866.679000,64.122,249.929,-280.710,-308.112,-27.821,-344.524,-1843.500,2238.760,-1895.220
744,63866.699000,78.807,312.664,-276.757,-317.016,-20.971,-342.406,-1514.500,2669.760,-2106.220
745,63866.722000,148.314,293.439,-301.467,-330.084,-13.132,-326.432,-1357.500,2754.760,-2192.220
746,63866.737000,170.830,268.142,-346.934,-337.176,-13.083,-312.525,-1150.500,2186.760,-2351.220
747,63866.759000,125.797,294.451,-376.587,-347.002,-19.772,-306.436,-1000.500,1094.760,-2516.220
748,63866.799000,81.744,339.984,-356.819,-345.950,-35.263,-302.499,-609.500,917.760,-2579.220
749,63866.807000,104.260,362.245,-328.154,-341.941,-38.197,-306.504,27.500,1664.760,-2501.220
750,63866.824000,197.262,337.960,-294.548,-336.901,-39.201,-314.468,641.500,2229.760,-2317.220
751,63866.839000,250.126,297.486,-294.548,-323.107,-38.352,-320.620,921.500,1638.760,-2199.220
752,63866.862000,206.073,291.415,-301.467,-317.830,-53.862,-334.477,1013.500,526.760,-2226.220
753,63866.879000,137.545,311.652,-277.745,-307.688,-64.578,-349.411,1285.500,381.760,-2146.220
754,63866.902000,163.977,305.581,-256.000,-284.939,-70.576,-360.635,1466.500,643.760,-2047.220
755,63866.936000,253.063,281.296,-274.780,-263.022,-71.718,-382.680,1688.500,971.760,-1916.220
756,63866.938000,268.727,252.964,-324.201,-238.410,-82.579,-386.056,1661.500,439.760,-2084.220
757,63866.965000,247.189,259.036,-340.015,-209.615,-96.364,-403.285,1721.500,-126.240,-2330.220
758,63866.987000,231.526,285.344,-293.560,-198.685,-105.163,-408.390,2017.500,22.760,-2160.220
759,63867.9000,271.663,289.391,-276.757,-158.221,-105.509,-428.795,2377.500,460.760,-1617.220
760,63867.32000,329.423,261.059,-289.606,-125.740,-107.727,-439.211,2667.500,257.760,-1099.220
761,63867.47000,350.960,263.083,-279.722,-89.196,-118.684,-453.627,2766.500,-353.240,-795.220
762,63867.69000,290.264,258.024,-260.942,-36.287,-123.032,-456.527,2829.500,-571.240,-442.220
763,63867.94000,256.979,234.751,-220.417,-7.815,-124.253,-461.952,3029.500,-291.240,-187.220
764,63867.114000,271.663,204.395,-187.799,41.116,-115.986,-467.750,3177.500,283.760,379.780
765,63867.129000,301.033,160.885,-160.124,60.659,-115.198,-467.112,3160.500,332.760,771.780
766,63867.152000,292.222,123.447,-159.135,119.284,-121.544,-460.266,2993.500,-133.240,958.780
767,63867.169000,250.126,113.328,-151.228,133.963,-127.485,-457.565,2814.500,-401.240,1115.780
768,63867.192000,218.799,109.281,-112.680,175.920,-139.489,-445.496,2731.500,-209.240,1433.780
769,63867.209000,216.841,92.079,-76.108,212.993,-152.416,-433.339,2593.500,-25.240,1852.780
770,63867.235000,211.946,63.747,-69.189,216.814,-161.168,-423.552,2339.500,-195.240,2134.780
771,63867.253000,184.535,38.451,-77.097,235.334,-185.538,-407.115,2221.500,-354.240,2209.780
772,63867.273000,158.103,32.379,-64.247,243.061,-199.166,-394.438,2021.500,-477.240,2340.780
773,63867.290000,122.860,43.510,-39.537,251.726,-221.516,-374.876,1899.500,-315.240,2536.780
774,63867.318000,86.639,36.427,-11.861,254.717,-235.090,-370.975,1790.500,107.760,2840.780
775,63867.335000,64.122,10.119,4.942,247.881,-253.417,-361.973,1524.500,588.760,3160.780
776,63867.355000,63.143,-12.142,-2.965,234.227,-260.065,-360.739,1139.500,708.760,3352.780
777,63867.388000,60.207,-31.368,-7.907,209.857,-281.132,-354.376,705.500,308.760,3363.780
778,63867.433000,20.069,-32.379,-14.826,182.630,-307.006,-349.926,307.500,-225.240,3142.780
779,63867.433000,-14.195,-29.344,-24.710,169.012,-319.460,-347.702,49.500,-339.240,2867.780
780,63867.436000,-42.585,-29.344,-22.734,137.730,-331.757,-342.212,-49.500,-197.240,2706.780
781,63867.457000,-66.080,-33.391,-28.664,119.259,-329.645,-349.763,-301.500,417.760,2359.780
782,63867.470000,-67.059,-26.308,-47.444,88.048,-317.740,-361.038,-609.500,1201.760,2102.780
783,63867.498000,-37.690,-15.178,-63.259,73.490,-309.856,-371.619,-892.500,1518.760,1902.780
784,63867.520000,-33.774,-6.071,-61.282,38.356,-296.948,-382.826,-1122.500,1245.760,1649.780
785,63867.539000,-58.249,8.095,-56.340,3.212,-277.265,-396.994,-1382.500,1190.760,1400.780
786,63867.558000,-59.228,32.379,-65.236,-6.636,-268.468,-397.815,-1677.500,1461.760,1195.780
787,63867.580000,-52.375,60.711,-105.761,-48.717,-244.856,-408.911,-1921.500,1506.760,975.780
788,63867.610000,-59.228,83.984,-142.332,-68.342,-231.131,-412.518,-2005.500,1490.760,863.780
789,63867.622000,-72.933,97.138,-166.054,-106.666,-201.756,-417.781,-2131.500,1596.760,639.780
790,63867.644000,-64.122,115.352,-173.961,-115.607,-185.229,-418.626,-2204.500,1910.760,392.780
791,63867.658000,-48.459,141.660,-179.892,-156.002,-151.003,-419.921,-2223.500,2252.760,114.780
792,63867.686000,-20.069,158.862,-200.649,-167.930,-132.517,-418.747,-2247.500,2351.760,-247.220
793,63867.703000,10.279,174.040,-220.417,-196.755,-100.343,-409.414,-2300.500,2233.760,-586.220
794,63867.730000,32.795,195.289,-220.417,-225.527,-77.845,-398.103,-2390.500,1958.760,-874.220
795,63867.744000,40.627,217.549,-216.463,-245.255,-67.997,-393.827,-2479.500,1747.760,-1112.220
796,63867.777000,35.732,237.787,-239.197,-270.196,-55.219,-372.728,-2470.500,1619.760,-1347.220
797,63867.795000,52.375,243.858,-268.849,-286.017,-52.182,-364.576,-2414.500,1408.760,-1486.220
798,63867.824000,38.669,259.036,-276.757,-305.977,-49.123,-343.552,-2242.500,1409.760,-1715.220
799,63867.828000,34.753,271.178,-307.398,-321.815,-48.023,-333.429,-2026.500,1589.760,-1965.220
800,63867.854000,47.480,285.344,-341.004,-337.738,-48.863,-317.395,-1688.500,1706.760,-2250.220
801,63867.872000,57.270,311.652,-340.015,-344.725,-54.616,-306.436,-1339.500,1813.760,-2459.220
802,63867.889000,81.744,327.842,-364.726,-346.759,-55.571,-301.476,-972.500,1824.760,-2591.220
803,63867.912000,111.113,340.996,-394.378,-345.727,-63.320,-300.501,-496.500,1671.760,-2663.220
804,63867.934000,137.545,346.055,-386.471,-341.707,-71.093,-302.532,-18.500,1496.760,-2674.220
805,63867.952000,143.419,353.138,-378.564,-328.724,-84.744,-310.621,247.500,1446.760,-2592.220
806,63867.972000,157.124,343.020,-367.691,-326.664,-82.820,-317.551,798.500,1346.760,-2303.220
807,63867.995000,171.809,327.842,-329.143,-308.704,-86.833,-335.584,1275.500,1181.760,-2017.220
808,63868.17000,166.914,325.818,-317.282,-291.574,-95.667,-359.504,1666.500,986.760,-1929.220
809,63868.39000,171.809,317.723,-304.432,-258.098,-94.022,-372.896,1968.500,1079.760,-1994.220
810,63868.57000,216.841,308.617,-285.652,-231.273,-93.272,-396.999,2257.500,1308.760,-2015.220
811,63868.74000,256.000,298.498,-256.988,-205.642,-91.556,-409.267,2503.500,1228.760,-1885.220
812,63868.126000,256.979,279.273,-234.255,-158.338,-87.125,-431.768,2693.500,928.760,-1525.220
813,63868.135000,253.063,259.036,-234.255,-137.627,-82.463,-443.953,2833.500,724.760,-1081.220
814,63868.143000,294.180,234.751,-221.405,-88.558,-72.253,-458.615,2892.500,653.760,-932.220
815,63868.160000,314.738,213.502,-226.347,-63.983,-73.437,-464.955,2887.500,370.760,-832.220
816,63868.188000,283.411,204.395,-220.417,-16.877,-71.920,-474.651,2885.500,80.760,-789.220
817,63868.200000,290.264,185.170,-191.753,37.863,-60.807,-478.586,2975.500,393.760,-408.220
818,63868.219000,334.317,161.897,-170.996,60.359,-56.172,-480.958,2987.500,590.760,154.780
819,63868.240000,348.023,136.601,-163.089,111.128,-55.674,-475.950,2908.500,298.760,580.780
820,63868.263000,310.822,122.435,-151.228,133.512,-53.949,-470.441,2819.500,50.760,928.780
821,63868.279000,281.453,102.198,-121.575,178.342,-59.208,-458.431,2748.500,143.760,1359.780
822,63868.305000,277.537,74.877,-99.830,200.848,-65.220,-455.868,2681.500,181.760,1575.780
823,63868.328000,266.769,55.652,-87.969,234.943,-77.155,-441.691,2467.500,-10.240,1912.780
824,63868.345000,244.252,43.510,-74.131,243.600,-102.409,-420.156,2233.500,-338.240,2134.780
825,63868.368000,209.989,42.498,-58.317,269.053,-117.158,-413.698,2015.500,-485.240,2331.780
826,63868.385000,174.746,37.439,-35.583,284.674,-149.243,-395.233,1870.500,-409.240,2593.780
827,63868.409000,167.893,16.190,-8.896,291.501,-163.826,-386.476,1651.500,-289.240,2860.780
828,63868.427000,150.272,-2.024,-1.977,291.528,-202.540,-367.727,1319.500,-460.240,3040.780
829,63868.448000,105.239,-14.166,-7.907,281.792,-222.775,-359.655,1032.500,-650.240,3164.780
830,63868.460000,72.933,-25.296,-10.873,266.241,-260.375,-345.554,813.500,-556.240,3271.780
831,63868.488000,43.564,-13.154,-3.954,257.534,-276.743,-342.427,723.500,-447.240,3310.780
832,63868.497000,6.363,-3.036,-0.988,230.264,-303.588,-335.022,566.500,-98.240,3339.780
833,63868.522000,-29.859,-26.308,-6.919,198.143,-323.611,-333.446,392.500,340.760,3259.780
834,63868.543000,-28.880,-57.676,-24.710,183.500,-323.476,-335.156,116.500,687.760,3010.780
835,63868.565000,-28.880,-50.593,-34.595,145.574,-327.955,-345.308,-218.500,749.760,2688.780
836,63868.618000,-51.396,-28.332,-36.571,125.077,-325.830,-348.886,-492.500,817.760,2399.780
837,63868.622000,-78.807,-6.071,-39.537,91.997,-317.773,-363.077,-699.500,1166.760,2126.780
838,63868.630000,-88.597,2.024,-41.514,82.288,-312.840,-369.802,-947.500,1743.760,1887.780
839,63868.649000,-58.249,11.130,-48.432,41.297,-282.456,-390.771,-1121.500,1986.760,1631.780
840,63868.672000,-15.174,27.320,-57.328,20.820,-258.067,-407.173,-1547.500,2001.760,1502.780
841,63868.694000,-17.132,57.676,-73.143,-15.369,-249.994,-411.464,-1949.500,1491.760,1247.780
842,63868.712000,-72.933,94.103,-83.027,-52.635,-229.335,-416.736,-2171.500,1283.760,982.780
843,63868.732000,-99.365,110.292,-106.749,-71.334,-213.685,-418.392,-2283.500,1674.760,717.780
844,63868.754000,-62.164,117.375,-141.344,-117.531,-175.530,-425.495,-2417.500,2199.760,415.780
845,63868.783000,-21.048,138.625,-167.042,-130.438,-157.035,-424.304,-2597.500,2268.760,82.780
846,63868.799000,-5.384,169.992,-188.788,-170.910,-125.717,-419.687,-2719.500,1901.760,-221.220
847,63868.821000,-9.300,188.206,-185.822,-191.644,-112.958,-415.397,-2841.500,1651.760,-524.220
848,63868.837000,9.300,205.407,-187.799,-229.290,-92.320,-399.004,-2900.500,1650.760,-691.220
849,63868.868000,20.069,239.810,-215.475,-264.051,-77.519,-376.748,-3002.500,1703.760,-1043.220
850,63868.898000,30.837,282.308,-251.058,-283.909,-68.646,-364.594,-3035.500,1625.760,-1396.220
851,63868.902000,44.543,315.700,-277.745,-312.657,-69.377,-342.426,-2908.500,1273.760,-1685.220
852,63868.920000,20.069,323.794,-278.734,-319.766,-69.329,-327.534,-2699.500,1208.760,-1851.220
853,63868.939000,15.174,338.972,-293.560,-339.724,-74.013,-302.564,-2415.500,1515.760,-1980.220
854,63868.962000,36.711,358.198,-343.969,-354.644,-70.021,-290.491,-2043.500,1748.760,-2164.220
855,63868.984000,36.711,368.316,-379.552,-367.606,-73.791,-274.506,-1571.500,1850.760,-2356.220
856,63869.4000,35.732,364.269,-399.320,-360.711,-82.562,-272.649,-1300.500,1889.760,-2524.220
857,63869.25000,69.996,370.340,-377.575,-363.653,-89.311,-268.651,-738.500,2004.760,-2576.220
858,63869.68000,104.260,385.518,-365.714,-356.568,-98.071,-277.626,-241.500,2018.760,-2681.220
859,63869.82000,121.881,387.542,-368.680,-353.563,-100.030,-280.630,241.500,2017.760,-2724.220
860,63869.93000,158.103,381.470,-353.853,-335.594,-106.945,-297.676,706.500,1941.760,-2706.220
861,63869.109000,173.767,369.328,-315.305,-325.539,-111.858,-310.646,1145.500,1751.760,-2558.220
862,63869.122000,172.788,350.103,-296.525,-306.584,-115.878,-329.681,1528.500,1536.760,-2317.220
863,63869.144000,191.388,327.842,-311.351,-284.805,-118.964,-342.861,1811.500,1260.760,-2241.220
864,63869.172000,197.262,347.067,-298.502,-254.957,-122.106,-369.965,2099.500,1098.760,-2190.220
865,63869.190000,197.262,335.937,-294.548,-210.484,-121.514,-396.349,2248.500,1103.760,-2152.220
866,63869.207000,203.136,323.794,-282.687,-195.634,-119.702,-407.443,2546.500,1349.760,-1919.220
867,63869.224000,235.442,316.711,-252.046,-147.406,-105.604,-431.939,2773.500,1404.760,-1529.220
868,63869.247000,276.558,278.261,-256.000,-122.762,-102.912,-444.192,2892.500,840.760,-1229.220
869,63869.269000,284.390,252.964,-262.919,-72.697,-96.581,-457.883,2974.500,340.760,-1037.220
870,63869.292000,275.579,260.047,-238.208,-42.234,-97.818,-465.312,3069.500,387.760,-814.220
871,63869.313000,302.990,204.395,-199.660,14.561,-91.556,-472.231,3144.500,499.760,-427.220
872,63869.334000,304.948,169.992,-183.846,69.268,-84.316,-472.223,3111.500,386.760,20.780
873,63869.352000,305.927,152.791,-159.135,87.867,-83.517,-473.537,3021.500,269.760,487.780
874,63869.374000,300.054,134.577,-131.459,138.584,-83.021,-465.575,2955.500,10.760,685.780
875,63869.402000,261.874,118.387,-118.610,162.001,-92.917,-457.118,2815.500,-233.240,1030.780
876,63869.415000,236.421,90.055,-105.761,203.005,-102.007,-447.988,2707.500,-216.240,1349.780
877,63869.433000,219.778,58.688,-92.911,215.606,-107.937,-438.359,2579.500,-101.240,1677.780
878,63869.460000,211.946,35.415,-74.131,246.732,-125.654,-419.200,2401.500,-170.240,1916.780
879,63869.482000,207.052,28.332,-58.317,260.381,-135.461,-411.555,2144.500,-307.240,2094.780
880,63869.497000,187.472,13.154,-58.317,278.910,-162.735,-394.130,1872.500,-496.240,2244.780
881,63869.528000,143.419,2.024,-58.317,285.674,-198.614,-370.581,1657.500,-625.240,2395.780
882,63869.561000,108.176,-1.012,-48.432,290.553,-214.146,-361.789,1572.500,-552.240,2485.780
883,63869.561000,93.491,-1.012,-30.641,288.628,-240.260,-349.911,1423.500,-214.240,2688.780
884,63869.583000,79.786,-15.178,-17.792,277.816,-251.780,-340.846,1215.500,73.760,2862.780
885,63869.606000,71.954,-26.308,-24.710,260.313,-274.843,-334.603,896.500,206.760,2968.780
886,63869.628000,50.417,-38.451,-38.548,253.544,-287.359,-332.499,575.500,16.760,3011.780
887,63869.643000,27.901,-29.344,-50.409,227.270,-312.276,-327.083,279.500,-173.240,2962.780
888,63869.666000,-8.321,-12.142,-55.351,188.284,-336.109,-322.428,130.500,-196.240,2841.780
889,63869.688000,-61.185,-3.036,-51.398,179.523,-344.738,-320.294,69.500,277.760,2672.780
890,63869.705000,-95.449,-22.261,-45.467,141.551,-340.508,-332.425,-21.500,1246.760,2524.780
891,63869.723000,-78.807,-45.534,-60.293,126.049,-332.614,-344.958,-139.500,1714.760,2450.780
892,63869.753000,-30.837,-29.344,-85.004,95.901,-314.906,-364.134,-478.500,2090.760,2224.780
893,63869.783000,-18.111,1.012,-86.981,80.347,-307.014,-373.713,-805.500,1692.760,1996.780
894,63869.786000,-58.249,27.320,-78.085,46.164,-287.341,-386.913,-1045.500,1309.760,1770.780
895,63869.804000,-86.639,36.427,-79.073,25.566,-261.024,-397.409,-1273.500,1624.760,1597.780
896,63869.826000,-50.417,27.320,-110.703,-9.455,-249.077,-414.523,-1576.500,1937.760,1406.780
897,63869.847000,-1.468,48.569,-142.332,-44.808,-225.534,-418.847,-1858.500,1645.760,1135.780
898,63869.869000,-23.006,80.949,-147.274,-61.523,-212.805,-420.535,-1977.500,1163.760,876.780
899,63869.892000,-60.207,96.126,-126.517,-97.838,-187.316,-426.814,-2012.500,1243.760,691.780
900,63869.912000,-51.396,104.221,-145.297,-115.593,-171.678,-426.518,-2158.500,1814.760,587.780
901,63869.932000,8.321,121.423,-175.938,-148.177,-139.460,-425.979,-2389.500,2043.760,270.780
902,63869.955000,31.816,163.921,-196.695,-171.819,-127.640,-422.622,-2536.500,1487.760,-132.220
903,63869.976000,4.405,189.217,-181.869,-196.647,-117.759,-406.443,-2598.500,1055.760,-463.220
904,63869.998000,-24.964,204.395,-198.672,-238.164,-98.051,-391.949,-2704.500,1230.760,-696.220
905,63870.21000,-13.216,221.597,-249.081,-255.086,-89.205,-379.846,-2647.500,1496.760,-958.220
906,63870.35000,-13.216,244.870,-262.919,-276.019,-75.489,-364.725,-2466.500,1633.760,-1217.220
907,63870.55000,-10.279,269.154,-249.081,-294.836,-69.525,-354.555,-2287.500,1875.760,-1510.220
908,63870.75000,2.447,299.510,-240.185,-319.734,-59.648,-334.437,-2194.500,2023.760,-1671.220
909,63870.104000,41.606,317.723,-256.000,-329.711,-51.827,-327.378,-2067.500,2157.760,-2016.220
910,63870.113000,77.828,320.759,-310.363,-341.685,-58.509,-310.423,-2000.500,1698.760,-2370.220
911,63870.141000,67.059,334.925,-348.911,-351.620,-77.786,-291.520,-1822.500,1137.760,-2703.220
912,63870.160000,27.901,367.304,-345.946,-351.688,-81.662,-285.607,-1409.500,1370.760,-2862.220
913,63870.180000,26.922,401.708,-318.270,-351.670,-87.468,-283.632,-874.500,2297.760,-2960.220
914,63870.200000,125.797,414.862,-355.830,-354.527,-90.341,-286.531,-435.500,2683.760,-3168.220
915,63870.218000,192.367,386.530,-404.263,-338.642,-105.957,-291.716,44.500,1929.760,-3368.220
916,63870.250000,179.641,362.245,-365.714,-331.617,-113.752,-297.738,584.500,1512.760,-3066.220
917,63870.288000,129.713,366.293,-301.467,-315.570,-122.584,-315.732,833.500,1251.760,-2770.220
918,63870.291000,151.250,388.553,-288.618,-301.636,-129.470,-325.815,1238.500,1618.760,-2240.220
919,63870.304000,219.778,375.399,-304.432,-277.754,-131.597,-347.893,1574.500,1347.760,-2152.220
920,63870.326000,210.967,332.901,-295.537,-236.152,-145.493,-370.271,1810.500,647.760,-2287.220
921,63870.348000,172.788,315.700,-280.710,-224.219,-147.525,-380.324,2057.500,598.760,-2159.220
922,63870.362000,136.566,315.700,-267.861,-187.653,-140.091,-405.591,2399.500,1213.760,-1755.220
923,63870.387000,180.620,319.747,-248.093,-161.063,-132.578,-419.853,2671.500,1668.760,-1446.220
924,63870.399000,233.484,308.617,-231.290,-107.060,-117.570,-439.530,2850.500,1260.760,-1285.220
925,63870.421000,238.379,254.988,-221.405,-88.296,-113.858,-451.680,2869.500,1013.760,-1205.220
926,63870.433000,230.547,237.787,-211.521,-40.267,-102.674,-463.372,2855.500,697.760,-904.220
927,63870.466000,232.505,227.668,-196.695,18.475,-93.527,-471.313,2850.500,576.760,-579.220
928,63870.483000,246.210,207.431,-186.811,36.069,-87.881,-473.600,2832.500,428.760,-363.220
929,63870.505000,246.210,175.051,-192.741,86.888,-79.636,-475.493,2822.500,374.760,-189.220
930,63870.534000,262.853,143.684,-189.776,113.221,-79.881,-471.036,2778.500,299.760,116.780
931,63870.557000,262.853,133.565,-167.042,158.058,-78.365,-462.971,2721.500,258.760,529.780
932,63870.570000,245.231,122.435,-140.355,179.463,-76.631,-457.446,2610.500,381.760,932.780
933,63870.593000,261.874,69.818,-112.680,214.472,-75.996,-446.252,2416.500,255.760,1262.780
934,63870.620000,232.505,47.557,-112.680,231.974,-81.002,-437.696,2315.500,89.760,1412.780
935,63870.635000,204.115,25.296,-102.795,263.125,-97.750,-420.507,2146.500,-137.240,1696.780
936,63870.651000,196.283,22.261,-83.027,287.532,-116.366,-408.119,1973.500,-49.240,1950.780
937,63870.677000,175.725,20.237,-67.212,290.393,-128.979,-397.326,1779.500,27.760,2190.780
938,63870.689000,162.998,4.047,-62.270,302.070,-146.512,-384.714,1565.500,104.760,2452.780
939,63870.714000,150.272,-16.190,-68.201,305.988,-162.034,-376.890,1331.500,72.760,2684.780
940,63870.735000,136.566,-23.273,-73.143,299.206,-191.973,-364.922,1096.500,-93.240,2851.780
941,63870.761000,112.092,-11.130,-61.282,299.332,-211.324,-361.948,924.500,-194.240,3004.780
942,63870.779000,85.660,2.024,-47.444,285.685,-243.137,-347.887,853.500,-144.240,3090.780
943,63870.794000,47.480,1.012,-44.479,260.389,-266.128,-343.474,729.500,97.760,3250.780
944,63870.820000,24.964,-12.142,-47.444,243.869,-276.617,-344.154,592.500,509.760,3393.780
945,63870.843000,25.943,-17.202,-52.386,210.855,-288.883,-351.431,374.500,923.760,3483.780
946,63870.858000,13.216,-6.071,-55.351,199.244,-293.608,-356.143,127.500,969.760,3450.780
947,63870.880000,-26.922,-14.166,-55.351,160.297,-302.921,-361.350,-75.500,816.760,3241.780
948,63870.899000,-64.122,-45.534,-63.259,141.758,-304.684,-362.988,-274.500,706.760,2803.780
949,63870.917000,-58.249,-53.628,-64.247,114.594,-307.326,-374.318,-577.500,883.760,2354.780
950,63870.934000,-56.291,-12.142,-81.050,89.245,-292.571,-386.685,-875.500,1183.760,1962.780
951,63870.948000,-67.059,25.296,-92.911,59.913,-279.720,-394.056,-1015.500,1430.760,1815.780
952,63870.995000,-57.270,40.474,-96.865,21.891,-249.360,-417.046,-1261.500,2025.760,1619.780
953,63871.9000,-18.111,40.474,-93.900,9.141,-232.791,-423.731,-1557.500,2423.760,1455.780
954,63871.18000,29.859,39.462,-86.981,-28.076,-200.514,-437.877,-1944.500,2230.760,1254.780
955,63871.43000,50.417,58.688,-84.015,-61.505,-182.799,-437.307,-2457.500,1595.760,986.780
956,63871.65000,7.342,114.340,-134.425,-102.839,-165.984,-431.673,-2813.500,1019.760,650.780
957,63871.83000,-50.417,150.767,-195.707,-127.391,-156.087,-431.250,-2858.500,1104.760,311.780
958,63871.95000,-35.732,152.791,-198.672,-165.964,-131.566,-419.767,-2854.500,1616.760,-27.220
959,63871.123000,15.174,171.004,-172.973,-205.482,-107.034,-410.237,-2998.500,1742.760,-371.220
960,63871.145000,30.837,225.644,-221.405,-225.297,-97.191,-401.037,-3045.500,1506.760,-527.220
961,63871.163000,13.216,259.036,-280.710,-259.026,-88.203,-378.793,-2895.500,990.760,-747.220
962,63871.186000,-0.489,257.012,-261.931,-281.836,-83.176,-363.629,-2663.500,930.760,-860.220
963,63871.208000,-3.426,273.202,-250.069,-307.677,-73.288,-345.463,-2538.500,1267.760,-1004.220
964,63871.228000,6.363,299.510,-288.618,-315.704,-70.324,-335.480,-2376.500,1583.760,-1258.220
965,63871.260000,16.153,308.617,-312.340,-333.699,-66.314,-315.477,-2043.500,1574.760,-1569.220
966,63871.274000,16.153,295.462,-290.595,-353.562,-70.024,-296.417,-1795.500,1522.760,-1832.220
967,63871.294000,34.753,301.534,-306.409,-357.554,-69.025,-292.409,-1616.500,1406.760,-2092.220
968,63871.309000,29.859,320.759,-344.958,-362.625,-79.638,-276.556,-1477.500,1329.760,-2252.220
969,63871.331000,19.090,336.949,-326.178,-361.628,-85.453,-274.598,-1125.500,1435.760,-2506.220
970,63871.352000,28.880,350.103,-308.386,-363.565,-95.113,-270.615,-783.500,1778.760,-2636.220
971,63871.369000,71.954,359.210,-313.328,-360.568,-99.976,-271.646,-443.500,1959.760,-2695.220
972,63871.393000,121.881,348.079,-298.502,-347.593,-114.596,-278.750,-160.500,1703.760,-2690.220
973,63871.415000,122.860,342.008,-298.502,-341.634,-122.388,-279.831,107.500,1190.760,-2670.220
974,63871.436000,122.860,347.067,-307.398,-329.594,-137.964,-288.886,429.500,940.760,-2619.220
975,63871.457000,107.197,367.304,-295.537,-317.450,-153.535,-303.849,811.500,1078.760,-2509.220
976,63871.479000,126.776,375.399,-299.490,-299.594,-155.617,-316.960,1220.500,1382.760,-2443.220
977,63871.497000,163.977,371.352,-289.606,-273.659,-160.660,-343.009,1417.500,1491.760,-2426.220
978,63871.519000,204.115,350.103,-270.826,-260.757,-159.797,-354.068,1759.500,1449.760,-2388.220
979,63871.537000,221.736,322.783,-260.942,-219.209,-165.953,-377.438,2019.500,1182.760,-2188.220
980,63871.562000,201.178,300.522,-269.838,-200.455,-161.273,-389.589,2303.500,1101.760,-1807.220
981,63871.577000,200.199,293.439,-254.023,-160.912,-149.024,-419.836,2546.500,1328.760,-1357.220
982,63871.594000,234.463,286.356,-233.266,-103.921,-135.976,-441.533,2737.500,1286.760,-994.220
983,63871.622000,276.558,245.881,-230.301,-79.338,-134.256,-449.846,2826.500,828.760,-756.220
984,63871.637000,277.537,208.443,-221.405,-35.239,-124.973,-459.497,2836.500,436.760,-489.220
985,63871.659000,248.168,194.277,-205.591,-9.764,-121.331,-463.890,2838.500,409.760,-306.220
986,63871.682000,243.273,169.992,-193.730,32.335,-114.937,-469.564,2832.500,496.760,63.780
987,63871.717000,249.147,149.755,-177.915,60.640,-107.456,-470.074,2779.500,494.760,344.780
988,63871.735000,264.811,124.459,-181.869,105.546,-103.999,-466.935,2693.500,335.760,571.780
989,63871.749000,256.979,112.316,-171.985,119.167,-105.096,-462.252,2644.500,266.760,915.780
990,63871.758000,240.337,98.150,-139.367,162.091,-104.527,-456.121,2517.500,341.760,1351.780
991,63871.779000,235.442,76.901,-111.691,200.141,-111.655,-446.941,2303.500,287.760,1726.780
992,63871.802000,233.484,66.783,-100.819,205.026,-116.540,-444.069,2078.500,12.760,2042.780
993,63871.824000,206.073,45.534,-107.737,224.542,-140.919,-428.634,1874.500,-225.240,2276.780
994,63871.844000,181.598,21.249,-113.668,238.200,-149.757,-421.974,1803.500,-241.240,2356.780
995,63871.867000,142.440,28.332,-71.166,245.020,-171.114,-409.272,1653.500,-120.240,2524.780
996,63871.882000,114.050,11.130,-61.282,244.979,-181.764,-401.383,1507.500,101.760,2741.780
997,63871.904000,112.092,-13.154,-46.456,247.963,-202.114,-393.537,1323.500,411.760,3041.780
998,63871.929000,122.860,-27.320,-40.525,227.593,-221.275,-393.154,1015.500,470.760,3235.780
999,63871.952000,99.365,-23.273,-51.398,223.681,-230.918,-388.151,644.500,161.760,3308.780
1000,63871.969000,61.185,-1.012,-52.386,196.446,-257.761,-382.715,405.500,25.760,3323.780
