Sample, Time, ACCX, ACCY, ACCZ, MAGX, MAGY, MAGZ, GYRX, GYRY, GYRZ
0,63675.917000,-51.396,-15.178,-238.208,53.184,-374.569,-295.381,-13.500,-40.240,7.780
1,63675.959000,-54.333,-16.190,-237.220,54.181,-378.449,-294.410,-11.500,-4.240,3.780
2,63675.968000,-53.354,-15.178,-238.208,63.031,-379.494,-296.534,-13.500,13.760,3.780
3,63675.982000,-50.417,-14.166,-239.197,61.091,-381.411,-296.497,-17.500,7.760,5.780
4,63676.4000,-52.375,-16.190,-240.185,53.202,-378.440,-294.392,-21.500,-11.240,2.780
5,63676.23000,-52.375,-15.178,-240.185,51.246,-380.358,-293.371,-20.500,-14.240,7.780
6,63676.44000,-52.375,-14.166,-241.174,55.169,-381.361,-293.439,-15.500,3.760,11.780
7,63676.67000,-52.375,-13.154,-239.197,54.206,-377.479,-296.380,-16.500,-0.240,7.780
8,63676.85000,-54.333,-14.166,-241.174,52.198,-377.465,-293.391,-19.500,-14.240,2.780
9,63676.108000,-54.333,-13.154,-240.185,56.163,-377.497,-296.415,-18.500,5.760,0.780
10,63676.125000,-53.354,-14.166,-241.174,60.112,-379.467,-297.467,-11.500,9.760,1.780
11,63676.150000,-52.375,-14.166,-242.162,54.180,-376.513,-295.396,-9.500,5.760,0.780
12,63676.166000,-53.354,-15.178,-239.197,50.249,-376.478,-294.342,-5.500,-4.240,-0.220
13,63676.179000,-52.375,-14.166,-239.197,50.310,-379.379,-296.309,-9.500,-3.240,-0.220
14,63676.198000,-53.354,-15.178,-241.174,56.164,-379.433,-295.428,-12.500,-10.240,-2.220
15,63676.247000,-53.354,-15.178,-239.197,48.310,-378.395,-294.306,-15.500,-12.240,-4.220
16,63676.261000,-54.333,-14.166,-240.185,50.249,-378.414,-293.356,-19.500,4.760,-9.220
17,63676.274000,-53.354,-13.154,-241.174,50.293,-379.380,-295.324,-12.500,12.760,-13.220
18,63676.294000,-52.375,-12.142,-241.174,59.073,-378.493,-294.496,-10.500,14.760,-12.220
19,63676.314000,-52.375,-13.154,-241.174,52.215,-377.464,-294.376,-7.500,12.760,-7.220
20,63676.332000,-50.417,-14.166,-240.185,58.095,-378.484,-294.479,-7.500,1.760,-4.220
21,63676.354000,-53.354,-13.154,-241.174,54.207,-381.351,-294.407,-16.500,-25.240,-12.220
22,63676.383000,-55.312,-12.142,-241.174,56.137,-376.531,-295.431,-14.500,-12.240,-17.220
23,63676.392000,-54.333,-12.142,-241.174,50.266,-374.542,-296.314,-6.500,25.760,-15.220
24,63676.413000,-51.396,-13.154,-238.208,53.202,-376.504,-295.379,-3.500,26.760,-11.220
25,63676.433000,-51.396,-13.154,-238.208,55.194,-378.456,-296.397,-9.500,-6.240,-10.220
26,63676.449000,-53.354,-12.142,-239.197,51.245,-378.422,-294.358,-12.500,-20.240,-13.220
27,63676.472000,-55.312,-13.154,-239.197,55.115,-375.557,-293.445,-8.500,0.760,-14.220
28,63676.497000,-52.375,-13.154,-238.208,54.215,-376.511,-297.366,-8.500,12.760,-15.220
29,63676.519000,-52.375,-13.154,-237.220,57.159,-375.569,-298.404,-10.500,19.760,-16.220
30,63676.542000,-52.375,-14.166,-239.197,60.103,-376.564,-298.454,-17.500,11.760,-21.220
31,63676.564000,-52.375,-15.178,-239.197,52.205,-374.560,-295.364,-21.500,6.760,-26.220
32,63676.582000,-52.375,-12.142,-239.197,57.133,-376.539,-296.433,-29.500,-3.240,-33.220
33,63676.599000,-53.354,-12.142,-240.185,57.150,-374.602,-298.405,-25.500,0.760,-32.220
34,63676.617000,-52.375,-15.178,-242.162,51.297,-376.483,-298.299,-14.500,26.760,-25.220
35,63676.647000,-49.438,-13.154,-241.174,53.227,-375.535,-297.350,-14.500,18.760,-25.220
36,63676.661000,-50.417,-12.142,-242.162,53.271,-376.500,-299.318,-17.500,-3.240,-24.220
37,63676.678000,-52.375,-12.142,-240.185,51.279,-374.549,-298.301,-17.500,-5.240,-22.220
38,63676.712000,-51.396,-13.154,-242.162,53.263,-377.469,-298.332,-12.500,12.760,-18.220
39,63676.729000,-48.459,-12.142,-240.185,55.184,-373.617,-298.371,-11.500,11.760,-20.220
40,63676.746000,-51.396,-11.130,-239.197,55.228,-376.518,-299.353,-8.500,-5.240,-21.220
41,63676.768000,-52.375,-12.142,-238.208,63.064,-375.621,-300.477,-4.500,14.760,-12.220
42,63676.787000,-50.417,-14.166,-239.197,54.275,-373.604,-302.293,-1.500,32.760,-6.220
43,63676.812000,-49.438,-14.166,-238.208,57.202,-374.599,-301.359,-9.500,9.760,-11.220
44,63676.829000,-50.417,-13.154,-239.197,61.073,-375.605,-298.473,-18.500,-4.240,-23.220
45,63676.853000,-52.375,-12.142,-240.185,57.132,-374.603,-297.420,-14.500,-0.240,-23.220
46,63676.867000,-52.375,-13.154,-240.185,53.270,-372.629,-301.292,-9.500,19.760,-20.220
47,63676.884000,-48.459,-11.130,-241.174,63.073,-374.652,-301.463,-12.500,29.760,-15.220
48,63676.907000,-48.459,-12.142,-240.185,56.197,-373.624,-300.358,-19.500,-4.240,-17.220
49,63676.929000,-52.375,-12.142,-241.174,54.231,-372.639,-300.324,-15.500,-10.240,-16.220
50,63676.952000,-53.354,-10.119,-241.174,57.131,-370.731,-299.393,-7.500,22.760,-13.220
51,63676.969000,-49.438,-12.142,-239.197,56.240,-374.589,-302.326,-2.500,37.760,-8.220
52,63676.992000,-47.480,-12.142,-238.208,54.231,-370.703,-301.311,-9.500,15.760,-10.220
53,63677.9000,-47.480,-13.154,-239.197,53.288,-376.499,-300.303,-15.500,-10.240,-10.220
54,63677.32000,-50.417,-11.130,-239.197,54.188,-371.673,-298.356,-17.500,-10.240,-12.220
55,63677.69000,-50.417,-10.119,-242.162,57.158,-373.634,-299.390,-15.500,5.760,-10.220
56,63677.88000,-48.459,-11.130,-242.162,65.055,-373.701,-303.468,-13.500,14.760,-6.220
57,63677.102000,-48.459,-10.119,-239.197,59.158,-372.681,-302.380,-12.500,2.760,-7.220
58,63677.111000,-49.438,-10.119,-240.185,54.266,-374.572,-301.307,-15.500,-7.240,-8.220
59,63677.131000,-49.438,-12.142,-243.151,57.175,-371.697,-301.362,-13.500,-10.240,-6.220
60,63677.156000,-51.396,-12.142,-241.174,52.317,-371.650,-303.245,-6.500,16.760,-7.220
61,63677.178000,-50.417,-11.130,-242.162,52.326,-372.618,-303.244,-3.500,25.760,-6.220
62,63677.187000,-47.480,-11.130,-240.185,60.171,-372.688,-304.367,-6.500,6.760,-8.220
63,63677.214000,-47.480,-11.130,-241.174,59.167,-371.713,-303.366,-9.500,-3.240,-8.220
64,63677.237000,-49.438,-10.119,-241.174,56.179,-369.753,-301.346,-10.500,-1.240,-11.220
65,63677.257000,-49.438,-12.142,-242.162,54.240,-371.670,-301.310,-5.500,1.760,-8.220
66,63677.273000,-49.438,-13.154,-243.151,56.180,-373.625,-299.373,-4.500,7.760,-7.220
67,63677.294000,-49.438,-11.130,-242.162,52.291,-370.684,-302.261,2.500,6.760,-2.220
68,63677.317000,-48.459,-12.142,-239.197,53.252,-370.694,-301.294,-0.500,12.760,-3.220
69,63677.333000,-48.459,-11.130,-239.197,56.232,-373.622,-302.327,-4.500,-3.240,-4.220
70,63677.354000,-47.480,-12.142,-239.197,58.197,-372.671,-303.348,-5.500,-1.240,-2.220
71,63677.377000,-50.417,-11.130,-241.174,54.222,-369.735,-301.312,-6.500,7.760,0.780
72,63677.399000,-47.480,-11.130,-240.185,55.217,-367.808,-303.301,-9.500,14.760,0.780
73,63677.422000,-46.501,-12.142,-242.162,58.214,-372.670,-304.332,-10.500,-4.240,0.780
74,63677.459000,-48.459,-11.130,-238.208,57.175,-369.761,-302.348,-8.500,-6.240,-3.220
75,63677.480000,-48.459,-10.119,-241.174,51.347,-368.737,-305.200,-6.500,-11.240,5.780
76,63677.493000,-47.480,-11.130,-242.162,53.261,-369.726,-302.279,-1.500,-3.240,13.780
77,63677.496000,-48.459,-11.130,-241.174,54.221,-367.800,-302.298,-0.500,-0.240,17.780
78,63677.526000,-48.459,-11.130,-241.174,52.299,-369.716,-303.247,0.500,-3.240,16.780
79,63677.547000,-49.438,-12.142,-238.208,52.256,-368.750,-301.278,-3.500,7.760,9.780
80,63677.569000,-49.438,-12.142,-240.185,54.327,-375.537,-304.260,-6.500,3.760,9.780
81,63677.587000,-49.438,-13.154,-241.174,53.313,-373.594,-303.260,-7.500,-8.240,5.780
82,63677.609000,-52.375,-10.119,-242.162,52.334,-371.649,-304.229,-3.500,-9.240,6.780
83,63677.632000,-50.417,-11.130,-240.185,50.351,-370.665,-303.211,-1.500,7.760,9.780
84,63677.654000,-49.438,-12.142,-240.185,57.262,-371.692,-306.286,-2.500,-0.240,7.780
85,63677.669000,-51.396,-11.130,-241.174,55.253,-371.677,-303.297,-7.500,-5.240,2.780
86,63677.698000,-49.438,-12.142,-242.162,52.274,-370.685,-301.276,-8.500,-7.240,-1.220
87,63677.712000,-51.396,-11.130,-242.162,61.176,-373.663,-305.368,-7.500,-9.240,-3.220
88,63677.734000,-49.438,-10.119,-242.162,48.411,-368.711,-305.148,-0.500,6.760,-1.220
89,63677.752000,-49.438,-11.130,-242.162,53.269,-368.757,-303.265,5.500,8.760,3.780
90,63677.774000,-48.459,-11.130,-241.174,56.257,-370.717,-305.284,8.500,13.760,7.780
91,63677.804000,7.342,-239.810,-215.475,42.660,-362.843,-314.898,-1395.500,1098.760,-86.220
92,63677.808000,-66.080,-87.020,-193.730,35.523,-387.963,-285.208,-1115.500,-1608.240,441.780
93,63677.826000,-216.841,25.296,-276.757,38.314,-400.580,-270.476,229.500,-1552.240,-120.220
94,63677.868000,-143.419,-2.024,-280.710,37.273,-393.799,-270.466,582.500,287.760,-101.220
95,63677.882000,-92.512,-198.324,-254.023,41.435,-381.238,-291.228,269.500,1285.760,-64.220
96,63677.904000,-25.943,110.292,-242.162,47.417,-376.446,-300.199,-345.500,1378.760,-388.220
97,63677.913000,-22.027,82.972,-264.896,46.540,-364.816,-312.011,46.500,1010.760,-282.220
98,63677.931000,-14.195,-50.593,-271.815,41.682,-364.770,-313.894,140.500,554.760,56.780
99,63677.952000,-21.048,1.012,-272.803,46.504,-360.947,-312.015,73.500,174.760,-2.220
100,63677.974000,-25.943,3.036,-269.838,43.629,-361.885,-314.916,139.500,-58.240,68.780
101,63677.994000,-45.522,-9.107,-256.000,45.499,-358.036,-312.000,170.500,-141.240,104.780
102,63678.23000,-47.480,-3.036,-245.127,50.426,-358.078,-314.056,197.500,11.760,79.780
103,63678.37000,-40.627,-14.166,-236.232,50.505,-360.978,-317.008,196.500,111.760,79.780
104,63678.57000,-37.690,-16.190,-230.301,55.397,-362.958,-316.107,164.500,101.760,75.780
105,63678.79000,-33.774,-16.190,-228.324,59.312,-364.929,-315.190,128.500,6.760,58.780
106,63678.96000,-38.669,-19.225,-227.336,50.462,-361.948,-314.052,100.500,-65.240,45.780
107,63678.117000,-44.543,-20.237,-228.324,52.444,-360.996,-316.057,42.500,-136.240,6.780
108,63678.142000,-50.417,-20.237,-227.336,55.363,-362.960,-314.138,2.500,-110.240,-34.220
109,63678.156000,-51.396,-17.202,-229.313,53.440,-362.940,-316.073,-27.500,9.760,-57.220
110,63678.184000,-38.669,-15.178,-232.278,51.440,-363.893,-313.083,-42.500,70.760,-59.220
111,63678.212000,-35.732,-14.166,-233.266,51.475,-363.891,-315.052,-53.500,31.760,-44.220
112,63678.234000,308.864,516.047,462.579,52.667,-351.305,-333.793,-2062.500,3114.760,-539.220
113,63678.248000,-23.006,-215.526,-169.019,30.919,-366.608,-312.717,-967.500,-1491.240,521.780
114,63678.266000,-240.337,-39.462,-258.965,36.765,-369.566,-309.863,147.500,-876.240,-753.220
115,63678.289000,-182.577,108.269,-330.131,48.607,-358.053,-321.900,706.500,740.760,-483.220
116,63678.308000,166.914,-19.225,-230.301,49.671,-352.249,-329.801,534.500,1346.760,827.780
117,63678.328000,0.489,22.261,-241.174,43.765,-352.198,-327.728,-249.500,-283.240,-252.220
118,63678.351000,-96.428,-7.083,-273.792,45.654,-356.091,-321.850,-181.500,-416.240,-121.220
119,63678.368000,-42.585,0.000,-287.629,43.766,-354.134,-326.741,-54.500,32.760,-108.220
120,63678.385000,-17.132,-1.012,-284.664,47.585,-355.143,-320.901,21.500,-99.240,-60.220
121,63678.408000,-48.459,3.036,-279.722,41.740,-356.056,-321.780,111.500,-44.240,19.780
122,63678.431000,-44.543,6.071,-267.861,39.782,-350.230,-324.706,218.500,259.760,81.780
123,63678.478000,-16.153,-3.036,-250.069,45.688,-352.218,-325.793,234.500,292.760,88.780
124,63678.492000,-15.174,-9.107,-238.208,47.696,-350.297,-329.768,198.500,114.760,87.780
125,63678.492000,-30.837,-13.154,-233.266,50.596,-348.390,-328.837,155.500,9.760,84.780
126,63678.508000,-31.816,-17.202,-232.278,49.636,-352.251,-327.831,120.500,-37.240,54.780
127,63678.531000,-35.732,-21.249,-230.301,55.499,-353.273,-326.949,71.500,-98.240,18.780
128,63678.554000,-39.648,-20.237,-228.324,49.567,-352.255,-323.892,23.500,-103.240,-31.220
129,63678.570000,-44.543,-17.202,-229.313,49.584,-352.254,-324.877,4.500,-11.240,-57.220
130,63678.591000,-36.711,-14.166,-235.243,53.524,-351.320,-326.917,12.500,100.760,-46.220
131,63678.613000,-17.132,-13.154,-239.197,58.433,-349.428,-328.975,13.500,75.760,2.780
132,63678.636000,-6.363,-10.119,-242.162,53.567,-350.350,-329.872,19.500,38.760,39.780
133,63678.653000,-1.468,-11.130,-243.151,49.619,-352.252,-326.847,32.500,-7.240,112.780
134,63678.681000,7.342,-4.047,-257.977,48.622,-348.373,-327.818,95.500,16.760,217.780
135,63678.698000,13.216,2.024,-272.803,49.600,-344.510,-329.809,240.500,265.760,444.780
136,63678.715000,35.732,8.095,-285.652,40.896,-338.617,-338.522,454.500,790.760,798.780
137,63678.738000,79.786,4.047,-283.676,41.977,-334.748,-346.421,571.500,1175.760,1120.780
138,63678.756000,140.482,-11.130,-259.954,32.241,-323.042,-355.122,535.500,1027.760,1424.780
139,63678.778000,205.094,-32.379,-235.243,24.508,-323.933,-359.907,422.500,211.760,1760.780
140,63678.799000,216.841,-30.356,-231.290,9.806,-326.705,-356.690,390.500,-614.240,2220.780
141,63678.824000,151.250,0.000,-237.220,-14.810,-336.170,-342.461,465.500,-861.240,2472.780
142,63678.833000,87.618,3.036,-228.324,-27.615,-341.867,-334.352,586.500,-907.240,2871.780
143,63678.876000,80.765,5.059,-217.452,-54.162,-350.345,-322.059,640.500,-917.240,3164.780
144,63678.889000,61.185,12.142,-213.498,-75.758,-352.089,-316.753,670.500,-1221.240,3323.780
145,63678.906000,9.300,12.142,-215.475,-109.283,-361.480,-296.460,686.500,-1575.240,3333.780
146,63678.927000,-38.669,11.130,-215.475,-120.289,-361.395,-282.483,678.500,-1894.240,3252.780
147,63678.944000,-64.122,28.332,-223.382,-151.935,-371.777,-257.299,730.500,-2123.240,3123.780
148,63678.967000,-93.491,53.628,-222.394,-187.524,-373.413,-235.010,839.500,-2167.240,3006.780
149,63678.987000,-134.608,73.866,-207.568,-193.645,-374.341,-220.134,888.500,-2059.240,2843.780
150,63679.7000,-190.409,77.913,-185.822,-221.279,-367.330,-209.808,960.500,-1645.240,2728.780
151,63679.29000,-243.273,68.806,-174.950,-241.932,-361.342,-206.497,971.500,-1010.240,2460.780
152,63679.47000,-296.138,59.700,-164.077,-252.786,-347.698,-208.289,882.500,-307.240,2106.780
153,63679.69000,-306.906,43.510,-126.517,-260.634,-336.013,-213.087,677.500,358.760,1688.780
154,63679.92000,-302.990,41.486,-137.390,-266.455,-326.278,-220.871,391.500,366.760,1106.780
155,63679.112000,-323.549,58.688,-138.378,-269.426,-324.318,-219.836,47.500,-127.240,392.780
156,63679.132000,-365.644,63.747,-124.541,-274.370,-326.212,-215.808,-276.500,-341.240,-299.220
157,63679.141000,-355.855,74.877,-120.587,-271.467,-333.984,-209.944,-582.500,-1.240,-822.220
158,63679.171000,-302.011,99.162,-134.425,-269.545,-334.003,-208.009,-709.500,230.760,-1041.220
159,63679.188000,-279.495,109.281,-132.448,-254.804,-344.780,-206.288,-937.500,439.760,-1478.220
160,63679.211000,-282.432,105.233,-137.390,-244.966,-350.674,-206.455,-1179.500,588.760,-1847.220
161,63679.236000,-237.400,117.375,-159.135,-230.121,-361.445,-210.643,-1382.500,841.760,-2171.220
162,63679.253000,-181.598,132.553,-173.961,-228.173,-362.431,-209.692,-1505.500,806.760,-2498.220
163,63679.271000,-191.388,134.577,-180.880,-196.778,-381.101,-205.303,-1612.500,443.760,-2798.220
164,63679.298000,-211.946,154.814,-195.707,-180.098,-389.961,-203.619,-1675.500,515.760,-2962.220
165,63679.318000,-199.220,173.028,-202.625,-158.353,-398.855,-211.869,-1554.500,1013.760,-3024.220
166,63679.347000,-156.145,172.016,-208.556,-130.729,-402.963,-223.182,-1370.500,1389.760,-3093.220
167,63679.363000,-93.491,173.028,-224.371,-117.897,-400.169,-231.288,-1287.500,1433.760,-3123.220
168,63679.376000,-68.038,163.921,-229.313,-86.298,-407.213,-244.637,-1134.500,1110.760,-3234.220
169,63679.403000,-94.470,153.802,-231.290,-68.574,-404.463,-252.829,-1057.500,818.760,-3292.220
170,63679.418000,-94.470,156.838,-236.232,-35.133,-398.948,-266.225,-946.500,1111.760,-3200.220
171,63679.441000,-29.859,150.767,-237.220,1.405,-388.612,-291.495,-752.500,1578.760,-3057.220
172,63679.471000,54.333,120.411,-237.220,15.188,-379.053,-301.595,-622.500,1352.760,-3009.220
173,63679.486000,68.038,86.008,-255.012,48.525,-373.544,-309.082,-665.500,480.760,-2997.220
174,63679.506000,31.816,78.925,-268.849,58.247,-366.861,-309.262,-696.500,-36.240,-2938.220
175,63679.528000,24.964,78.925,-265.884,86.675,-363.244,-314.691,-668.500,1.760,-2839.220
176,63679.548000,67.059,76.901,-264.896,104.250,-353.728,-317.967,-607.500,303.760,-2678.220
177,63679.563000,103.281,64.759,-278.734,129.740,-340.406,-328.278,-526.500,405.760,-2583.220
178,63679.586000,106.218,33.391,-273.792,133.574,-333.670,-327.369,-388.500,294.760,-2410.220
179,63679.606000,123.839,12.142,-264.896,156.120,-323.226,-335.656,-257.500,315.760,-1990.220
180,63679.628000,136.566,4.047,-250.069,173.652,-310.808,-337.950,-181.500,204.760,-1594.220
181,63679.647000,187.472,10.119,-262.919,176.647,-309.863,-341.942,-210.500,-126.240,-1330.220
182,63679.676000,197.262,1.012,-281.699,188.346,-310.940,-339.194,-181.500,-485.240,-1012.220
183,63679.686000,173.767,-10.119,-290.595,194.148,-310.997,-335.359,-59.500,-341.240,-565.220
184,63679.708000,150.272,-32.379,-266.873,197.066,-309.089,-335.413,35.500,-100.240,-303.220
185,63679.731000,173.767,-46.545,-239.197,195.091,-305.201,-336.367,136.500,354.760,134.780
186,63679.753000,190.409,-50.593,-244.139,198.104,-306.191,-340.357,123.500,303.760,510.780
187,63679.773000,180.620,-42.498,-256.000,178.526,-306.982,-339.025,94.500,125.760,847.780
188,63679.791000,155.166,-27.320,-259.954,181.507,-315.717,-337.098,136.500,16.760,1201.780
189,63679.804000,128.734,-12.142,-257.977,162.933,-317.483,-336.768,213.500,72.760,1499.780
190,63679.818000,111.113,-3.036,-252.046,152.249,-322.220,-338.542,293.500,199.760,1766.780
191,63679.846000,95.449,1.012,-255.012,134.716,-328.831,-339.209,324.500,292.760,2010.780
192,63679.868000,97.407,9.107,-256.988,122.983,-331.627,-338.013,311.500,260.760,2200.780
193,63679.891000,102.302,24.285,-259.954,101.466,-336.270,-335.658,297.500,-40.240,2277.780
194,63679.911000,69.017,48.569,-265.884,90.663,-350.693,-325.606,280.500,-453.240,2363.780
195,63679.938000,18.111,60.711,-271.815,67.165,-360.159,-319.272,332.500,-531.240,2405.780
196,63679.966000,5.384,68.806,-269.838,45.596,-364.806,-313.963,409.500,-282.240,2507.780
197,63679.984000,15.174,73.866,-256.000,22.121,-367.495,-312.560,455.500,-221.240,2678.780
198,63679.999000,19.090,84.996,-251.058,-8.349,-371.099,-302.172,482.500,-531.240,2872.780
199,63680.19000,-1.468,98.150,-248.093,-21.129,-375.826,-296.034,547.500,-858.240,2998.780
200,63680.42000,-29.859,113.328,-251.058,-55.547,-383.268,-281.634,641.500,-1020.240,3061.780
201,63680.56000,-58.249,122.435,-256.000,-74.269,-382.138,-274.413,686.500,-1032.240,3076.780
202,63680.77000,-80.765,130.530,-259.954,-105.770,-383.800,-262.040,798.500,-989.240,3065.780
203,63680.99000,-103.281,132.553,-250.069,-133.289,-383.557,-254.662,892.500,-902.240,3008.780
204,63680.122000,-135.587,130.530,-243.151,-144.140,-379.593,-251.521,996.500,-761.240,2859.780
205,63680.133000,-168.872,123.447,-228.324,-168.726,-369.698,-249.129,1093.500,-452.240,2636.780
206,63680.156000,-177.683,108.269,-221.405,-176.573,-363.821,-250.966,1109.500,-139.240,2415.780
207,63680.178000,-178.662,101.186,-216.463,-192.292,-351.099,-253.656,1062.500,45.760,2180.780
208,63680.198000,-176.704,100.174,-203.614,-191.333,-343.366,-256.636,953.500,81.760,2006.780
209,63680.218000,-190.409,99.162,-193.730,-218.777,-330.537,-260.103,818.500,38.760,1785.780
210,63680.241000,-217.820,82.972,-170.996,-225.604,-319.826,-266.886,725.500,45.760,1625.780
211,63680.263000,-240.337,60.711,-165.066,-225.631,-314.988,-267.875,496.500,-27.240,1206.780
212,63680.281000,-266.769,45.534,-162.100,-230.583,-315.915,-263.849,211.500,-166.240,610.780
213,63680.298000,-268.727,51.605,-177.915,-235.475,-317.806,-262.776,-40.500,-276.240,28.780
214,63680.317000,-277.537,73.866,-180.880,-229.655,-323.670,-256.965,-193.500,-249.240,-471.220
215,63680.364000,-301.033,83.984,-176.927,-221.748,-326.640,-260.055,-296.500,79.760,-832.220
216,63680.383000,-277.537,81.960,-175.938,-211.002,-328.675,-258.274,-400.500,390.760,-1140.220
217,63680.386000,-240.337,74.877,-176.927,-211.866,-335.435,-261.204,-538.500,338.760,-1490.220
218,63680.407000,-204.115,70.830,-193.730,-197.135,-343.309,-260.471,-709.500,217.760,-1881.220
219,63680.429000,-186.493,80.949,-207.568,-177.466,-358.000,-258.833,-780.500,-13.240,-2065.220
220,63680.447000,-184.535,99.162,-219.429,-169.619,-363.877,-256.996,-857.500,53.760,-2328.220
221,63680.469000,-178.662,115.352,-223.382,-148.974,-370.834,-259.322,-826.500,351.760,-2467.220
222,63680.496000,-161.040,125.470,-221.405,-134.183,-377.736,-262.529,-719.500,618.760,-2512.220
223,63680.511000,-119.924,124.459,-219.429,-103.719,-380.908,-268.971,-629.500,572.760,-2525.220
224,63680.533000,-90.554,115.352,-218.440,-97.761,-380.957,-273.998,-628.500,284.760,-2586.220
225,63680.553000,-85.660,100.174,-221.405,-64.448,-388.032,-273.595,-711.500,-7.240,-2735.220
226,63680.576000,-70.975,95.115,-234.255,-40.997,-395.991,-268.094,-845.500,-228.240,-2871.220
227,63680.596000,-87.618,99.162,-240.185,-25.280,-397.098,-271.324,-888.500,-304.240,-2945.220
228,63680.616000,-105.239,99.162,-240.185,6.958,-397.394,-268.941,-932.500,-207.240,-3025.220
229,63680.631000,-73.912,104.221,-241.174,23.731,-395.602,-278.100,-929.500,309.760,-3053.220
230,63680.653000,-28.880,105.233,-248.093,59.049,-387.206,-288.579,-844.500,687.760,-3061.220
231,63680.673000,-10.279,96.126,-243.151,71.803,-381.512,-293.733,-713.500,706.760,-3041.220
232,63680.691000,14.195,88.032,-242.162,103.162,-364.372,-306.122,-619.500,668.760,-2935.220
233,63680.709000,37.690,75.889,-255.012,120.844,-362.592,-311.359,-562.500,499.760,-2794.220
234,63680.737000,37.690,65.771,-262.919,149.189,-342.526,-320.744,-529.500,182.760,-2713.220
235,63680.754000,57.270,58.688,-265.884,171.674,-333.053,-325.091,-490.500,0.760,-2554.220
236,63680.772000,46.501,49.581,-265.884,175.571,-331.154,-325.162,-456.500,-37.240,-2451.220
237,63680.794000,76.849,50.593,-270.826,196.988,-310.062,-330.488,-365.500,165.760,-2197.220
238,63680.808000,126.776,31.368,-270.826,211.629,-302.454,-332.725,-257.500,284.760,-1925.220
239,63680.851000,145.377,19.225,-271.815,221.394,-290.929,-337.833,-213.500,20.760,-1681.220
240,63680.879000,143.419,5.059,-275.768,229.196,-291.970,-336.001,-183.500,-214.240,-1408.220
241,63680.882000,158.103,-7.083,-277.745,242.867,-283.385,-339.206,-154.500,-103.240,-1109.220
242,63680.903000,174.746,-22.261,-275.768,248.702,-279.568,-339.314,-86.500,53.760,-768.220
243,63680.921000,184.535,-30.356,-264.896,254.520,-275.753,-338.437,-12.500,201.760,-391.220
244,63680.937000,188.451,-38.451,-260.942,248.603,-265.055,-341.298,89.500,291.760,58.780
245,63680.957000,209.010,-40.474,-261.931,252.535,-267.026,-341.366,125.500,507.760,290.780
246,63680.978000,225.652,-38.451,-250.069,246.811,-267.932,-349.139,183.500,498.760,727.780
247,63680.992000,206.073,-36.427,-238.208,237.953,-267.855,-346.029,195.500,305.760,1137.780
248,63681.19000,166.914,-25.296,-237.220,224.403,-276.433,-349.717,191.500,361.760,1514.780
249,63681.37000,152.229,-11.130,-235.243,220.638,-281.229,-355.551,189.500,654.760,1846.780
250,63681.59000,165.935,-2.024,-225.359,204.020,-279.141,-357.229,158.500,772.760,2067.780
251,63681.82000,163.977,4.047,-221.405,177.759,-288.571,-360.691,47.500,498.760,2248.780
252,63681.99000,148.314,24.285,-234.255,163.100,-294.243,-358.456,-67.500,122.760,2369.780
253,63681.113000,133.629,51.605,-241.174,137.750,-307.558,-356.023,-109.500,-18.240,2423.780
254,63681.148000,101.323,70.830,-247.104,120.146,-310.301,-354.724,-134.500,-196.240,2560.780
255,63681.171000,78.807,89.043,-256.000,87.945,-321.617,-353.156,-87.500,-206.240,2785.780
256,63681.191000,70.975,105.233,-245.127,77.201,-329.261,-350.004,32.500,-171.240,3130.780
257,63681.208000,79.786,126.482,-251.058,38.055,-337.617,-344.379,107.500,-327.240,3493.780
258,63681.236000,70.975,148.743,-262.919,-7.031,-347.859,-333.725,173.500,-807.240,3719.780
259,63681.254000,44.543,176.063,-259.954,-26.790,-351.563,-320.573,286.500,-1180.240,3901.780
260,63681.293000,-2.447,216.538,-266.873,-68.074,-362.815,-303.094,474.500,-1351.240,4057.780
261,63681.296000,-48.459,238.798,-265.884,-89.749,-359.724,-295.823,693.500,-1111.240,4194.780
262,63681.335000,-67.059,238.798,-259.954,-138.908,-354.453,-284.130,799.500,-968.240,4234.780
263,63681.338000,-81.744,231.715,-259.954,-159.518,-349.430,-282.787,944.500,-774.240,4216.780
264,63681.352000,-91.533,221.597,-261.931,-191.092,-337.545,-273.382,1031.500,-880.240,4118.780
265,63681.379000,-128.734,210.466,-246.116,-210.891,-323.829,-267.141,1084.500,-1112.240,3888.780
266,63681.388000,-180.620,205.407,-233.266,-240.473,-311.960,-259.741,1130.500,-1097.240,3644.780
267,63681.411000,-257.958,189.217,-211.521,-252.340,-296.374,-260.533,1187.500,-779.240,3194.780
268,63681.433000,-322.570,135.589,-180.880,-266.015,-287.537,-266.209,1115.500,-208.240,2563.780
269,63681.462000,-319.633,95.115,-168.031,-276.774,-270.985,-274.898,820.500,224.760,1833.780
270,63681.482000,-301.033,97.138,-166.054,-272.879,-267.150,-275.956,645.500,211.760,1103.780
271,63681.498000,-313.759,118.387,-154.193,-284.674,-259.303,-276.740,324.500,-58.240,734.780
272,63681.511000,-345.086,130.530,-134.425,-283.688,-256.407,-278.730,55.500,-135.240,116.780
273,63681.533000,-347.044,131.542,-141.344,-280.802,-264.180,-271.881,-174.500,1.760,-405.220
274,63681.553000,-318.654,129.518,-149.251,-274.835,-271.003,-273.948,-377.500,209.760,-928.220
275,63681.573000,-282.432,128.506,-162.100,-270.885,-272.973,-275.000,-574.500,318.760,-1433.220
276,63681.601000,-250.126,125.470,-170.996,-255.183,-287.631,-270.338,-760.500,312.760,-1935.220
277,63681.616000,-216.841,127.494,-182.857,-256.143,-289.557,-270.319,-923.500,241.760,-2398.220
278,63681.644000,-188.451,142.672,-204.602,-230.532,-315.912,-266.803,-1007.500,206.760,-2793.220
279,63681.658000,-183.556,156.838,-217.452,-222.694,-320.822,-264.967,-1009.500,279.760,-2972.220
280,63681.674000,-165.935,172.016,-231.290,-196.054,-339.440,-268.370,-948.500,581.760,-3252.220
281,63681.716000,-138.524,185.170,-239.197,-186.067,-350.165,-274.441,-836.500,797.760,-3475.220
282,63681.734000,-109.155,184.158,-238.208,-148.719,-355.333,-281.987,-746.500,865.760,-3628.220
283,63681.748000,-74.891,178.087,-232.278,-113.275,-362.416,-291.466,-753.500,770.760,-3710.220
284,63681.768000,-46.501,171.004,-229.313,-88.752,-363.603,-294.852,-858.500,522.760,-3789.220
285,63681.777000,-31.816,167.968,-233.266,-54.390,-372.619,-297.418,-990.500,163.760,-3881.220
286,63681.791000,-23.985,161.897,-238.208,-35.824,-375.694,-294.789,-1118.500,-191.240,-3912.220
287,63681.823000,-16.153,160.885,-248.093,2.391,-383.781,-294.472,-1164.500,-356.240,-3901.220
288,63681.843000,-39.648,159.874,-259.954,14.081,-383.890,-291.725,-1148.500,-381.240,-3867.220
289,63681.866000,-55.312,167.968,-268.849,59.186,-381.391,-299.417,-977.500,168.760,-3758.220
290,63681.888000,-33.774,173.028,-269.838,95.418,-354.617,-315.841,-689.500,932.760,-3628.220
291,63681.906000,16.153,165.945,-275.768,117.055,-346.095,-327.062,-348.500,1477.760,-3421.220
292,63681.928000,64.122,139.636,-265.884,154.264,-311.587,-347.450,-77.500,1695.760,-3118.220
293,63681.946000,121.881,108.269,-256.000,166.071,-298.140,-358.504,29.500,1473.760,-2731.220
294,63681.969000,185.514,86.008,-256.000,191.437,-273.210,-367.842,50.500,744.760,-2439.220
295,63681.991000,209.989,73.866,-248.093,203.125,-265.576,-369.042,50.500,71.760,-2138.220
296,63682.13000,217.820,42.498,-245.127,221.574,-250.267,-369.386,54.500,-152.240,-1962.220
297,63682.36000,198.241,-3.036,-235.243,233.185,-245.542,-364.675,41.500,-259.240,-1589.220
298,63682.56000,189.430,-28.332,-240.185,242.007,-241.749,-367.789,-1.500,-57.240,-1222.220
299,63682.78000,254.042,-15.178,-253.035,251.729,-233.130,-368.956,6.500,57.760,-892.220
300,63682.91000,235.442,-38.451,-244.139,247.772,-232.129,-366.918,41.500,-84.240,-497.220
301,63682.104000,217.820,-42.498,-241.174,252.691,-235.076,-367.001,58.500,-13.240,-39.220
302,63682.132000,223.694,-36.427,-233.266,254.604,-230.257,-367.041,84.500,239.760,422.780
303,63682.152000,240.337,-35.415,-232.278,246.855,-236.957,-367.880,97.500,306.760,856.780
304,63682.173000,234.463,-26.308,-237.220,238.067,-238.811,-367.723,81.500,181.760,1220.780
305,63682.194000,211.946,-5.059,-245.127,225.452,-244.497,-370.446,62.500,147.760,1395.780
306,63682.223000,205.094,5.059,-244.139,215.791,-257.952,-370.260,47.500,218.760,1740.780
307,63682.237000,209.010,25.296,-244.139,202.127,-259.761,-371.000,25.500,255.760,2079.780
308,63682.259000,181.598,42.498,-243.151,182.709,-277.965,-369.651,12.500,-1.240,2433.780
309,63682.277000,138.524,61.723,-252.046,164.120,-287.475,-364.389,38.500,-342.240,2752.780
310,63682.306000,108.176,82.972,-238.208,138.815,-307.562,-360.964,106.500,-438.240,2963.780
311,63682.324000,102.302,104.221,-236.232,118.233,-313.184,-355.671,115.500,-427.240,3133.780
312,63682.357000,91.533,123.447,-243.151,83.038,-333.188,-346.165,111.500,-594.240,3230.780
313,63682.357000,43.564,134.577,-249.081,46.733,-344.480,-333.696,153.500,-743.240,3385.780
314,63682.379000,14.195,142.672,-247.104,33.999,-355.980,-326.566,191.500,-750.240,3475.780
315,63682.402000,10.279,168.980,-239.197,-12.128,-357.505,-316.888,268.500,-655.240,3663.780
316,63682.419000,7.342,192.253,-238.208,-39.576,-365.002,-309.502,339.500,-761.240,3862.780
317,63682.447000,-32.795,211.478,-230.301,-82.837,-364.622,-296.924,471.500,-979.240,3979.780
318,63682.456000,-64.122,230.704,-234.255,-101.524,-365.426,-290.686,631.500,-898.240,4076.780
319,63682.483000,-98.386,250.941,-242.162,-141.852,-353.459,-284.079,797.500,-640.240,4195.780
320,63682.503000,-104.260,261.059,-242.162,-162.535,-334.889,-285.704,947.500,-373.240,4386.780
321,63682.521000,-137.545,246.893,-212.510,-202.829,-322.919,-281.067,1015.500,-261.240,4346.780
322,63682.543000,-185.514,186.182,-178.903,-233.307,-297.486,-285.480,962.500,-222.240,4232.780
323,63682.566000,-216.841,131.542,-187.799,-252.031,-286.678,-283.193,681.500,-268.240,3713.780
324,63682.598000,-256.000,114.340,-196.695,-269.952,-268.145,-275.022,395.500,-616.240,2852.780
325,63682.613000,-308.864,122.435,-195.707,-278.802,-265.163,-273.884,212.500,-849.240,1943.780
326,63682.633000,-347.044,144.696,-183.846,-285.773,-261.236,-268.843,155.500,-499.240,1173.780
327,63682.656000,-336.275,171.004,-177.915,-293.602,-259.229,-269.691,108.500,42.760,654.780
328,63682.676000,-312.780,175.051,-168.031,-295.569,-252.437,-272.618,37.500,196.760,263.780
329,63682.691000,-291.243,142.672,-172.973,-292.694,-253.435,-268.730,-133.500,48.760,-159.220
330,63682.713000,-274.600,122.435,-186.811,-292.667,-258.273,-267.740,-392.500,-212.240,-741.220
331,63682.736000,-260.895,131.542,-200.649,-288.706,-272.824,-262.871,-514.500,-314.240,-1032.220
332,63682.752000,-251.105,148.743,-208.556,-279.932,-280.649,-257.110,-691.500,-342.240,-1572.220
333,63682.768000,-243.273,158.862,-209.544,-263.197,-301.121,-252.460,-788.500,-64.240,-1981.220
334,63682.781000,-220.757,162.909,-211.521,-261.249,-302.107,-251.509,-814.500,272.760,-2358.220
335,63682.831000,-184.535,176.063,-219.429,-244.419,-323.541,-251.782,-801.500,459.760,-2718.220
336,63682.849000,-156.145,193.265,-224.371,-223.728,-339.207,-252.129,-742.500,508.760,-3012.220
337,63682.852000,-156.145,198.324,-220.417,-191.279,-351.106,-255.643,-660.500,586.760,-3295.220
338,63682.872000,-135.587,199.336,-225.359,-158.745,-359.129,-266.054,-605.500,750.760,-3507.220
339,63682.893000,-114.050,210.466,-226.347,-147.851,-362.124,-272.150,-555.500,837.760,-3648.220
340,63682.916000,-98.386,209.455,-216.463,-103.514,-371.218,-285.721,-528.500,1024.760,-3709.220
341,63682.933000,-59.228,202.372,-218.440,-79.909,-371.425,-293.030,-546.500,1130.760,-3797.220
342,63682.956000,-16.153,192.253,-226.347,-43.533,-365.937,-306.478,-604.500,920.760,-3875.220
343,63682.978000,8.321,184.158,-235.243,-9.234,-366.245,-310.038,-701.500,429.760,-3998.220
344,63682.994000,6.363,186.182,-240.185,25.092,-369.456,-313.595,-770.500,123.760,-4049.220
345,63683.17000,-22.027,190.229,-239.197,64.332,-358.191,-326.116,-694.500,366.760,-3992.220
346,63683.38000,-6.363,186.182,-238.208,81.960,-348.671,-332.345,-564.500,939.760,-3861.220
347,63683.69000,56.291,175.051,-249.081,121.118,-319.021,-349.809,-406.500,1069.760,-3704.220
348,63683.107000,88.597,155.826,-246.116,141.656,-312.433,-353.133,-335.500,989.760,-3602.220
349,63683.107000,107.197,134.577,-235.243,173.914,-286.595,-365.547,-263.500,781.760,-3376.220
350,63683.124000,127.755,112.316,-238.208,183.609,-273.139,-367.704,-257.500,437.760,-3201.220
351,63683.147000,151.250,91.067,-234.255,207.002,-255.935,-372.075,-341.500,37.760,-3025.220
352,63683.172000,162.019,69.818,-242.162,225.442,-241.594,-371.434,-386.500,-270.240,-2754.220
353,63683.189000,185.514,57.676,-259.954,232.264,-236.818,-372.545,-355.500,-413.240,-2302.220
354,63683.209000,222.715,55.652,-267.861,246.844,-228.246,-371.828,-362.500,-633.240,-1898.220
355,63683.229000,214.883,48.569,-279.722,259.547,-228.363,-371.068,-277.500,-658.240,-1428.220
356,63683.245000,186.493,27.320,-291.583,264.309,-223.575,-366.236,-152.500,-149.240,-990.220
357,63683.267000,206.073,10.119,-300.479,259.458,-218.689,-371.078,-68.500,73.760,-758.220
358,63683.291000,223.694,-14.166,-285.652,261.353,-211.935,-371.120,45.500,280.760,-311.220
359,63683.311000,224.673,-26.308,-276.757,272.090,-211.066,-370.326,110.500,260.760,93.780
360,63683.338000,209.010,-27.320,-271.815,265.292,-209.065,-374.146,176.500,310.760,481.780
361,63683.357000,203.136,-34.403,-265.884,263.328,-211.951,-372.139,211.500,402.760,867.780
362,63683.376000,213.904,-22.261,-259.954,252.626,-216.690,-372.929,234.500,357.760,1276.780
363,63683.389000,204.115,-6.071,-256.988,243.908,-224.348,-373.750,273.500,322.760,1713.780
364,63683.409000,171.809,3.036,-254.023,243.971,-233.055,-372.756,321.500,507.760,2089.780
365,63683.424000,177.683,13.154,-245.127,220.645,-240.576,-377.257,320.500,563.760,2388.780
366,63683.443000,185.514,31.368,-237.220,215.867,-249.236,-379.131,295.500,425.760,2518.780
367,63683.471000,170.830,45.534,-236.232,194.404,-263.556,-374.797,270.500,167.760,2774.780
368,63683.503000,144.398,52.617,-239.197,168.119,-279.762,-373.328,241.500,-34.240,2998.780
369,63683.507000,137.545,66.783,-234.255,146.620,-286.340,-370.971,197.500,-269.240,3158.780
370,63683.533000,108.176,114.340,-229.313,116.310,-311.229,-358.593,136.500,-621.240,3250.780
371,63683.553000,60.207,129.518,-247.104,102.632,-322.718,-353.415,166.500,-940.240,3320.780
372,63683.576000,25.943,146.719,-253.035,68.337,-341.767,-339.988,253.500,-834.240,3420.780
373,63683.593000,15.174,164.933,-265.884,38.950,-349.245,-333.553,339.500,-596.240,3539.780
374,63683.616000,10.279,180.111,-260.942,3.683,-357.639,-326.028,387.500,-556.240,3591.780
375,63683.638000,-3.426,197.312,-257.977,-11.140,-360.417,-315.918,464.500,-618.240,3634.780
376,63683.656000,-32.795,213.502,-257.977,-50.410,-359.101,-308.333,569.500,-834.240,3643.780
377,63683.677000,-55.312,228.680,-262.919,-88.699,-365.536,-296.819,682.500,-862.240,3682.780
378,63683.698000,-72.933,238.798,-260.942,-107.430,-363.439,-289.599,804.500,-748.240,3767.780
379,63683.726000,-89.576,239.810,-246.116,-141.826,-354.425,-285.063,905.500,-660.240,3833.780
380,63683.744000,-107.197,230.704,-227.336,-154.669,-350.445,-279.918,960.500,-641.240,3834.780
381,63683.773000,-134.608,214.514,-212.510,-188.140,-335.635,-275.406,922.500,-693.240,3720.780
382,63683.776000,-182.577,188.206,-192.741,-204.837,-328.712,-275.118,781.500,-745.240,3439.780
383,63683.802000,-233.484,144.696,-193.730,-238.378,-311.970,-267.653,700.500,-824.240,3193.780
384,63683.819000,-255.021,144.696,-209.544,-253.246,-307.976,-258.535,486.500,-991.240,2630.780
385,63683.839000,-312.780,174.040,-195.707,-263.101,-307.891,-254.423,434.500,-1051.240,1971.780
386,63683.861000,-392.076,161.897,-170.008,-274.057,-296.189,-249.320,513.500,-725.240,1310.780
387,63683.893000,-404.803,132.553,-164.077,-271.027,-295.243,-255.282,513.500,156.760,721.780
388,63683.897000,-347.044,119.399,-168.031,-271.939,-285.551,-264.137,418.500,826.760,121.780
389,63683.918000,-275.579,122.435,-172.973,-267.903,-287.515,-270.113,234.500,678.760,-485.220
390,63683.952000,-250.126,123.447,-170.996,-259.036,-288.560,-273.222,4.500,152.760,-1041.220
391,63683.969000,-257.958,121.423,-170.008,-246.199,-303.188,-272.448,-228.500,-47.240,-1525.220
392,63683.987000,-242.294,120.411,-173.961,-239.314,-309.055,-271.578,-335.500,26.760,-1741.220
393,63684.14000,-211.946,122.435,-184.834,-223.551,-320.806,-271.843,-513.500,207.760,-2133.220
394,63684.31000,-179.641,128.506,-193.730,-207.781,-329.654,-274.081,-648.500,218.760,-2511.220
395,63684.52000,-160.061,133.565,-204.602,-183.184,-346.323,-273.512,-751.500,57.760,-2867.220
396,63684.67000,-146.356,146.719,-209.544,-172.393,-355.130,-270.739,-824.500,23.760,-3126.220
397,63684.94000,-133.629,155.826,-208.556,-136.072,-371.907,-269.393,-875.500,127.760,-3315.220
398,63684.113000,-118.945,160.885,-209.544,-121.342,-375.909,-270.634,-919.500,281.760,-3474.220
399,63684.151000,-89.576,160.885,-211.521,-80.122,-384.019,-274.307,-953.500,334.760,-3613.220
400,63684.162000,-54.333,153.802,-211.521,-44.730,-393.041,-279.845,-993.500,269.760,-3672.220
401,63684.176000,-37.690,157.850,-224.371,-31.108,-394.138,-275.162,-1121.500,-27.240,-3753.220
402,63684.193000,-58.249,163.921,-230.301,10.016,-401.286,-273.913,-1187.500,-290.240,-3765.220
403,63684.211000,-66.080,169.992,-239.197,24.719,-398.514,-277.129,-1158.500,-18.240,-3671.220
404,63684.238000,-35.732,162.909,-242.162,62.955,-390.146,-286.676,-1060.500,415.760,-3607.220
405,63684.248000,3.426,152.791,-243.151,88.420,-383.600,-292.056,-966.500,553.760,-3577.220
406,63684.282000,16.153,138.625,-249.081,120.785,-369.371,-304.459,-890.500,466.760,-3526.220
407,63684.288000,17.132,124.459,-250.069,152.029,-343.526,-314.886,-825.500,544.760,-3418.220
408,63684.316000,28.880,127.494,-261.931,164.851,-332.021,-326.940,-674.500,756.760,-3260.220
409,63684.336000,52.375,112.316,-262.919,201.984,-310.100,-336.483,-586.500,897.760,-3148.220
410,63684.353000,116.987,95.115,-268.849,212.761,-292.775,-346.538,-482.500,956.760,-2912.220
411,63684.377000,138.524,88.032,-271.815,234.237,-264.904,-358.764,-361.500,696.760,-2605.220
412,63684.393000,159.082,67.794,-273.792,237.118,-253.319,-361.782,-229.500,598.760,-2171.220
413,63684.407000,187.472,40.474,-266.873,251.713,-237.003,-365.997,-148.500,471.760,-1776.220
414,63684.426000,198.241,24.285,-271.815,257.397,-214.805,-367.108,-93.500,401.760,-1416.220
415,63684.457000,214.883,6.071,-272.803,265.284,-210.033,-373.160,-40.500,425.760,-1048.220
416,63684.469000,228.589,-13.154,-269.838,273.023,-200.431,-373.308,17.500,359.760,-656.220
417,63684.499000,233.484,-29.344,-263.907,275.949,-195.618,-375.335,38.500,299.760,-258.220
418,63684.522000,222.715,-25.296,-257.977,278.857,-192.743,-375.390,74.500,297.760,-46.220
419,63684.539000,214.883,-30.356,-256.000,275.004,-191.736,-379.260,145.500,477.760,414.780
420,63684.562000,225.652,-38.451,-245.127,273.090,-192.684,-381.194,157.500,553.760,841.780
421,63684.587000,231.526,-35.415,-234.255,265.297,-194.546,-382.039,122.500,466.760,1237.780
422,63684.613000,216.841,-24.285,-227.336,260.432,-199.340,-380.963,67.500,312.760,1534.780
423,63684.633000,179.641,-6.071,-224.371,240.016,-207.857,-383.545,15.500,395.760,1803.780
424,63684.651000,162.998,1.012,-228.324,238.234,-215.572,-389.411,-35.500,559.760,2038.780
425,63684.673000,179.641,6.071,-227.336,212.856,-224.048,-387.968,-93.500,379.760,2273.780
426,63684.688000,187.472,17.202,-227.336,200.275,-229.732,-392.661,-127.500,142.760,2381.780
427,63684.711000,179.641,41.486,-224.371,174.927,-252.726,-385.294,-179.500,-325.240,2632.780
428,63684.726000,130.692,67.794,-228.324,165.258,-267.149,-384.122,-144.500,-637.240,2897.780
429,63684.749000,80.765,79.937,-250.069,131.042,-287.161,-374.633,-69.500,-516.240,3183.780
430,63684.771000,83.702,92.079,-249.081,108.672,-307.275,-371.260,-32.500,-363.240,3410.780
431,63684.793000,104.260,114.340,-225.359,77.309,-312.801,-364.792,-67.500,-547.240,3574.780
432,63684.818000,84.681,142.672,-231.290,29.341,-324.949,-356.053,-27.500,-869.240,3757.780
433,63684.833000,41.606,165.945,-250.069,15.531,-333.542,-344.970,105.500,-872.240,3936.780
434,63684.853000,20.069,180.111,-253.035,-28.603,-338.955,-335.323,219.500,-688.240,4082.780
435,63684.878000,18.111,187.194,-245.127,-57.966,-341.592,-332.831,258.500,-646.240,4119.780
436,63684.911000,4.405,191.241,-255.012,-103.158,-342.161,-321.202,323.500,-773.240,4134.780
437,63684.911000,-24.964,192.253,-262.919,-115.992,-337.212,-317.043,397.500,-949.240,4068.780
438,63684.924000,-62.164,195.289,-266.873,-158.380,-331.039,-301.533,494.500,-1000.240,3918.780
439,63684.952000,-111.113,192.253,-258.965,-191.868,-320.102,-294.063,624.500,-830.240,3644.780
440,63684.974000,-164.956,177.075,-237.220,-204.659,-314.183,-292.859,695.500,-444.240,3198.780
441,63684.994000,-206.073,136.601,-216.463,-223.332,-297.564,-296.486,599.500,-97.240,2684.780
442,63685.13000,-195.304,118.387,-226.347,-237.180,-288.737,-292.313,460.500,-146.240,2188.780
443,63685.34000,-192.367,182.134,-221.405,-250.943,-276.033,-295.038,447.500,-251.240,1986.780
444,63685.57000,-240.337,180.111,-191.753,-249.065,-271.216,-293.108,449.500,-276.240,1776.780
445,63685.77000,-266.769,143.684,-197.683,-261.883,-260.459,-292.894,416.500,-188.240,1470.780
446,63685.86000,-263.832,127.494,-198.672,-269.739,-253.614,-294.732,317.500,12.760,1097.780
447,63685.113000,-268.727,118.387,-201.637,-269.757,-249.743,-295.720,139.500,-47.240,499.780
448,63685.131000,-276.558,123.447,-203.614,-263.893,-258.508,-290.891,-65.500,-174.240,-76.220
449,63685.176000,-297.117,123.447,-201.637,-268.768,-258.463,-291.790,-233.500,-226.240,-686.220
450,63685.178000,-290.264,120.411,-204.602,-261.856,-267.233,-290.917,-406.500,-58.240,-1255.220
451,63685.197000,-259.916,124.459,-215.475,-253.982,-276.013,-289.077,-585.500,0.760,-1832.220
452,63685.214000,-226.631,151.779,-226.347,-239.300,-293.568,-280.457,-663.500,-36.240,-2108.220
453,63685.237000,-224.673,173.028,-227.336,-229.374,-307.200,-281.601,-754.500,-143.240,-2600.220
454,63685.268000,-212.925,189.217,-233.266,-210.753,-321.886,-276.006,-746.500,20.760,-3014.220
455,63685.291000,-182.577,216.538,-227.336,-177.186,-337.658,-285.442,-662.500,520.760,-3318.220
456,63685.306000,-148.314,233.739,-224.371,-155.493,-344.620,-291.724,-453.500,976.760,-3550.220
457,63685.329000,-116.987,232.727,-221.405,-116.995,-343.980,-312.095,-172.500,1356.760,-3756.220
458,63685.361000,-74.891,224.632,-215.475,-96.308,-342.223,-321.323,78.500,1723.760,-3935.220
459,63685.379000,-4.405,205.407,-197.683,-40.182,-333.999,-346.937,171.500,1887.760,-4095.220
460,63685.393000,95.449,175.051,-201.637,-23.490,-323.500,-356.105,-13.500,1757.760,-4174.220
461,63685.402000,134.608,152.791,-240.185,25.492,-311.359,-366.830,-166.500,804.760,-4240.220
462,63685.421000,75.870,160.885,-257.977,65.629,-315.594,-366.551,-447.500,-349.240,-4348.220
463,63685.448000,18.111,166.957,-252.046,85.145,-309.968,-366.903,-479.500,-400.240,-4264.220
464,63685.466000,70.975,157.850,-253.035,121.362,-292.874,-377.408,-415.500,366.760,-4065.220
465,63685.486000,136.566,152.791,-267.861,133.950,-280.414,-376.661,-273.500,480.760,-3851.220
466,63685.513000,146.356,127.494,-262.919,168.097,-262.341,-381.224,-149.500,98.760,-3560.220
467,63685.531000,128.734,109.281,-263.907,185.647,-253.794,-382.529,-110.500,-49.240,-3261.220
468,63685.551000,119.924,92.079,-260.942,215.837,-232.784,-386.041,-46.500,127.760,-3007.220
469,63685.572000,169.851,80.949,-261.931,216.796,-225.050,-389.021,-47.500,267.760,-2873.220
470,63685.592000,213.904,61.723,-259.954,242.014,-201.097,-389.495,24.500,355.760,-2580.220
471,63685.624000,272.642,30.356,-254.023,267.321,-184.881,-390.946,117.500,258.760,-2102.220
472,63685.643000,286.348,-4.047,-229.313,267.259,-178.109,-390.953,147.500,-160.240,-1561.220
473,63685.668000,276.558,-14.166,-231.290,278.905,-177.254,-386.238,97.500,-544.240,-1081.220
474,63685.677000,286.348,-21.249,-248.093,281.763,-176.317,-382.351,100.500,-484.240,-616.220
475,63685.699000,283.411,-37.439,-247.104,285.677,-176.352,-382.421,165.500,-172.240,-121.220
476,63685.714000,258.937,-53.628,-237.220,279.745,-177.270,-378.377,200.500,223.760,391.780
477,63685.737000,255.021,-54.640,-223.382,279.762,-175.334,-380.348,200.500,646.760,850.780
478,63685.759000,278.516,-47.557,-205.591,270.090,-178.142,-385.096,180.500,730.760,1065.780
479,63685.782000,282.432,-32.379,-196.695,272.109,-182.996,-386.111,88.500,528.760,1441.780
480,63685.799000,247.189,-5.059,-201.637,251.676,-191.514,-387.708,-23.500,360.760,1760.780
481,63685.820000,228.589,10.119,-213.498,244.993,-200.153,-392.502,-105.500,580.760,2107.780
482,63685.842000,223.694,18.213,-207.568,226.498,-204.818,-395.123,-183.500,674.760,2421.780
483,63685.859000,210.967,39.462,-199.660,214.809,-210.516,-394.909,-293.500,543.760,2699.780
484,63685.882000,196.283,72.854,-196.695,184.782,-224.741,-404.206,-411.500,364.760,2891.780
485,63685.915000,197.262,102.198,-213.498,172.124,-231.397,-403.974,-524.500,53.760,3028.780
486,63685.928000,172.788,138.625,-236.232,135.146,-253.310,-403.294,-538.500,-154.240,3134.780
487,63685.947000,112.092,161.897,-251.058,102.902,-263.660,-399.758,-513.500,-351.240,3181.780
488,63685.969000,88.597,183.146,-259.954,74.501,-266.308,-396.299,-463.500,-24.240,3287.780
489,63685.992000,77.828,188.206,-261.931,42.290,-272.785,-396.706,-413.500,161.760,3412.780
490,63686.9000,69.017,194.277,-256.988,15.835,-270.611,-395.256,-425.500,13.760,3500.780
491,63686.37000,46.501,221.597,-243.151,-21.364,-272.209,-392.627,-411.500,-230.240,3583.780
492,63686.40000,-6.363,237.787,-247.104,-39.971,-277.849,-388.354,-343.500,-380.240,3617.780
493,63686.61000,-51.396,221.597,-266.873,-74.444,-273.678,-376.920,-253.500,-459.240,3522.780
494,63686.79000,-86.639,213.502,-270.826,-108.778,-273.372,-371.390,-173.500,-576.240,3303.780
495,63686.102000,-124.818,216.538,-280.710,-125.569,-269.358,-364.207,-112.500,-607.240,3181.780
496,63686.124000,-183.556,218.561,-292.571,-150.102,-263.332,-362.795,78.500,-350.240,2920.780
497,63686.147000,-211.946,199.336,-283.676,-152.122,-252.671,-364.741,310.500,470.760,2768.780
498,63686.167000,-200.199,156.838,-276.757,-167.906,-227.370,-370.398,383.500,821.760,2533.780
499,63686.189000,-139.503,119.399,-293.560,-182.602,-221.430,-372.114,297.500,256.760,2125.780
500,63686.212000,-157.124,133.565,-267.861,-191.487,-218.451,-369.007,244.500,-547.240,1721.780
501,63686.227000,-225.652,127.494,-250.069,-192.448,-220.377,-368.988,237.500,-716.240,1298.780
502,63686.240000,-243.273,113.328,-243.151,-199.383,-222.255,-362.956,198.500,-619.240,827.780
503,63686.258000,-263.832,99.162,-256.988,-197.390,-228.078,-362.000,187.500,-613.240,265.780
504,63686.286000,-274.600,76.901,-261.931,-193.536,-231.021,-357.142,181.500,-543.240,-22.220
505,63686.308000,-256.000,90.055,-260.942,-191.473,-238.776,-359.139,167.500,-332.240,-473.220
506,63686.331000,-226.631,118.387,-255.012,-187.585,-237.845,-358.224,189.500,-214.240,-765.220
507,63686.378000,-225.652,105.233,-239.197,-176.733,-247.617,-358.405,164.500,-210.240,-1147.220
508,63686.387000,-197.262,87.020,-238.208,-159.058,-254.549,-358.709,39.500,-304.240,-1667.220
509,63686.387000,-169.851,100.174,-243.151,-139.284,-273.106,-361.006,-110.500,-500.240,-2214.220
510,63686.399000,-164.956,122.435,-242.162,-125.582,-286.781,-354.342,-207.500,-391.240,-2633.220
511,63686.432000,-149.293,138.625,-242.162,-107.890,-291.776,-356.618,-185.500,37.760,-2890.220
512,63686.455000,-111.113,151.779,-251.058,-77.364,-299.784,-364.039,-144.500,199.760,-3130.220
513,63686.473000,-23.006,146.719,-258.965,-67.553,-302.775,-364.210,-65.500,322.760,-3266.220
514,63686.491000,9.300,146.719,-263.907,-24.430,-303.163,-368.910,-29.500,333.760,-3486.220
515,63686.518000,37.690,146.719,-265.884,-9.658,-302.323,-375.079,-30.500,288.760,-3620.220
516,63686.538000,55.312,149.755,-251.058,31.490,-300.758,-379.747,-25.500,176.760,-3672.220
517,63686.556000,52.375,147.731,-244.139,64.749,-294.286,-383.296,11.500,91.760,-3602.220
518,63686.583000,72.933,139.636,-235.243,83.330,-287.680,-386.586,89.500,190.760,-3440.220
519,63686.601000,106.218,121.423,-231.290,108.680,-272.430,-390.006,141.500,193.760,-3245.220
520,63686.623000,127.755,104.221,-239.197,130.223,-268.753,-393.344,115.500,-51.240,-3157.220
521,63686.646000,127.755,83.984,-248.093,158.414,-254.503,-390.906,97.500,-237.240,-3143.220
522,63686.661000,114.050,79.937,-246.116,175.005,-255.625,-388.245,40.500,-420.240,-3138.220
523,63686.683000,98.386,72.854,-232.278,203.186,-234.600,-388.769,66.500,-202.240,-3029.220
524,63686.701000,152.229,71.842,-230.301,217.844,-225.055,-392.977,99.500,398.760,-2851.220
525,63686.709000,219.778,68.806,-226.347,242.109,-200.123,-395.404,130.500,696.760,-2698.220
526,63686.728000,288.306,47.557,-231.290,266.391,-169.383,-401.777,165.500,608.760,-2428.220
527,63686.763000,336.275,-8.095,-228.324,272.121,-159.765,-398.936,232.500,136.760,-1925.220
528,63686.781000,337.254,-44.522,-217.452,279.869,-155.001,-397.110,139.500,-498.240,-1251.220
529,63686.801000,298.096,-37.439,-229.313,284.711,-156.985,-393.255,33.500,-823.240,-675.220
530,63686.828000,269.706,-46.545,-235.243,279.828,-161.779,-391.194,33.500,-701.240,-411.220
531,63686.861000,237.400,-61.723,-220.417,285.655,-160.867,-389.330,52.500,-213.240,26.780
532,63686.879000,234.463,-70.830,-203.614,284.739,-167.630,-389.305,34.500,270.760,447.780
533,63686.891000,234.463,-66.783,-187.799,276.886,-168.528,-387.196,-33.500,283.760,818.780
534,63686.917000,234.463,-52.617,-189.776,270.116,-175.237,-388.053,-116.500,-77.240,1092.780
535,63686.939000,211.946,-33.391,-198.672,256.646,-192.522,-391.733,-193.500,-381.240,1332.780
536,63686.948000,185.514,-12.142,-202.625,250.803,-199.242,-389.652,-203.500,-228.240,1627.780
537,63686.971000,168.872,-1.012,-212.510,230.387,-211.630,-390.261,-184.500,188.760,1914.780
538,63686.988000,179.641,-1.012,-213.498,224.657,-219.312,-394.089,-186.500,378.760,2160.780
539,63687.16000,199.220,6.071,-202.625,203.244,-223.950,-397.642,-240.500,463.760,2277.780
540,63687.33000,203.136,24.285,-209.544,185.694,-232.497,-396.337,-351.500,145.760,2537.780
541,63687.48000,172.788,52.617,-230.301,155.538,-251.569,-395.781,-418.500,-285.240,2796.780
542,63687.63000,149.293,76.901,-242.162,125.322,-269.677,-392.272,-404.500,-377.240,3026.780
543,63687.87000,146.356,100.174,-244.139,97.008,-276.191,-391.764,-374.500,-400.240,3183.780
544,63687.109000,120.902,121.423,-249.081,59.856,-292.306,-384.196,-300.500,-497.240,3365.780
545,63687.132000,87.618,137.613,-254.023,48.116,-299.942,-380.042,-215.500,-474.240,3573.780
546,63687.149000,80.765,158.862,-259.954,3.999,-307.290,-370.393,-141.500,-510.240,3731.780
547,63687.172000,64.122,184.158,-259.954,-17.509,-310.965,-369.023,-107.500,-580.240,3783.780
548,63687.194000,20.069,206.419,-274.780,-57.817,-312.546,-356.495,7.500,-685.240,3853.780
549,63687.219000,-17.132,214.514,-279.722,-97.123,-307.360,-348.914,216.500,-525.240,3909.780
550,63687.244000,-32.795,211.478,-281.699,-110.883,-302.400,-347.692,353.500,-319.240,3960.780
551,63687.261000,-37.690,212.490,-283.676,-146.276,-293.378,-342.154,430.500,-287.240,3938.780
552,63687.282000,-57.270,212.490,-277.745,-167.891,-283.508,-341.783,486.500,-427.240,3846.780
553,63687.302000,-111.113,185.170,-264.896,-189.585,-272.674,-337.474,543.500,-485.240,3545.780
554,63687.319000,-131.671,150.767,-256.988,-205.356,-263.827,-335.237,410.500,-356.240,3180.780
555,63687.339000,-89.576,126.482,-252.046,-225.136,-252.046,-328.994,74.500,-586.240,2846.780
556,63687.356000,-98.386,157.850,-261.931,-234.239,-244.240,-316.044,-15.500,-893.240,2636.780
557,63687.382000,-169.851,193.265,-240.185,-253.895,-244.067,-310.774,-2.500,-1296.240,2358.780
558,63687.396000,-255.021,171.004,-233.266,-269.751,-239.096,-301.639,198.500,-1185.240,1973.780
559,63687.423000,-348.023,115.352,-183.846,-272.660,-241.972,-301.585,330.500,-585.240,1212.780
560,63687.441000,-351.939,55.652,-189.776,-277.571,-236.121,-303.474,201.500,137.760,398.780
561,63687.463000,-294.180,96.126,-213.498,-269.700,-235.222,-306.567,12.500,339.760,-418.220
562,63687.486000,-276.558,160.885,-204.602,-269.656,-238.123,-307.549,-19.500,363.760,-870.220
563,63687.506000,-259.916,173.028,-171.985,-263.681,-242.042,-311.588,-110.500,401.760,-1102.220
564,63687.527000,-227.610,156.838,-170.008,-253.799,-246.965,-314.710,-150.500,343.760,-1367.220
565,63687.543000,-196.283,139.636,-187.799,-241.993,-261.587,-310.964,-255.500,84.760,-1565.220
566,63687.571000,-202.157,134.577,-215.475,-230.171,-272.336,-310.177,-354.500,-151.240,-2009.220
567,63687.591000,-204.115,143.684,-225.359,-220.218,-286.934,-312.304,-401.500,-51.240,-2431.220
568,63687.608000,-187.472,153.802,-232.278,-199.633,-292.926,-311.677,-390.500,257.760,-2726.220
569,63687.636000,-167.893,163.921,-234.255,-174.935,-303.782,-319.977,-349.500,636.760,-2957.220
570,63687.651000,-121.881,177.075,-239.197,-167.029,-304.817,-324.054,-292.500,815.760,-3155.220
571,63687.686000,-69.017,179.099,-239.197,-135.490,-312.832,-333.462,-260.500,746.760,-3351.220
572,63687.720000,-34.753,179.099,-248.093,-99.103,-317.991,-341.976,-234.500,562.760,-3544.220
573,63687.720000,-34.753,180.111,-252.046,-76.545,-320.128,-344.341,-208.500,542.760,-3631.220
574,63687.733000,-28.880,184.158,-249.081,-37.199,-314.665,-359.810,-163.500,728.760,-3752.220
575,63687.747000,7.342,180.111,-237.220,-17.577,-316.776,-362.124,-130.500,817.760,-3817.220
576,63687.761000,50.417,165.945,-228.324,20.643,-310.344,-369.699,-161.500,577.760,-3905.220
577,63687.788000,70.975,155.826,-232.278,38.315,-303.726,-376.911,-235.500,100.760,-3963.220
578,63687.811000,68.038,146.719,-243.151,74.457,-299.219,-376.571,-290.500,-158.240,-3974.220
579,63687.833000,53.354,142.672,-245.127,95.013,-296.501,-378.907,-306.500,-3.240,-3871.220
580,63687.856000,77.828,142.672,-250.069,130.122,-278.438,-382.502,-271.500,306.760,-3782.220
581,63687.876000,83.702,148.743,-260.942,167.212,-253.616,-391.063,-103.500,788.760,-3630.220
582,63687.904000,100.344,147.731,-257.977,182.889,-237.303,-401.204,17.500,1071.760,-3497.220
583,63687.922000,273.621,84.996,-242.162,201.264,-200.704,-408.463,188.500,1277.760,-3127.220
584,63687.938000,335.296,64.759,-234.255,213.894,-185.338,-411.658,271.500,953.760,-2619.220
585,63687.955000,366.623,32.379,-224.371,235.242,-166.185,-412.058,327.500,408.760,-2087.220
586,63688.2000,344.107,-28.332,-222.394,242.991,-159.486,-411.219,307.500,70.760,-1508.220
587,63688.2000,301.033,-62.735,-233.266,253.656,-148.942,-411.420,257.500,101.760,-871.220
588,63688.23000,317.675,-65.771,-224.371,259.404,-141.259,-408.577,238.500,368.760,-355.220
589,63688.38000,346.065,-60.711,-195.707,265.274,-137.441,-410.654,179.500,341.760,83.780
590,63688.56000,305.927,-68.806,-186.811,256.530,-142.197,-411.479,133.500,137.760,292.780
591,63688.78000,260.895,-68.806,-197.683,260.375,-146.108,-405.635,40.500,-145.240,691.780
592,63688.98000,245.231,-59.700,-200.649,251.692,-155.700,-407.439,-46.500,-129.240,1043.780
593,63688.121000,236.421,-41.486,-198.672,248.871,-162.442,-410.335,-110.500,-121.240,1327.780
594,63688.138000,217.820,-22.261,-201.637,229.444,-179.679,-408.987,-153.500,-104.240,1621.780
595,63688.161000,221.736,-3.036,-202.625,219.694,-181.524,-409.796,-183.500,31.760,1931.780
596,63688.181000,217.820,14.166,-201.637,206.173,-198.811,-410.521,-208.500,6.760,2224.780
597,63688.198000,193.346,33.391,-208.556,181.845,-215.036,-409.087,-227.500,-34.240,2553.780
598,63688.224000,165.935,46.545,-223.382,172.139,-221.718,-409.892,-230.500,9.760,2894.780
599,63688.247000,177.683,66.783,-221.405,140.970,-238.847,-408.336,-237.500,30.760,3046.780
600,63688.264000,182.577,91.067,-214.486,120.476,-246.400,-406.980,-295.500,-180.240,3297.780
601,63688.292000,150.272,117.375,-212.510,80.397,-263.456,-399.360,-354.500,-618.240,3455.780
602,63688.307000,94.470,134.577,-234.255,71.664,-280.794,-394.263,-342.500,-846.240,3578.780
603,63688.329000,68.038,139.636,-247.104,28.552,-291.053,-384.628,-229.500,-755.240,3722.780
604,63688.352000,70.975,145.708,-236.232,-10.585,-300.376,-379.003,-157.500,-606.240,3820.780
605,63688.374000,67.059,160.885,-241.174,-32.214,-304.057,-370.740,-198.500,-686.240,3833.780
606,63688.393000,37.690,176.063,-259.954,-81.293,-309.429,-358.052,-156.500,-919.240,3800.780
607,63688.413000,8.321,191.241,-267.861,-101.946,-307.312,-352.767,-117.500,-976.240,3795.780
608,63688.428000,-20.069,203.383,-267.861,-138.393,-305.060,-339.327,-18.500,-959.240,3806.780
609,63688.452000,-39.648,202.372,-260.942,-156.136,-302.004,-333.110,103.500,-771.240,3805.780
610,63688.468000,-44.543,200.348,-259.954,-189.668,-286.230,-325.644,157.500,-562.240,3727.780
611,63688.489000,-59.228,191.241,-244.139,-212.279,-278.288,-323.284,193.500,-641.240,3584.780
612,63688.512000,-77.828,177.075,-241.174,-238.078,-265.494,-309.060,174.500,-862.240,3347.780
613,63688.528000,-114.050,209.455,-236.232,-267.679,-251.690,-301.661,246.500,-895.240,3118.780
614,63688.557000,-149.293,236.775,-226.347,-270.686,-241.988,-302.604,420.500,-598.240,3002.780
615,63688.573000,-199.220,223.621,-206.579,-284.536,-225.418,-302.378,580.500,-404.240,2714.780
616,63688.596000,-222.715,156.838,-205.591,-298.272,-215.617,-305.100,586.500,-369.240,2510.780
617,63688.616000,-239.358,146.719,-212.510,-306.293,-205.877,-299.063,396.500,-600.240,1929.780
618,63688.636000,-308.864,155.826,-210.533,-305.384,-203.954,-296.128,254.500,-957.240,1187.780
619,63688.656000,-362.707,143.684,-198.672,-311.306,-207.775,-291.096,136.500,-771.240,473.780
620,63688.678000,-361.728,133.565,-189.776,-305.416,-213.635,-289.225,8.500,-215.240,-204.220
621,63688.692000,-319.633,129.518,-184.834,-303.442,-213.652,-290.244,-140.500,192.760,-844.220
622,63688.719000,-259.916,139.636,-183.846,-296.433,-229.192,-291.335,-314.500,258.760,-1363.220
623,63688.776000,-212.925,151.779,-181.869,-296.371,-234.028,-292.314,-484.500,125.760,-1755.220
624,63688.782000,-182.577,157.850,-180.880,-285.525,-252.511,-287.562,-624.500,-51.240,-2117.220
625,63688.796000,-175.725,148.743,-187.799,-272.775,-265.208,-282.851,-683.500,-122.240,-2301.220
626,63688.798000,-164.956,154.814,-197.683,-250.126,-286.698,-280.273,-788.500,-69.240,-2655.220
627,63688.818000,-153.208,174.040,-206.579,-244.130,-304.167,-278.390,-812.500,178.760,-2927.220
628,63688.842000,-144.398,178.087,-206.579,-227.424,-313.993,-277.689,-772.500,457.760,-3169.220
629,63688.864000,-129.713,176.063,-212.510,-198.740,-330.688,-287.037,-731.500,730.760,-3424.220
630,63688.889000,-101.323,184.158,-224.371,-175.160,-335.736,-290.402,-641.500,923.760,-3684.220
631,63688.910000,-67.059,193.265,-232.278,-139.708,-343.787,-299.880,-553.500,967.760,-3895.220
632,63688.930000,-45.522,198.324,-235.243,-117.055,-344.951,-308.155,-463.500,1041.760,-3976.220
633,63688.952000,-23.985,195.289,-226.347,-76.651,-346.268,-324.620,-441.500,1111.760,-3987.220
634,63688.972000,-0.489,184.158,-230.301,-58.969,-344.488,-329.857,-427.500,1114.760,-4010.220
635,63688.987000,38.669,176.063,-237.220,-17.702,-335.173,-345.365,-464.500,938.760,-4068.220
636,63689.15000,67.059,168.980,-239.197,29.369,-333.658,-353.090,-500.500,547.760,-4128.220
637,63689.34000,71.954,163.921,-244.139,48.945,-325.125,-358.369,-491.500,416.760,-4120.220
638,63689.57000,67.059,159.874,-254.023,88.097,-306.122,-369.913,-408.500,679.760,-4002.220
639,63689.72000,92.512,148.743,-257.977,101.794,-298.503,-374.102,-280.500,1038.760,-3774.220
640,63689.96000,155.166,131.542,-257.977,135.991,-270.748,-386.553,-112.500,1004.760,-3456.220
641,63689.124000,186.493,108.269,-254.023,150.638,-254.429,-393.722,-4.500,955.760,-3100.220
642,63689.143000,219.778,91.067,-257.977,178.930,-228.558,-403.113,40.500,948.760,-2858.220
643,63689.152000,260.895,59.700,-256.988,188.693,-209.291,-412.169,168.500,828.760,-2181.220
644,63689.172000,298.096,11.130,-247.104,203.257,-206.527,-407.507,157.500,210.760,-1580.220
645,63689.193000,317.675,-3.036,-261.931,216.878,-209.559,-401.838,84.500,-592.240,-1183.220
646,63689.217000,266.769,-2.024,-266.873,214.930,-208.573,-402.789,145.500,-646.240,-817.220
647,63689.239000,218.799,-19.225,-263.907,218.695,-201.842,-397.941,256.500,116.760,-359.220
648,63689.257000,230.547,-44.522,-247.104,231.424,-200.989,-399.152,302.500,644.760,117.780
649,63689.279000,258.937,-59.700,-219.429,226.522,-196.106,-401.040,255.500,401.760,550.780
650,63689.302000,279.495,-73.866,-197.683,221.673,-198.962,-401.935,178.500,108.760,923.780
651,63689.317000,254.042,-67.794,-198.672,214.845,-214.385,-394.905,53.500,-452.240,1080.780
652,63689.334000,215.862,-54.640,-203.614,205.176,-226.873,-394.720,-13.500,-482.240,1405.780
653,63689.348000,185.514,-35.415,-209.544,194.492,-235.481,-394.520,-10.500,-72.240,1713.780
654,63689.367000,204.115,-25.296,-200.649,176.951,-243.061,-394.201,-34.500,181.760,2020.780
655,63689.395000,204.115,-6.071,-203.614,170.146,-249.771,-393.089,-107.500,1.760,2346.780
656,63689.412000,176.704,17.202,-218.440,138.969,-269.805,-389.560,-175.500,-410.240,2640.780
657,63689.434000,147.335,44.522,-234.255,130.148,-277.469,-384.473,-183.500,-638.240,2869.780
658,63689.457000,125.797,73.866,-255.012,89.160,-296.447,-379.788,-132.500,-577.240,3024.780
659,63689.474000,92.512,89.043,-261.931,62.761,-309.756,-373.398,-67.500,-502.240,3115.780
660,63689.497000,75.870,107.257,-259.954,36.298,-308.551,-370.963,41.500,-245.240,3284.780
661,63689.514000,86.639,120.411,-249.081,4.069,-311.157,-372.358,94.500,18.760,3463.780
662,63689.539000,93.491,134.577,-238.208,-15.595,-311.953,-366.103,61.500,9.760,3575.780
663,63689.577000,69.017,152.791,-243.151,-51.886,-311.628,-360.539,-8.500,-342.240,3591.780
664,63689.606000,33.774,173.028,-251.058,-68.563,-314.383,-356.303,-20.500,-559.240,3620.780
665,63689.613000,9.300,188.206,-245.127,-110.796,-306.266,-350.643,30.500,-524.240,3673.780
666,63689.627000,-11.258,187.194,-244.139,-123.629,-305.189,-344.510,103.500,-461.240,3660.780
667,63689.649000,-22.027,180.111,-252.046,-162.997,-289.360,-338.910,122.500,-473.240,3564.780
668,63689.667000,-21.048,183.146,-248.093,-197.481,-280.350,-329.450,103.500,-571.240,3517.780
669,63689.684000,-36.711,202.372,-246.116,-217.199,-275.341,-323.200,-17.500,-829.240,3473.780
670,63689.709000,-85.660,208.443,-240.185,-247.829,-265.403,-310.857,-49.500,-1172.240,3372.780
671,63689.732000,-145.377,197.312,-237.220,-259.814,-261.438,-298.836,53.500,-1247.240,3108.780
672,63689.750000,-186.493,197.312,-244.139,-279.621,-246.755,-292.596,209.500,-978.240,2734.780
673,63689.769000,-223.694,205.407,-235.243,-285.519,-241.864,-293.482,388.500,-538.240,2340.780
674,63689.787000,-263.832,176.063,-222.394,-295.437,-227.264,-293.323,516.500,-218.240,1872.780
675,63689.809000,-266.769,143.684,-208.556,-299.441,-213.683,-295.237,453.500,13.760,1355.780
676,63689.837000,-276.558,131.542,-202.625,-307.339,-209.744,-293.133,382.500,-43.240,1024.780
677,63689.846000,-285.369,134.577,-207.568,-308.195,-215.535,-297.049,220.500,-296.240,282.780
678,63689.873000,-281.453,147.731,-204.602,-301.389,-216.568,-294.215,43.500,-304.240,-341.220
679,63689.898000,-283.411,149.755,-196.695,-292.502,-225.355,-294.362,-96.500,-132.240,-856.220
680,63689.916000,-251.105,141.660,-188.788,-294.423,-233.078,-292.350,-250.500,116.760,-1295.220
681,63689.938000,-203.136,143.684,-189.776,-285.501,-243.799,-293.480,-432.500,134.760,-1726.220
682,63689.958000,-170.830,143.684,-201.637,-281.541,-254.479,-290.584,-592.500,-102.240,-2166.220
683,63689.978000,-160.061,147.731,-210.533,-266.771,-277.837,-283.927,-728.500,-267.240,-2561.220
684,63689.998000,-161.040,157.850,-217.452,-241.247,-302.261,-276.474,-816.500,-167.240,-2900.220
685,63690.22000,-147.335,163.921,-221.405,-227.493,-313.997,-273.750,-832.500,-51.240,-3057.220
686,63690.31000,-121.881,168.980,-227.336,-198.886,-337.472,-275.213,-833.500,153.760,-3332.220
687,63690.54000,-95.449,177.075,-232.278,-178.248,-347.333,-275.567,-789.500,273.760,-3507.220
688,63690.72000,-73.912,179.099,-235.243,-152.658,-356.267,-279.947,-698.500,356.760,-3607.220
689,63690.93000,-63.143,172.016,-236.232,-128.099,-363.259,-282.342,-595.500,534.760,-3680.220
690,63690.116000,-47.480,165.945,-236.232,-85.788,-372.340,-291.940,-513.500,751.760,-3756.220
691,63690.143000,-14.195,157.850,-237.220,-42.527,-370.784,-305.506,-480.500,853.760,-3819.220
692,63690.158000,21.048,142.672,-239.197,-29.764,-367.993,-309.672,-487.500,672.760,-3815.220
693,63690.178000,50.417,130.530,-241.174,24.113,-369.447,-313.577,-546.500,482.760,-3769.220
694,63690.203000,51.396,121.423,-254.023,33.994,-370.498,-318.673,-591.500,52.760,-3721.220
695,63690.222000,33.774,121.423,-265.884,72.083,-361.170,-320.342,-581.500,0.760,-3603.220
696,63690.245000,50.417,114.340,-267.861,92.639,-354.582,-324.652,-473.500,346.760,-3453.220
697,63690.267000,84.681,94.103,-269.838,128.856,-339.423,-334.170,-346.500,591.760,-3294.220
698,63690.282000,107.197,71.842,-257.977,140.644,-318.234,-348.186,-248.500,708.760,-3111.220
699,63690.322000,136.566,65.771,-266.873,173.788,-303.057,-349.775,-169.500,755.760,-2965.220
700,63690.336000,179.641,56.664,-259.954,196.209,-277.133,-359.062,-97.500,837.760,-2581.220
701,63690.342000,248.168,45.534,-269.838,215.750,-264.730,-364.344,95.500,797.760,-1746.220
702,63690.356000,256.979,1.012,-252.046,228.414,-247.426,-370.495,179.500,677.760,-1299.220
703,63690.384000,256.979,-24.285,-256.000,228.406,-250.330,-368.523,189.500,297.760,-635.220
704,63690.406000,243.273,-39.462,-257.977,238.216,-247.514,-371.653,206.500,36.760,-183.220
705,63690.423000,214.883,-62.735,-240.185,230.292,-244.545,-367.579,201.500,132.760,105.780
706,63690.443000,205.094,-72.854,-226.347,230.309,-244.544,-368.563,177.500,285.760,414.780
707,63690.466000,194.325,-68.806,-223.382,222.481,-244.472,-368.425,137.500,270.760,717.780
708,63690.486000,196.283,-58.688,-215.475,226.501,-250.309,-371.443,88.500,189.760,1058.780
709,63690.503000,198.241,-47.557,-216.463,212.803,-255.992,-368.240,46.500,82.760,1368.780
710,63690.528000,195.304,-33.391,-222.394,198.214,-261.661,-369.944,40.500,170.760,1720.780
711,63690.550000,170.830,-25.296,-213.498,180.724,-269.237,-372.579,38.500,294.760,1918.780
712,63690.570000,164.956,-20.237,-210.533,175.902,-273.061,-374.458,19.500,485.760,2331.780
713,63690.590000,180.620,-7.083,-208.556,148.653,-279.578,-378.891,-69.500,333.760,2712.780
714,63690.611000,190.409,17.202,-205.591,132.118,-297.812,-374.639,-181.500,-152.240,2989.780
715,63690.633000,171.809,44.522,-207.568,87.136,-308.048,-369.894,-264.500,-614.240,3208.780
716,63690.651000,130.692,75.889,-233.266,51.993,-326.113,-364.328,-199.500,-743.240,3435.780
717,63690.678000,79.786,100.174,-254.023,27.419,-326.865,-357.002,-68.500,-487.240,3693.780
718,63690.692000,62.164,122.435,-257.977,-18.613,-329.353,-352.246,7.500,-152.240,3896.780
719,63690.710000,67.059,141.660,-254.023,-36.234,-332.097,-349.963,30.500,-98.240,4015.780
720,63690.729000,64.122,154.814,-250.069,-80.459,-322.028,-343.285,42.500,-194.240,4048.780
721,63690.757000,48.459,166.957,-255.012,-104.973,-319.873,-340.885,50.500,-391.240,4110.780
722,63690.789000,32.795,182.134,-255.012,-153.208,-308.806,-329.216,26.500,-591.240,4157.780
723,63690.809000,15.174,193.265,-256.000,-191.641,-293.956,-320.677,4.500,-747.240,4161.780
724,63690.823000,-15.174,211.478,-245.127,-206.502,-285.122,-314.518,-36.500,-862.240,4132.780
725,63690.837000,-33.774,232.727,-249.081,-248.927,-271.208,-300.986,-44.500,-1053.240,4056.780
726,63690.864000,-77.828,251.953,-249.081,-269.641,-264.256,-294.721,88.500,-1262.240,3917.780
727,63690.884000,-138.524,247.905,-244.139,-291.597,-241.822,-281.561,357.500,-1251.240,3705.780
728,63690.905000,-192.367,228.680,-225.359,-305.455,-228.156,-279.363,484.500,-1136.240,3554.780
729,63690.927000,-203.136,204.395,-222.394,-325.309,-200.893,-277.074,633.500,-705.240,3216.780
730,63690.942000,-204.115,194.277,-211.521,-341.022,-179.460,-284.697,669.500,-359.240,2798.780
731,63690.964000,-232.505,177.075,-199.660,-337.206,-170.789,-283.790,618.500,-337.240,2266.780
732,63690.987000,-272.642,144.696,-187.799,-340.187,-162.054,-285.717,504.500,-514.240,1612.780
733,63691.11000,-307.885,118.387,-193.730,-346.059,-158.129,-287.586,316.500,-550.240,847.780
734,63691.17000,-314.738,125.470,-202.625,-346.083,-162.970,-283.642,61.500,-357.240,51.780
735,63691.38000,-295.159,140.648,-193.730,-338.289,-164.979,-280.825,-142.500,-28.240,-674.220
736,63691.61000,-275.579,146.719,-183.846,-342.062,-176.550,-282.713,-344.500,69.760,-1363.220
737,63691.78000,-248.168,154.814,-184.834,-336.163,-185.313,-279.854,-445.500,169.760,-1672.220
738,63691.116000,-214.883,164.933,-188.788,-327.204,-207.647,-277.033,-628.500,302.760,-2203.220
739,63691.134000,-176.704,168.980,-195.707,-313.325,-232.927,-274.296,-779.500,359.760,-2662.220
740,63691.148000,-146.356,180.111,-199.660,-306.456,-244.603,-269.481,-903.500,255.760,-3051.220
741,63691.171000,-136.566,192.253,-205.591,-286.706,-273.808,-264.874,-991.500,128.760,-3389.220
742,63691.188000,-128.734,201.360,-209.544,-271.946,-292.327,-260.191,-1027.500,198.760,-3640.220
743,63691.211000,-106.218,218.561,-219.429,-242.360,-313.874,-262.658,-984.500,492.760,-3765.220
744,63691.233000,-77.828,226.656,-225.359,-231.464,-326.548,-263.821,-874.500,674.760,-3844.220
745,63691.251000,-53.354,217.549,-229.313,-188.172,-345.316,-268.503,-804.500,680.760,-3886.220
746,63691.274000,-46.501,204.395,-229.313,-156.563,-359.134,-278.890,-700.500,686.760,-3929.220
747,63691.296000,-46.501,199.336,-232.278,-133.951,-369.012,-280.263,-633.500,691.760,-3961.220
748,63691.308000,-30.837,199.336,-237.220,-90.699,-366.489,-293.829,-558.500,828.760,-3920.220
749,63691.342000,-13.216,182.134,-239.197,-68.046,-371.525,-300.131,-478.500,995.760,-3833.220
750,63691.345000,17.132,161.897,-238.208,-26.803,-367.050,-311.695,-440.500,973.760,-3788.220
751,63691.371000,41.606,142.672,-251.058,-9.123,-361.399,-318.905,-479.500,639.760,-3835.220
752,63691.391000,24.964,137.613,-267.861,33.046,-356.937,-327.532,-481.500,410.760,-3910.220
753,63691.416000,-2.447,142.672,-263.907,57.568,-352.317,-333.878,-331.500,881.760,-3866.220
754,63691.437000,39.648,133.565,-252.046,100.676,-326.572,-351.407,-268.500,1250.760,-3802.220
755,63691.454000,109.155,126.482,-246.116,140.733,-292.095,-366.923,-153.500,1497.760,-3676.220
756,63691.472000,162.998,110.292,-241.174,150.550,-282.503,-373.999,-70.500,1103.760,-3480.220
757,63691.494000,176.704,92.079,-246.116,178.746,-255.670,-378.467,-4.500,588.760,-3169.220
758,63691.540000,195.304,77.913,-247.104,194.373,-243.231,-383.680,80.500,619.760,-2627.220
759,63691.558000,236.421,49.581,-236.232,219.678,-219.273,-389.078,225.500,684.760,-1872.220
760,63691.561000,269.706,0.000,-218.440,227.453,-215.475,-388.236,240.500,363.760,-1245.220
761,63691.578000,264.811,-31.368,-240.185,236.207,-211.687,-387.411,152.500,-155.240,-868.220
762,63691.604000,227.610,-28.332,-255.012,245.930,-206.940,-386.604,125.500,-201.240,-655.220
763,63691.622000,234.463,-36.427,-240.185,242.967,-200.139,-388.528,136.500,105.760,-519.220
764,63691.645000,252.084,-52.617,-226.347,243.900,-193.375,-389.537,151.500,313.760,-159.220
765,63691.667000,235.442,-71.842,-207.568,249.754,-193.430,-388.656,163.500,347.760,305.780
766,63691.673000,256.979,-71.842,-207.568,242.974,-195.299,-391.487,81.500,359.760,742.780
767,63691.701000,258.937,-54.640,-208.556,233.242,-201.015,-391.309,-2.500,161.760,1058.780
768,63691.723000,235.442,-37.439,-201.637,225.486,-208.683,-391.162,-93.500,147.760,1330.780
769,63691.743000,220.757,-25.296,-206.579,216.898,-217.301,-398.876,-158.500,276.760,1606.780
770,63691.761000,215.862,-13.154,-212.510,203.156,-220.083,-394.692,-229.500,243.760,1900.780
771,63691.783000,210.967,8.095,-228.324,175.942,-228.535,-400.107,-256.500,194.760,2029.780
772,63691.806000,189.430,29.344,-241.174,170.179,-242.026,-399.005,-253.500,47.760,2312.780
773,63691.822000,159.082,41.486,-231.290,144.844,-251.468,-399.530,-227.500,-12.240,2540.780
774,63691.853000,159.082,68.806,-227.336,124.323,-256.119,-398.177,-280.500,-35.240,2705.780
775,63691.862000,137.545,92.079,-232.278,94.018,-264.553,-394.678,-302.500,-163.240,2815.780
776,63691.884000,98.386,104.221,-227.336,80.433,-271.197,-397.383,-322.500,-36.240,2954.780
777,63691.902000,84.681,122.435,-233.266,48.145,-276.711,-393.852,-342.500,81.760,3151.780
778,63691.945000,100.344,141.660,-232.278,8.989,-282.163,-389.215,-393.500,-213.240,3373.780
779,63691.958000,121.881,164.933,-231.290,-13.540,-290.671,-382.900,-430.500,-977.240,3601.780
780,63691.976000,98.386,202.372,-239.197,-59.725,-302.847,-364.348,-400.500,-1325.240,3724.780
781,63691.989000,42.585,239.810,-243.151,-75.491,-311.422,-353.230,-230.500,-1617.240,3968.780
782,63692.17000,-16.153,258.024,-260.942,-124.693,-309.057,-337.595,35.500,-1238.240,4246.780
783,63692.35000,-32.795,267.130,-265.884,-143.434,-300.185,-333.336,275.500,-646.240,4435.780
784,63692.57000,-23.006,263.083,-266.873,-180.827,-288.244,-326.782,396.500,-485.240,4536.780
785,63692.77000,-40.627,258.024,-258.965,-214.309,-266.659,-325.231,502.500,-611.240,4442.780
786,63692.100000,-76.849,240.822,-244.139,-238.973,-253.865,-319.887,532.500,-802.240,4175.780
787,63692.120000,-116.008,213.502,-250.069,-252.892,-237.299,-315.722,548.500,-750.240,3819.780
788,63692.134000,-175.725,205.407,-241.174,-268.672,-225.549,-314.472,639.500,-674.240,3172.780
789,63692.152000,-260.895,146.719,-233.266,-278.636,-202.240,-316.292,630.500,-389.240,2844.780
790,63692.177000,-255.021,112.316,-230.301,-291.366,-199.221,-317.055,474.500,-15.240,2093.780
791,63692.199000,-258.937,127.494,-219.429,-293.439,-186.627,-317.033,353.500,-115.240,1329.780
792,63692.222000,-289.285,131.542,-203.614,-295.379,-184.673,-318.970,227.500,-69.240,669.780
793,63692.247000,-273.621,156.838,-196.695,-295.336,-183.702,-321.925,87.500,28.760,79.780
794,63692.262000,-249.147,157.850,-191.753,-291.439,-183.739,-321.010,-44.500,64.760,-428.220
795,63692.279000,-232.505,151.779,-186.811,-287.454,-191.514,-321.071,-164.500,67.760,-924.220
796,63692.302000,-204.115,141.660,-188.788,-281.529,-199.307,-320.182,-281.500,151.760,-1399.220
797,63692.324000,-178.662,140.648,-198.672,-283.459,-204.128,-319.158,-351.500,193.760,-1615.220
798,63692.341000,-152.229,140.648,-216.463,-269.609,-220.698,-319.384,-477.500,175.760,-2033.220
799,63692.360000,-126.776,146.719,-231.290,-257.795,-232.415,-317.610,-580.500,101.760,-2416.220
800,63692.379000,-112.092,161.897,-246.116,-246.940,-251.866,-312.857,-655.500,28.760,-2759.220
801,63692.402000,-96.428,177.075,-262.919,-227.166,-270.423,-315.154,-631.500,119.760,-3020.220
802,63692.437000,-83.702,182.134,-278.734,-218.227,-283.078,-316.282,-504.500,320.760,-3226.220
803,63692.451000,-55.312,183.146,-287.629,-182.756,-296.935,-323.784,-304.500,597.760,-3388.220
804,63692.470000,-32.795,185.170,-280.710,-162.103,-300.988,-328.083,-86.500,779.760,-3501.220
805,63692.484000,-15.174,175.051,-271.815,-128.634,-304.183,-338.516,130.500,914.760,-3578.220
806,63692.502000,18.111,151.779,-262.919,-107.921,-307.264,-346.754,194.500,955.760,-3603.220
807,63692.527000,48.459,147.731,-266.873,-63.689,-310.557,-357.378,189.500,804.760,-3642.220
808,63692.547000,54.333,140.648,-268.849,-47.903,-309.724,-365.534,165.500,444.760,-3633.220
809,63692.564000,48.459,130.530,-264.896,-5.785,-311.072,-368.246,158.500,207.760,-3607.220
810,63692.592000,55.312,118.387,-260.942,28.479,-307.511,-371.810,153.500,248.760,-3603.220
811,63692.608000,89.576,103.209,-265.884,54.948,-301.941,-378.191,126.500,267.760,-3605.220
812,63692.631000,117.966,88.032,-261.931,87.168,-296.431,-377.783,85.500,40.760,-3595.220
813,63692.646000,114.050,83.984,-256.988,107.725,-295.650,-379.133,64.500,-143.240,-3558.220
814,63692.660000,108.176,87.020,-249.081,149.622,-276.684,-379.896,103.500,-51.240,-3434.220
815,63692.691000,142.440,73.866,-230.301,166.210,-264.255,-384.142,146.500,351.760,-3311.220
816,63692.708000,181.598,50.593,-205.591,187.557,-239.296,-387.502,228.500,564.760,-2935.220
817,63692.734000,198.241,16.190,-193.730,213.842,-221.153,-389.957,258.500,380.760,-2440.220
818,63692.752000,215.862,7.083,-207.568,224.508,-210.610,-390.158,219.500,191.760,-1982.220
819,63692.769000,234.463,-7.083,-221.405,246.006,-202.096,-393.502,184.500,90.760,-1633.220
820,63692.792000,237.400,-26.308,-220.417,251.728,-195.382,-388.689,204.500,141.760,-1237.220
821,63692.810000,257.958,-44.522,-210.533,254.661,-183.794,-394.661,221.500,399.760,-749.220
822,63692.855000,280.474,-62.735,-191.753,257.501,-180.923,-390.777,205.500,398.760,-239.220
823,63692.857000,287.327,-79.937,-193.730,261.378,-175.153,-391.837,160.500,278.760,-5.220
824,63692.876000,270.685,-83.984,-196.695,256.539,-178.977,-392.731,68.500,28.760,432.780
825,63692.898000,256.979,-75.889,-189.776,256.593,-186.717,-391.738,-20.500,-94.240,821.780
826,63692.923000,239.358,-62.735,-189.776,244.967,-201.122,-390.531,-86.500,-103.240,1193.780
827,63692.942000,224.673,-49.581,-192.741,231.329,-201.962,-393.243,-133.500,39.760,1551.780
828,63692.962000,229.568,-33.391,-189.776,220.682,-216.377,-392.053,-200.500,120.760,1905.780
829,63692.991000,224.673,-20.237,-187.799,208.049,-220.128,-394.778,-283.500,49.760,2222.780
830,63692.995000,209.989,-1.012,-193.730,183.800,-241.187,-395.309,-371.500,-81.240,2483.780
831,63693.22000,198.241,20.237,-204.602,164.275,-247.782,-393.971,-454.500,-122.240,2671.780
832,63693.64000,183.556,41.486,-217.452,130.143,-260.047,-393.353,-475.500,-138.240,2757.780
833,63693.71000,159.082,64.759,-229.313,101.891,-273.332,-392.838,-485.500,-96.240,2949.780
834,63693.90000,149.293,89.043,-233.266,77.464,-275.044,-393.388,-455.500,49.760,3183.780
835,63693.98000,143.419,114.340,-234.255,37.417,-282.418,-392.671,-408.500,143.760,3450.780
836,63693.116000,149.293,134.577,-239.197,19.822,-284.193,-392.358,-454.500,-3.240,3687.780
837,63693.137000,141.461,162.909,-253.035,-23.309,-286.709,-385.685,-486.500,-440.240,3835.780
838,63693.166000,109.155,186.182,-258.965,-50.784,-287.433,-380.276,-449.500,-831.240,3895.780
839,63693.172000,57.270,201.360,-262.919,-94.027,-290.923,-366.708,-361.500,-944.240,3893.780
840,63693.199000,10.279,213.502,-271.815,-127.582,-285.798,-352.338,-258.500,-769.240,3818.780
841,63693.222000,-22.027,206.419,-282.687,-150.166,-282.694,-348.989,-223.500,-661.240,3757.780
842,63693.244000,-40.627,204.395,-280.710,-183.723,-271.760,-337.579,-245.500,-490.240,3681.780
843,63693.262000,-68.038,237.787,-275.768,-210.266,-263.784,-334.166,-197.500,-612.240,3530.780
844,63693.284000,-132.650,244.870,-250.069,-234.082,-248.103,-322.934,-25.500,-718.240,3302.780
845,63693.313000,-165.935,218.561,-224.371,-248.866,-236.360,-322.686,68.500,-359.240,3014.780
846,63693.336000,-148.314,208.443,-224.371,-269.584,-217.793,-322.341,31.500,43.760,2770.780
847,63693.356000,-122.860,229.692,-247.104,-276.671,-199.354,-318.299,10.500,-335.240,2528.780
848,63693.376000,-178.662,225.644,-236.232,-289.496,-197.308,-313.152,75.500,-827.240,2168.780
849,63693.398000,-217.820,173.028,-226.347,-304.375,-188.475,-306.008,49.500,-916.240,1995.780
850,63693.427000,-256.979,165.945,-222.394,-308.331,-191.345,-301.997,30.500,-1053.240,1374.780
851,63693.441000,-332.359,139.636,-221.405,-310.400,-192.302,-295.068,70.500,-838.240,564.780
852,63693.458000,-337.254,118.387,-231.290,-305.438,-196.214,-297.120,26.500,-166.240,-244.220
853,63693.472000,-309.843,137.613,-227.336,-305.332,-202.015,-300.069,-10.500,319.760,-949.220
854,63693.494000,-256.000,153.802,-218.440,-290.575,-208.920,-301.306,-70.500,429.760,-1453.220
855,63693.519000,-203.136,161.897,-210.533,-283.541,-221.554,-305.354,-182.500,256.760,-1834.220
856,63693.542000,-166.914,173.028,-213.498,-273.656,-240.028,-301.569,-286.500,-67.240,-2184.220
857,63693.561000,-150.272,171.004,-219.429,-260.856,-248.850,-301.785,-393.500,-237.240,-2537.220
858,63693.578000,-148.314,168.980,-230.301,-244.085,-277.063,-295.158,-440.500,-208.240,-2697.220
859,63693.596000,-139.503,185.170,-238.208,-229.275,-285.900,-298.363,-456.500,-31.240,-3004.220
860,63693.613000,-101.323,198.324,-256.000,-200.686,-305.504,-300.815,-374.500,235.760,-3220.220
861,63693.632000,-69.996,203.383,-258.965,-191.757,-311.385,-304.904,-209.500,552.760,-3350.220
862,63693.646000,-30.837,192.253,-251.058,-155.274,-321.377,-316.366,-3.500,820.760,-3468.220
863,63693.673000,2.447,176.063,-243.151,-107.015,-325.667,-332.967,123.500,900.760,-3540.220
864,63693.701000,17.132,168.980,-228.324,-92.304,-323.863,-336.182,171.500,924.760,-3577.220
865,63693.718000,56.291,157.850,-217.452,-49.917,-326.164,-353.665,129.500,930.760,-3513.220
866,63693.741000,88.597,143.684,-222.394,-29.369,-322.479,-356.002,42.500,508.760,-3474.220
867,63693.768000,66.080,131.542,-230.301,7.918,-324.747,-361.581,2.500,193.760,-3468.220
868,63693.787000,41.606,117.375,-230.301,24.508,-323.933,-359.907,-10.500,-108.240,-3452.220
869,63693.806000,62.164,96.126,-238.208,63.620,-317.515,-362.575,-30.500,92.760,-3432.220
870,63693.828000,87.618,83.984,-239.197,86.186,-314.813,-367.900,-86.500,123.760,-3506.220
871,63693.846000,86.639,79.937,-247.104,120.334,-302.547,-369.503,-181.500,-111.240,-3632.220
872,63693.871000,73.912,88.032,-243.151,158.344,-284.512,-371.181,-207.500,78.760,-3704.220
873,63693.886000,110.134,83.984,-230.301,170.065,-271.070,-377.311,-165.500,737.760,-3647.220
874,63693.906000,205.094,68.806,-220.417,207.127,-239.474,-387.848,-125.500,1033.760,-3467.220
875,63693.926000,280.474,31.368,-217.452,212.907,-222.110,-391.909,-131.500,793.760,-3102.220
876,63693.948000,301.033,5.059,-229.313,230.316,-203.891,-390.269,-162.500,-84.240,-2779.220
877,63693.955000,272.642,1.012,-229.313,240.110,-204.948,-390.441,-141.500,-616.240,-1860.220
878,63693.987000,289.285,2.024,-246.116,245.921,-207.908,-385.618,-147.500,-692.240,-1110.220
879,63694.5000,270.685,-14.166,-258.965,249.853,-209.878,-385.685,-139.500,-669.240,-601.220
880,63694.27000,241.315,-44.522,-259.954,247.826,-207.929,-382.698,-61.500,-323.240,-198.220
881,63694.57000,239.358,-64.759,-254.023,242.934,-209.820,-381.625,12.500,88.760,244.780
882,63694.76000,246.210,-63.747,-238.208,247.846,-215.671,-379.736,14.500,107.760,654.780
883,63694.91000,233.484,-40.474,-232.278,238.123,-220.418,-380.543,-20.500,-94.240,981.780
884,63694.113000,220.757,-13.154,-236.232,227.430,-226.124,-381.332,-33.500,-104.240,1118.780
885,63694.135000,206.073,-2.024,-239.197,212.867,-234.695,-383.033,-24.500,79.760,1392.780
886,63694.155000,201.178,0.000,-232.278,198.277,-238.428,-385.724,-6.500,456.760,1717.780
887,63694.193000,215.862,11.130,-227.336,191.472,-243.203,-385.598,-52.500,619.760,2083.780
888,63694.205000,213.904,35.415,-227.336,170.164,-253.642,-392.100,-138.500,336.760,2433.780
889,63694.218000,192.367,64.759,-227.336,151.575,-259.280,-388.811,-178.500,-61.240,2712.780
890,63694.236000,156.145,94.103,-221.405,123.315,-277.406,-385.336,-179.500,-269.240,2946.780
891,63694.256000,131.671,121.423,-227.336,105.720,-279.180,-385.023,-177.500,-248.240,3191.780
892,63694.276000,105.239,150.767,-235.243,63.717,-290.408,-382.298,-156.500,-204.240,3412.780
893,63694.298000,101.323,171.004,-231.290,52.982,-299.020,-379.145,-153.500,-200.240,3507.780
894,63694.312000,87.618,186.182,-229.313,12.788,-305.435,-370.550,-158.500,-378.240,3668.780
895,63694.332000,72.933,200.348,-231.290,-30.403,-308.923,-359.937,-167.500,-631.240,3791.780
896,63694.360000,58.249,222.609,-238.208,-58.856,-313.509,-352.537,-154.500,-857.240,3900.780
897,63694.374000,31.816,236.775,-241.174,-103.059,-320.861,-337.964,-87.500,-1054.240,4047.780
898,63694.397000,16.153,252.964,-243.151,-122.734,-316.818,-333.683,-23.500,-1207.240,4154.780
899,63694.419000,-6.363,261.059,-241.174,-168.126,-314.494,-312.209,57.500,-1392.240,4187.780
900,63694.437000,-28.880,268.142,-241.174,-179.098,-310.536,-302.175,148.500,-1461.240,4164.780
901,63694.453000,-61.185,290.403,-247.104,-213.685,-299.597,-287.794,222.500,-1449.240,4147.780
902,63694.475000,-133.629,307.605,-250.069,-255.159,-278.919,-276.255,531.500,-1297.240,4099.780
903,63694.497000,-187.472,285.344,-231.290,-273.814,-268.106,-277.907,842.500,-762.240,4031.780
904,63694.522000,-195.304,250.941,-208.556,-287.753,-239.926,-278.678,917.500,-331.240,3777.780
905,63694.542000,-207.052,197.312,-192.741,-302.442,-229.146,-283.353,830.500,-572.240,3174.780
906,63694.564000,-232.505,159.874,-189.776,-311.520,-214.563,-275.333,567.500,-1133.240,2381.780
907,63694.587000,-340.191,150.767,-173.961,-316.394,-218.389,-274.258,359.500,-1225.240,1462.780
908,63694.604000,-394.034,142.672,-178.903,-328.293,-212.483,-268.148,176.500,-464.240,726.780
909,63694.627000,-382.287,159.874,-175.938,-318.448,-211.601,-272.261,74.500,153.760,-15.220
910,63694.650000,-341.170,165.945,-168.031,-321.402,-209.640,-272.211,21.500,325.760,-330.220
911,63694.697000,-284.390,168.980,-163.089,-314.481,-215.505,-273.311,-129.500,383.760,-885.220
912,63694.701000,-246.210,172.016,-165.066,-310.531,-223.282,-271.403,-335.500,283.760,-1318.220
913,63694.709000,-219.778,168.980,-174.950,-301.564,-242.711,-270.554,-543.500,190.760,-1727.220
914,63694.727000,-199.220,163.921,-187.799,-299.624,-244.666,-268.617,-731.500,131.760,-2123.220
915,63694.749000,-175.725,173.028,-207.568,-285.737,-268.977,-266.866,-874.500,55.760,-2486.220
916,63694.767000,-158.103,188.206,-238.208,-274.892,-283.589,-264.087,-915.500,-119.240,-2780.220
917,63694.790000,-157.124,197.312,-253.035,-253.351,-306.046,-253.613,-864.500,-94.240,-3020.220
918,63694.821000,-139.503,207.431,-261.931,-228.711,-325.617,-254.026,-731.500,174.760,-3217.220
919,63694.830000,-130.692,217.549,-265.884,-214.887,-339.285,-254.255,-648.500,385.760,-3314.220
920,63694.855000,-108.176,222.609,-265.884,-179.277,-353.134,-269.635,-444.500,848.760,-3484.220
921,63694.874000,-68.038,219.573,-256.000,-155.629,-354.306,-278.912,-244.500,1082.760,-3613.220
922,63694.897000,-29.859,208.443,-242.162,-111.352,-364.372,-288.544,-150.500,1005.760,-3694.220
923,63694.919000,3.426,182.134,-231.290,-91.634,-367.445,-295.781,-230.500,704.760,-3768.220
924,63694.934000,28.880,162.909,-227.336,-44.519,-370.768,-303.501,-388.500,251.760,-3843.220
925,63694.952000,17.132,166.957,-241.174,-0.425,-376.004,-305.260,-406.500,90.760,-3852.220
926,63694.966000,-12.237,174.040,-244.139,15.203,-369.373,-307.513,-279.500,526.760,-3768.220
927,63694.991000,-8.321,161.897,-228.324,59.431,-357.179,-326.030,-224.500,802.760,-3649.220
928,63695.13000,84.681,125.470,-231.290,84.834,-345.798,-330.431,-222.500,948.760,-3618.220
929,63695.36000,82.723,113.328,-229.313,125.962,-330.683,-341.020,-257.500,552.760,-3616.220
930,63695.58000,78.807,97.138,-221.405,141.581,-323.085,-343.275,-303.500,261.760,-3604.220
931,63695.78000,86.639,90.055,-226.347,176.697,-300.181,-349.829,-367.500,330.760,-3525.220
932,63695.106000,113.071,78.925,-232.278,194.263,-285.825,-355.079,-331.500,545.760,-3307.220
933,63695.123000,161.040,63.747,-225.359,212.752,-259.867,-363.312,-240.500,628.760,-3010.220
934,63695.171000,209.010,46.545,-233.266,243.910,-234.027,-368.816,-198.500,387.760,-2542.220
935,63695.171000,200.199,26.308,-234.255,245.884,-232.108,-370.822,-133.500,5.760,-1994.220
936,63695.188000,204.115,0.000,-236.232,261.425,-221.610,-370.125,-113.500,-90.240,-1713.220
937,63695.203000,223.694,-7.083,-250.069,264.246,-212.932,-368.216,-159.500,-234.240,-1269.220
938,63695.226000,204.115,-16.190,-262.919,264.228,-210.997,-368.218,-174.500,-398.240,-976.220
939,63695.248000,181.598,-31.368,-259.954,275.995,-208.198,-371.383,-109.500,-116.240,-683.220
940,63695.265000,209.010,-50.593,-252.046,276.928,-199.499,-373.379,-7.500,516.760,-294.220
941,63695.298000,247.189,-57.676,-232.278,273.021,-194.623,-376.269,34.500,688.760,141.780
942,63695.312000,258.937,-58.688,-226.347,274.026,-195.599,-377.270,-17.500,257.760,543.780
943,63695.332000,220.757,-43.510,-225.359,261.386,-204.190,-377.036,-84.500,-109.240,889.780
944,63695.352000,189.430,-30.356,-226.347,255.577,-208.972,-377.912,-70.500,163.760,1256.780
945,63695.369000,197.262,-17.202,-211.521,239.982,-209.794,-380.589,-67.500,429.760,1451.780
946,63695.401000,221.736,-6.071,-202.625,233.308,-219.401,-385.382,-117.500,654.760,1824.780
947,63695.416000,217.820,9.107,-196.695,213.852,-225.992,-387.983,-244.500,409.760,2132.780
948,63695.429000,182.577,26.308,-215.475,199.473,-243.264,-395.584,-331.500,104.760,2412.780
949,63695.447000,165.935,46.545,-223.382,166.170,-244.899,-392.039,-353.500,76.760,2656.780
950,63695.468000,173.767,73.866,-226.347,135.978,-256.230,-393.461,-378.500,58.760,2887.780
951,63695.486000,160.061,107.257,-227.336,126.318,-269.685,-393.274,-390.500,-191.240,3118.780
952,63695.511000,136.566,130.530,-237.220,87.190,-279.976,-387.648,-379.500,-385.240,3364.780
953,63695.533000,112.092,152.791,-252.046,59.847,-291.338,-384.197,-354.500,-434.240,3580.780
954,63695.553000,106.218,175.051,-260.942,19.661,-298.721,-375.602,-306.500,-469.240,3668.780
955,63695.571000,94.470,196.300,-264.896,2.041,-303.400,-372.331,-253.500,-565.240,3820.780
956,63695.593000,72.933,217.549,-262.919,-44.042,-307.827,-363.635,-143.500,-662.240,3994.780
957,63695.607000,52.375,232.727,-257.977,-91.208,-308.379,-350.987,-25.500,-673.240,4151.780
958,63695.621000,39.648,241.834,-269.838,-110.892,-303.368,-346.706,57.500,-633.240,4233.780
959,63695.653000,21.048,245.881,-280.710,-147.279,-298.210,-338.193,143.500,-669.240,4234.780
960,63695.671000,-0.489,260.047,-289.606,-169.977,-288.337,-331.896,300.500,-683.240,4199.780
961,63695.693000,-26.922,268.142,-286.641,-203.457,-272.560,-327.385,564.500,-598.240,4114.780
962,63695.713000,-55.312,249.929,-258.965,-213.348,-262.798,-326.237,655.500,-487.240,4053.780
963,63695.734000,-90.554,204.395,-246.116,-237.055,-236.463,-326.832,684.500,-268.240,3813.780
964,63695.755000,-82.723,177.075,-256.000,-259.765,-215.944,-325.470,477.500,-264.240,3500.780
965,63695.776000,-77.828,202.372,-248.093,-275.595,-210.004,-318.306,263.500,-674.240,3154.780
966,63695.807000,-135.587,224.632,-235.243,-292.414,-199.216,-313.099,232.500,-1153.240,2795.780
967,63695.823000,-209.989,220.585,-218.440,-293.488,-196.309,-309.145,341.500,-1118.240,2382.780
968,63695.847000,-258.937,203.383,-196.695,-307.346,-184.579,-305.960,412.500,-652.240,1874.780
969,63695.867000,-274.600,169.992,-203.614,-303.494,-179.778,-305.050,365.500,-297.240,1331.780
970,63695.884000,-276.558,156.838,-211.521,-308.370,-175.861,-307.921,243.500,-227.240,740.780
971,63695.902000,-279.495,161.897,-194.718,-309.410,-171.016,-306.924,165.500,-255.240,448.780
972,63695.935000,-295.159,145.708,-186.811,-310.378,-179.718,-302.959,-8.500,-356.240,-173.220
973,63695.953000,-296.138,141.660,-191.753,-306.375,-189.427,-303.019,-198.500,-252.240,-819.220
974,63695.972000,-271.663,161.897,-205.591,-301.393,-201.082,-302.109,-347.500,-62.240,-1413.220
975,63695.992000,-237.400,177.075,-211.521,-289.578,-216.671,-298.362,-456.500,31.760,-1888.220
976,63696.7000,-197.262,174.040,-219.429,-289.462,-227.311,-299.336,-546.500,11.760,-2291.220
977,63696.24000,-163.977,178.087,-226.347,-272.719,-248.750,-294.685,-605.500,-4.240,-2675.220
978,63696.46000,-136.566,187.194,-231.290,-267.781,-257.503,-292.793,-605.500,89.760,-3037.220
979,63696.67000,-116.987,193.265,-232.278,-244.083,-282.870,-292.198,-592.500,209.760,-3316.220
980,63696.85000,-99.365,200.348,-234.255,-213.486,-298.618,-299.612,-522.500,508.760,-3441.220
981,63696.107000,-70.975,203.383,-233.266,-192.720,-307.504,-307.845,-411.500,826.760,-3609.220
982,63696.134000,-24.964,199.336,-232.278,-158.254,-314.578,-317.306,-342.500,1012.760,-3680.220
983,63696.148000,12.237,205.407,-241.174,-131.634,-323.518,-324.658,-267.500,928.760,-3732.220
984,63696.176000,24.964,204.395,-238.208,-100.141,-322.825,-336.045,-145.500,849.760,-3719.220
985,63696.194000,21.048,192.253,-237.220,-80.441,-323.963,-343.283,-37.500,902.760,-3704.220
986,63696.212000,41.606,171.004,-229.313,-39.181,-321.424,-354.845,-8.500,921.760,-3674.220
987,63696.234000,76.849,146.719,-218.440,-22.409,-315.760,-365.978,-139.500,526.760,-3665.220
988,63696.267000,102.302,128.506,-236.232,14.774,-318.034,-365.648,-211.500,192.760,-3688.220
989,63696.296000,77.828,124.459,-256.000,50.934,-315.462,-365.307,-285.500,-181.240,-3725.220
990,63696.296000,47.480,118.387,-256.000,71.437,-308.876,-366.662,-265.500,78.760,-3729.220
991,63696.311000,67.059,103.209,-255.012,107.629,-292.751,-375.196,-279.500,460.760,-3767.220
992,63696.333000,115.029,103.209,-252.046,125.231,-286.137,-378.469,-278.500,491.760,-3786.220
993,63696.356000,156.145,94.103,-241.174,157.439,-266.109,-384.969,-349.500,246.760,-3726.220
994,63696.373000,173.767,86.008,-256.988,169.090,-250.734,-388.146,-329.500,189.760,-3582.220
995,63696.396000,155.166,86.008,-260.942,195.347,-225.818,-392.578,-181.500,703.760,-3243.220
996,63696.416000,306.906,62.735,-252.046,216.753,-194.080,-402.838,26.500,1009.760,-2502.220
997,63696.441000,338.233,13.154,-216.463,226.457,-181.591,-404.994,199.500,1139.760,-1919.220
998,63696.460000,315.717,-7.083,-227.336,237.202,-175.882,-407.159,306.500,449.760,-959.220
999,63696.473000,298.096,-29.344,-247.104,233.192,-171.012,-404.141,238.500,-52.240,-357.220
1000,63696.493000,261.874,-60.711,-225.359,239.115,-174.935,-405.225,217.500,-31.240,1.780
