Sample, Time, ACCX, ACCY, ACCZ, MAGX, MAGY, MAGZ, GYRX, GYRY, GYRZ
0,63740.324000,-51.396,-20.237,-239.197,47.407,-371.607,-302.173,-20.500,-26.240,-26.220
1,63740.346000,-50.417,-19.225,-238.208,45.468,-371.588,-303.124,-18.500,3.760,-29.220
2,63740.369000,-47.480,-19.225,-240.185,53.261,-371.661,-301.293,-16.500,33.760,-22.220
3,63740.390000,-45.522,-20.237,-239.197,50.386,-372.599,-304.194,-15.500,26.760,-16.220
4,63740.404000,-46.501,-19.225,-238.208,49.426,-374.525,-304.175,-16.500,-3.240,-11.220
5,63740.424000,-47.480,-20.237,-238.208,49.399,-373.559,-303.191,-23.500,-30.240,-8.220
6,63740.458000,-49.438,-20.237,-241.174,49.390,-370.655,-304.179,-28.500,-32.240,-13.220
7,63740.475000,-50.417,-21.249,-243.151,47.426,-375.478,-301.185,-30.500,-26.240,-15.220
8,63740.500000,-49.438,-20.237,-242.162,47.451,-372.572,-304.142,-26.500,-7.240,-23.220
9,63740.518000,-49.438,-19.225,-241.174,44.507,-373.514,-303.104,-22.500,12.760,-18.220
10,63740.540000,-48.459,-19.225,-239.197,51.365,-374.544,-303.225,-16.500,22.760,-16.220
11,63740.560000,-46.501,-20.237,-238.208,47.363,-368.706,-301.192,-15.500,16.760,-13.220
12,63740.566000,-44.543,-18.213,-237.220,48.491,-375.482,-306.126,-20.500,-14.240,-7.220
13,63740.588000,-48.459,-19.225,-241.174,53.288,-374.564,-301.290,-25.500,-24.240,-6.220
14,63740.605000,-49.438,-18.213,-240.185,50.343,-371.634,-302.225,-25.500,0.760,-4.220
15,63740.630000,-49.438,-18.213,-240.185,46.437,-370.630,-303.142,-23.500,10.760,-4.220
16,63740.678000,-44.543,-17.202,-238.208,47.415,-368.703,-304.146,-26.500,13.760,-8.220
17,63740.691000,-45.522,-17.202,-239.197,47.398,-368.704,-303.161,-25.500,-17.240,-0.220
18,63740.700000,-47.480,-18.213,-241.174,42.559,-374.464,-303.069,-22.500,-18.240,6.780
19,63740.718000,-48.459,-17.202,-239.197,45.450,-371.589,-302.139,-23.500,1.760,16.780
20,63740.734000,-45.522,-17.202,-239.197,49.391,-372.591,-303.192,-24.500,-8.240,16.780
21,63740.761000,-49.438,-17.202,-238.208,45.502,-371.586,-305.093,-24.500,-22.240,12.780
22,63740.784000,-51.396,-16.190,-238.208,44.524,-371.577,-305.076,-27.500,6.760,4.780
23,63740.804000,-50.417,-16.190,-238.208,42.584,-371.559,-306.026,-25.500,24.760,6.780
24,63740.824000,-48.459,-16.190,-240.185,47.434,-372.573,-303.157,-25.500,24.760,7.780
25,63740.851000,-48.459,-17.202,-240.185,43.468,-372.541,-300.134,-26.500,6.760,7.780
26,63740.864000,-48.459,-17.202,-240.185,46.394,-371.600,-300.187,-37.500,-5.240,3.780
27,63740.886000,-49.438,-16.190,-241.174,42.550,-371.561,-304.056,-39.500,-21.240,-3.220
28,63740.921000,-51.396,-16.190,-242.162,40.653,-372.507,-306.975,-37.500,-9.240,-6.220
29,63740.935000,-48.459,-14.166,-242.162,39.614,-369.598,-304.991,-28.500,11.760,-8.220
30,63740.963000,-47.480,-14.166,-242.162,48.455,-371.612,-306.130,-29.500,19.760,-13.220
31,63740.971000,-48.459,-13.154,-242.162,49.495,-374.521,-308.114,-19.500,24.760,-11.220
32,63740.989000,-48.459,-12.142,-244.139,40.601,-372.510,-304.021,-10.500,37.760,-0.220
33,63741.6000,-45.522,-12.142,-243.151,45.494,-372.555,-304.107,-8.500,42.760,1.780
34,63741.29000,-43.564,-14.166,-241.174,40.618,-370.573,-305.992,-8.500,-1.240,11.780
35,63741.46000,-46.501,-13.154,-243.151,36.669,-366.668,-305.927,-13.500,-26.240,8.780
36,63741.66000,-49.438,-12.142,-242.162,43.554,-370.600,-306.044,-6.500,-28.240,9.780
37,63741.89000,-50.417,-14.166,-243.151,47.493,-367.731,-309.071,0.500,-11.240,3.780
38,63741.110000,-50.417,-12.142,-244.139,45.581,-376.421,-307.058,8.500,10.760,2.780
39,63741.131000,-49.438,-12.142,-243.151,36.670,-370.540,-303.954,13.500,15.760,-1.220
40,63741.149000,-48.459,-13.154,-240.185,38.687,-369.586,-307.928,11.500,10.760,-10.220
41,63741.175000,-47.480,-12.142,-238.208,42.566,-369.624,-306.028,7.500,9.760,-13.220
42,63741.198000,-47.480,-12.142,-239.197,42.610,-370.589,-307.997,1.500,5.760,-16.220
43,63741.214000,-46.501,-11.130,-242.162,44.506,-367.707,-306.065,-0.500,-0.240,-8.220
44,63741.229000,-45.522,-13.154,-242.162,44.550,-372.544,-306.060,2.500,-12.240,-4.220
45,63741.246000,-48.459,-13.154,-239.197,38.609,-368.623,-303.990,3.500,-12.240,-5.220
46,63741.260000,-47.480,-13.154,-238.208,39.614,-369.598,-304.991,2.500,-4.240,-3.220
47,63741.291000,-45.522,-13.154,-239.197,45.510,-368.682,-307.066,-3.500,-15.240,-8.220
48,63741.309000,-44.543,-13.154,-240.185,42.557,-368.656,-306.029,-7.500,-22.240,-11.220
49,63741.336000,-49.438,-14.166,-239.197,45.545,-368.680,-309.035,-5.500,3.760,-8.220
50,63741.356000,-48.459,-14.166,-240.185,41.623,-371.549,-306.993,-1.500,18.760,-9.220
51,63741.376000,-43.564,-15.178,-235.243,49.434,-371.621,-306.147,-0.500,28.760,-8.220
52,63741.399000,-43.564,-16.190,-238.208,43.545,-369.633,-306.045,-13.500,0.760,-11.220
53,63741.416000,-47.480,-14.166,-240.185,40.601,-370.574,-305.008,-21.500,-40.240,-16.220
54,63741.434000,-47.480,-14.166,-242.162,43.544,-367.697,-307.032,-19.500,-21.240,-15.220
55,63741.448000,-44.543,-13.154,-241.174,47.485,-372.570,-306.112,-15.500,7.760,-12.220
56,63741.480000,-43.564,-15.178,-239.197,45.441,-368.686,-303.127,-15.500,-3.240,-11.220
57,63741.494000,-45.522,-14.166,-241.174,40.618,-368.638,-306.979,-15.500,-20.240,-9.220
58,63741.515000,-47.480,-13.154,-242.162,40.609,-369.606,-305.993,-13.500,-19.240,-6.220
59,63741.543000,-46.501,-14.166,-245.127,46.497,-367.723,-308.069,-11.500,-12.240,-3.220
60,63741.558000,-47.480,-14.166,-243.151,42.601,-369.622,-307.997,-7.500,-9.240,-4.220
61,63741.574000,-46.501,-14.166,-242.162,42.584,-371.559,-306.026,-5.500,2.760,-5.220
62,63741.614000,-45.522,-14.166,-243.151,43.537,-372.537,-304.073,1.500,-2.240,-3.220
63,63741.641000,-44.543,-13.154,-243.151,44.532,-368.673,-307.048,6.500,-12.240,0.780
64,63741.655000,-45.522,-14.166,-243.151,47.494,-371.602,-307.097,7.500,-27.240,7.780
65,63741.678000,-47.480,-16.190,-243.151,45.492,-366.747,-307.068,7.500,-35.240,8.780
66,63741.693000,-49.438,-15.178,-240.185,45.467,-369.652,-304.110,10.500,-35.240,3.780
67,63741.710000,-49.438,-15.178,-240.185,46.489,-370.627,-306.096,13.500,-27.240,4.780
68,63741.730000,-48.459,-14.166,-238.208,46.464,-373.532,-303.139,13.500,-0.240,1.780
69,63741.744000,-44.543,-15.178,-240.185,43.511,-371.570,-303.089,12.500,-8.240,2.780
70,63741.771000,-47.480,-16.190,-239.197,47.450,-370.637,-305.129,10.500,-28.240,2.780
71,63741.794000,-49.438,-15.178,-239.197,40.619,-372.509,-305.006,6.500,-12.240,4.780
72,63741.811000,-46.501,-16.190,-240.185,43.554,-370.600,-306.044,6.500,-1.240,6.780
73,63741.836000,-47.480,-14.166,-240.185,43.528,-371.569,-304.074,8.500,-15.240,0.780
74,63741.855000,-50.417,-14.166,-240.185,44.516,-374.482,-303.103,15.500,-9.240,2.780
75,63741.873000,-50.417,-14.166,-243.151,41.580,-372.519,-304.038,26.500,13.760,12.780
76,63741.895000,-48.459,-14.166,-241.174,50.369,-370.664,-304.196,30.500,22.760,17.780
77,63741.919000,-47.480,-16.190,-240.185,44.576,-371.574,-308.030,35.500,22.760,21.780
78,63741.947000,-47.480,-17.202,-242.162,48.420,-371.614,-304.160,36.500,17.760,22.780
79,63741.962000,160.061,164.933,-266.873,40.671,-372.506,-307.960,-1191.500,473.760,192.780
80,63741.969000,16.153,-111.304,-189.776,19.903,-393.626,-283.941,-1092.500,-1971.240,203.780
81,63742.5000,-216.841,-9.107,-250.069,31.345,-404.396,-261.488,-299.500,-1567.240,-240.220
82,63742.24000,-130.692,39.462,-254.023,25.465,-405.311,-260.399,73.500,5.760,20.780
83,63742.38000,-105.239,-20.237,-256.000,30.452,-400.511,-268.368,165.500,536.760,9.780
84,63742.55000,-129.713,1.012,-263.907,29.593,-396.624,-277.218,163.500,862.760,-96.220
85,63742.77000,-96.428,18.213,-264.896,34.697,-376.330,-299.974,286.500,1586.760,-75.220
86,63742.104000,-3.426,-12.142,-253.035,31.837,-365.652,-309.781,256.500,1715.760,-34.220
87,63742.121000,23.985,-17.202,-261.931,30.959,-355.959,-320.605,139.500,807.760,-34.220
88,63742.146000,-10.279,-6.071,-269.838,38.796,-355.062,-321.730,123.500,129.760,34.780
89,63742.171000,-23.006,-8.095,-259.954,40.823,-360.883,-322.743,157.500,-101.240,98.780
90,63742.189000,-35.732,-8.095,-246.116,43.699,-361.881,-318.855,161.500,-167.240,107.780
91,63742.204000,-49.438,-10.119,-238.208,34.858,-361.803,-316.730,156.500,-85.240,89.780
92,63742.226000,-53.354,-16.190,-237.220,39.715,-359.913,-315.833,145.500,87.760,67.780
93,63742.239000,-41.606,-18.213,-232.278,40.745,-357.983,-319.792,138.500,124.760,58.780
94,63742.261000,-30.837,-22.261,-230.301,39.767,-359.910,-318.788,98.500,0.760,30.780
95,63742.289000,-38.669,-21.249,-226.347,43.655,-358.980,-317.873,49.500,-141.240,-7.220
96,63742.309000,-49.438,-19.225,-226.347,43.655,-360.915,-316.886,22.500,-119.240,-35.220
97,63742.330000,-49.438,-19.225,-229.313,40.738,-364.759,-315.846,5.500,19.760,-39.220
98,63742.346000,-38.669,-18.213,-230.301,39.706,-358.946,-315.834,-14.500,94.760,-35.220
99,63742.364000,-29.859,-18.213,-233.266,41.672,-361.867,-314.881,-33.500,1.760,-19.220
100,63742.386000,-29.859,-16.190,-234.255,45.586,-361.902,-314.951,-48.500,-123.240,-3.220
101,63742.419000,247.189,446.229,-54.363,27.003,-360.765,-315.608,-131.500,-1506.240,718.780
102,63742.438000,73.912,-118.387,-167.042,23.040,-368.475,-308.637,-847.500,-1530.240,503.780
103,63742.456000,-191.388,-36.427,-241.174,25.850,-386.899,-291.930,-171.500,-1573.240,-388.220
104,63742.465000,-164.956,52.617,-287.629,32.758,-378.247,-299.938,276.500,299.760,-25.220
105,63742.490000,-66.080,1.012,-275.768,29.803,-372.414,-301.861,485.500,914.760,112.780
106,63742.513000,-41.606,-63.747,-263.907,27.003,-360.765,-315.608,48.500,846.760,-51.220
107,63742.533000,-50.417,19.225,-255.012,32.008,-359.835,-322.588,5.500,852.760,-210.220
108,63742.553000,-13.216,23.273,-263.907,35.947,-355.030,-326.601,56.500,430.760,-53.220
109,63742.579000,6.363,-25.296,-267.861,32.994,-355.004,-325.565,12.500,-138.240,-60.220
110,63742.585000,-27.901,-4.047,-269.838,39.792,-355.069,-322.732,30.500,-254.240,-1.220
111,63742.611000,-50.417,0.000,-266.873,36.883,-359.881,-321.690,117.500,-104.240,25.780
112,63742.634000,-34.753,-7.083,-253.035,33.956,-356.950,-323.611,147.500,6.760,40.780
113,63742.649000,-30.837,-13.154,-242.162,34.864,-355.027,-320.676,142.500,16.760,33.780
114,63742.666000,-30.837,-14.166,-235.243,39.809,-357.004,-322.730,123.500,10.760,32.780
115,63742.694000,-26.922,-17.202,-229.313,40.788,-357.013,-322.747,95.500,-37.240,22.780
116,63742.716000,-28.880,-18.213,-227.336,37.843,-354.083,-323.683,57.500,-89.240,16.780
117,63742.731000,-31.816,-21.249,-228.324,44.676,-356.082,-321.832,25.500,-81.240,0.780
118,63742.758000,-36.711,-17.202,-230.301,49.595,-359.029,-321.916,12.500,-22.240,-3.220
119,63742.778000,-39.648,-16.190,-233.266,40.754,-358.951,-319.791,4.500,0.760,-5.220
120,63742.803000,-35.732,-18.213,-235.243,41.732,-357.024,-320.795,-8.500,43.760,-0.220
121,63742.818000,220.757,516.047,371.645,44.702,-358.985,-321.829,-18.500,38.760,5.780
122,63742.855000,102.302,-162.909,-131.459,18.377,-355.835,-328.259,-675.500,-455.240,701.780
123,63742.869000,-237.400,-81.960,-283.676,14.336,-366.454,-315.377,-331.500,-1777.240,-284.220
124,63742.883000,-160.061,88.032,-327.166,30.935,-360.800,-316.661,515.500,139.760,-342.220
125,63742.896000,51.396,-1.012,-275.768,33.885,-353.082,-321.645,811.500,1434.760,227.780
126,63742.910000,40.627,-11.130,-236.232,34.048,-344.362,-335.440,6.500,664.760,35.780
127,63742.941000,-41.606,-1.012,-262.919,36.005,-346.315,-334.488,-114.500,-183.240,-102.220
128,63742.961000,-40.627,-2.024,-277.745,29.085,-342.386,-332.402,-65.500,-141.240,-109.220
129,63742.980000,-11.258,-11.130,-274.780,38.880,-345.378,-331.587,45.500,-0.240,-40.220
130,63743.3000,-29.859,-5.059,-274.780,37.953,-345.366,-334.524,69.500,-177.240,4.780
131,63743.25000,-42.585,-3.036,-273.792,34.958,-348.246,-329.545,113.500,-142.240,48.780
132,63743.41000,-19.090,-14.166,-265.884,32.058,-350.153,-330.476,164.500,26.760,51.780
133,63743.59000,-19.090,-18.213,-258.965,36.924,-349.232,-329.579,139.500,-64.240,14.780
134,63743.88000,-33.774,-15.178,-262.919,38.924,-350.215,-331.582,121.500,-169.240,-11.220
135,63743.105000,-35.732,-14.166,-266.873,35.937,-350.191,-328.576,162.500,-152.240,-12.220
136,63743.130000,-36.711,-15.178,-263.907,43.713,-350.265,-325.760,193.500,-113.240,3.780
137,63743.154000,-28.880,-14.166,-259.954,46.649,-352.228,-324.825,246.500,-32.240,14.780
138,63743.168000,-33.774,-15.178,-259.954,48.659,-356.114,-325.841,273.500,-22.240,25.780
139,63743.190000,-32.795,-18.213,-260.942,48.588,-350.311,-324.862,307.500,16.760,50.780
140,63743.208000,-28.880,-17.202,-259.954,50.624,-353.228,-327.848,348.500,19.760,76.780
141,63743.228000,-32.795,-21.249,-272.803,54.529,-354.232,-326.931,399.500,-34.240,98.780
142,63743.270000,-50.417,-22.261,-288.618,61.353,-357.199,-324.095,501.500,-27.240,129.780
143,63743.284000,-59.228,-25.296,-302.456,71.121,-355.353,-324.270,644.500,147.760,122.780
144,63743.306000,-49.438,-26.308,-303.444,68.167,-353.392,-324.220,783.500,346.760,110.780
145,63743.320000,-29.859,-33.391,-296.525,76.895,-348.637,-322.411,823.500,365.760,102.780
146,63743.340000,-15.174,-35.415,-288.618,80.895,-348.667,-327.404,874.500,235.760,79.780
147,63743.349000,-12.237,-31.368,-275.768,87.659,-350.670,-321.615,934.500,30.760,122.780
148,63743.371000,-27.901,-28.332,-258.965,98.492,-354.636,-323.771,1059.500,-104.240,194.780
149,63743.389000,-44.543,-28.332,-233.266,110.156,-355.715,-319.054,1222.500,-2.240,319.780
150,63743.416000,-44.543,-42.498,-193.730,122.816,-352.930,-317.312,1301.500,245.760,398.780
151,63743.436000,-14.195,-55.652,-165.066,121.845,-351.953,-318.280,1280.500,315.760,445.780
152,63743.456000,8.321,-64.759,-135.413,133.572,-357.868,-314.543,1139.500,25.760,474.780
153,63743.481000,6.363,-73.866,-95.876,135.433,-356.923,-309.655,921.500,-251.240,501.780
154,63743.499000,-23.985,-84.996,-34.595,140.240,-360.844,-302.844,774.500,-282.240,484.780
155,63743.522000,-43.564,-90.055,18.780,133.383,-365.622,-299.764,409.500,-98.240,460.780
156,63743.541000,-23.985,-88.032,38.548,124.662,-361.665,-306.505,-60.500,303.760,418.780
157,63743.561000,0.489,-84.996,37.560,122.739,-357.774,-310.414,-558.500,443.760,390.780
158,63743.568000,5.384,-75.889,27.676,109.152,-354.740,-318.052,-988.500,296.760,314.780
159,63743.599000,-16.153,-58.688,21.745,87.754,-351.633,-326.538,-1327.500,393.760,246.780
160,63743.618000,-14.195,-35.415,16.803,78.062,-342.828,-336.221,-1654.500,875.760,160.780
161,63743.640000,12.237,-10.119,-20.757,51.812,-327.091,-353.495,-1995.500,1236.760,55.780
162,63743.658000,27.901,4.047,-66.224,36.161,-314.366,-360.124,-2324.500,1349.760,-76.220
163,63743.680000,46.501,16.190,-89.946,2.038,-291.786,-378.252,-2508.500,1420.760,-157.220
164,63743.703000,54.333,51.605,-110.703,-16.564,-280.970,-382.857,-2870.500,1402.760,-363.220
165,63743.725000,43.564,93.091,-157.158,-49.917,-258.411,-389.185,-3075.500,1417.760,-563.220
166,63743.734000,48.459,104.221,-219.429,-91.026,-241.583,-396.353,-3209.500,1520.760,-624.220
167,63743.776000,69.996,130.530,-279.722,-104.866,-229.852,-394.153,-3223.500,1464.760,-794.220
168,63743.798000,64.122,201.360,-291.583,-150.133,-209.131,-389.438,-3042.500,1576.760,-839.220
169,63743.819000,63.143,220.585,-303.444,-170.806,-197.336,-388.102,-2947.500,1590.760,-771.220
170,63743.836000,133.629,213.502,-358.795,-201.445,-184.495,-376.746,-2839.500,936.760,-778.220
171,63743.851000,128.734,237.787,-408.216,-214.251,-188.256,-369.624,-2725.500,530.760,-757.220
172,63743.868000,68.038,236.775,-473.452,-241.025,-185.132,-350.449,-2364.500,153.760,-614.220
173,63743.888000,64.122,239.810,-480.371,-244.073,-186.079,-343.503,-1787.500,312.760,-448.220
174,63743.908000,84.681,251.953,-480.371,-263.799,-183.974,-335.281,-1090.500,162.760,-306.220
175,63743.929000,108.176,260.047,-480.371,-267.720,-190.714,-331.266,-341.500,-231.240,-132.220
176,63743.950000,84.681,265.107,-480.371,-262.784,-191.724,-333.321,404.500,-448.240,15.780
177,63743.969000,74.891,260.047,-480.371,-250.947,-192.794,-338.451,1082.500,-415.240,75.780
178,63743.989000,70.975,256.000,-480.371,-238.017,-198.705,-347.533,1674.500,-335.240,116.780
179,63744.10000,81.744,246.893,-480.371,-213.225,-204.716,-363.716,2115.500,-377.240,165.780
180,63744.40000,97.407,249.929,-457.637,-200.461,-205.797,-365.909,2301.500,-488.240,189.780
181,63744.57000,100.344,253.976,-412.170,-168.792,-216.709,-381.224,2622.500,-683.240,255.780
182,63744.76000,101.323,249.929,-362.749,-123.511,-225.814,-392.843,2875.500,-820.240,343.780
183,63744.99000,94.470,240.822,-323.212,-108.692,-237.554,-395.061,3063.500,-918.240,393.780
184,63744.121000,78.807,210.466,-247.104,-64.518,-249.562,-397.797,3184.500,-922.240,420.780
185,63744.125000,89.576,192.253,-204.602,-47.786,-260.354,-398.080,3268.500,-960.240,484.780
186,63744.148000,87.618,172.016,-166.054,-6.668,-278.149,-390.911,3273.500,-1217.240,588.780
187,63744.178000,59.228,147.731,-130.471,15.788,-288.036,-383.422,3250.500,-1495.240,675.780
188,63744.195000,33.774,113.328,-107.737,46.015,-312.515,-365.223,3169.500,-1502.240,717.780
189,63744.213000,19.090,90.055,-91.923,67.340,-334.016,-342.933,3125.500,-1377.240,715.780
190,63744.235000,4.405,72.854,-59.305,100.515,-343.035,-333.665,3082.500,-1078.240,728.780
191,63744.258000,-13.216,31.368,-17.792,126.721,-353.934,-316.395,3029.500,-646.240,788.780
192,63744.276000,-28.880,-32.379,25.699,133.477,-358.841,-308.633,2809.500,-183.240,824.780
193,63744.303000,-8.321,-87.020,28.664,149.939,-364.810,-296.120,2310.500,-84.240,748.780
194,63744.320000,-7.342,-113.328,28.664,163.536,-368.812,-288.480,1778.500,-392.240,539.780
195,63744.338000,-51.396,-132.553,59.305,172.154,-376.646,-273.857,1329.500,-640.240,351.780
196,63744.360000,-89.576,-147.731,77.097,173.090,-381.496,-268.945,811.500,-483.240,183.780
197,63744.383000,-69.996,-149.755,77.097,174.001,-389.252,-261.077,565.500,-287.240,107.780
198,63744.405000,-36.711,-145.708,68.201,175.958,-387.334,-262.098,127.500,26.760,106.780
199,63744.428000,-49.438,-143.684,52.386,174.054,-391.185,-263.044,-280.500,-133.240,5.780
200,63744.449000,-63.143,-133.565,38.548,169.107,-383.401,-263.950,-648.500,-50.240,-104.220
201,63744.469000,-47.480,-128.506,25.699,165.332,-383.357,-271.759,-1010.500,342.760,-199.220
202,63744.491000,-8.321,-119.399,1.977,156.776,-380.359,-287.363,-1416.500,453.760,-282.220
203,63744.510000,7.342,-91.067,-26.687,144.070,-372.499,-292.069,-1784.500,179.760,-367.220
204,63744.529000,-17.132,-64.759,-47.444,127.582,-369.436,-301.626,-2035.500,22.760,-407.220
205,63744.550000,-33.774,-41.486,-71.166,108.149,-361.507,-313.105,-2205.500,367.760,-388.220
206,63744.563000,-5.384,-23.273,-99.830,104.355,-355.658,-322.889,-2287.500,613.760,-370.220
207,63744.590000,26.922,1.012,-123.552,73.212,-339.877,-340.076,-2454.500,860.760,-365.220
208,63744.608000,16.153,33.391,-143.320,56.663,-335.849,-346.680,-2539.500,794.760,-372.220
209,63744.630000,5.384,54.640,-151.228,31.391,-318.186,-364.958,-2541.500,1083.760,-316.220
210,63744.649000,31.816,69.818,-174.950,7.921,-304.421,-372.434,-2637.500,1523.760,-284.220
211,63744.665000,68.038,95.115,-191.753,-23.397,-278.971,-384.708,-2697.500,1534.760,-322.220
212,63744.688000,72.933,121.423,-196.695,-40.977,-273.002,-389.326,-2749.500,1281.760,-350.220
213,63744.708000,69.017,135.589,-204.602,-76.355,-250.428,-391.680,-2857.500,1089.760,-305.220
214,63744.730000,72.933,134.577,-277.745,-110.761,-238.511,-388.132,-2934.500,718.760,-375.220
215,63744.753000,63.143,164.933,-314.317,-135.302,-237.325,-383.761,-2881.500,576.760,-434.220
216,63744.770000,15.174,192.253,-326.178,-165.907,-220.610,-376.348,-2672.500,789.760,-449.220
217,63744.826000,62.164,194.277,-384.494,-177.710,-217.603,-374.174,-2453.500,1191.760,-406.220
218,63744.829000,114.050,223.621,-417.112,-204.402,-202.860,-365.843,-2170.500,971.760,-352.220
219,63744.841000,80.765,222.609,-468.510,-216.265,-202.760,-358.742,-1843.500,534.760,-235.220
220,63744.859000,82.723,200.348,-480.371,-236.044,-194.850,-350.526,-1424.500,435.760,-205.220
221,63744.873000,87.618,200.348,-480.371,-245.924,-195.735,-344.443,-888.500,116.760,-250.220
222,63744.886000,84.681,213.502,-480.371,-247.924,-196.687,-341.453,-241.500,-219.240,-160.220
223,63744.912000,73.912,226.656,-480.371,-238.095,-199.677,-342.608,484.500,-343.240,5.780
224,63744.939000,65.101,228.680,-480.371,-233.001,-210.357,-348.593,823.500,-532.240,91.780
225,63744.954000,58.249,226.656,-480.371,-217.205,-216.299,-353.787,1414.500,-623.240,186.780
226,63744.971000,62.164,220.585,-480.371,-212.252,-217.308,-356.827,1892.500,-709.240,213.780
227,63744.994000,68.038,213.502,-454.672,-178.712,-228.242,-367.252,2216.500,-919.240,198.780
228,63745.16000,58.249,209.455,-419.089,-149.085,-244.948,-374.648,2489.500,-1097.240,91.780
229,63745.39000,45.522,218.561,-365.714,-126.482,-253.859,-376.022,2758.500,-1028.240,39.780
230,63745.56000,52.375,207.431,-315.305,-83.199,-271.660,-380.705,2933.500,-945.240,88.780
231,63745.84000,66.080,188.206,-272.803,-70.442,-281.452,-377.966,2992.500,-1104.240,116.780
232,63745.106000,61.185,167.968,-246.116,-29.306,-299.246,-371.782,2990.500,-1227.240,107.780
233,63745.136000,40.627,148.743,-224.371,-9.786,-307.170,-365.227,2975.500,-1325.240,84.780
234,63745.144000,30.837,131.542,-194.718,35.161,-328.877,-351.230,2992.500,-1198.240,46.780
235,63745.166000,19.090,125.470,-141.344,50.801,-334.827,-347.561,3023.500,-793.240,70.780
236,63745.186000,23.006,88.032,-99.830,86.852,-344.844,-334.405,2927.500,-370.240,205.780
237,63745.209000,40.627,41.486,-78.085,120.910,-350.974,-321.218,2693.500,-388.240,340.780
238,63745.213000,56.291,1.012,-57.328,127.727,-360.717,-314.436,2437.500,-765.240,390.780
239,63745.260000,28.880,-18.213,-30.641,149.968,-373.519,-293.157,2234.500,-880.240,394.780
240,63745.289000,-25.943,-37.439,-3.954,160.594,-377.497,-283.496,2049.500,-378.240,401.780
241,63745.293000,-53.354,-68.806,27.676,174.146,-378.597,-274.874,1912.500,-55.240,401.780
242,63745.314000,-50.417,-112.316,52.386,172.172,-380.516,-272.868,1495.500,322.760,339.780
243,63745.339000,-31.816,-149.755,64.247,188.754,-380.670,-270.208,934.500,209.760,155.780
244,63745.350000,-22.027,-168.980,58.317,187.750,-381.631,-268.220,369.500,-84.240,-5.220
245,63745.370000,-27.901,-166.957,56.340,183.819,-381.596,-267.166,-89.500,-329.240,-101.220
246,63745.393000,-40.627,-153.802,56.340,179.810,-384.470,-260.201,-445.500,-358.240,-143.220
247,63745.410000,-50.417,-130.530,48.432,185.760,-385.487,-264.242,-718.500,-24.240,-179.220
248,63745.431000,-52.375,-111.304,44.479,174.154,-377.629,-275.860,-990.500,489.760,-209.220
249,63745.455000,-22.027,-99.162,43.490,169.416,-373.704,-286.610,-1341.500,685.760,-210.220
250,63745.478000,3.426,-89.043,15.815,153.964,-358.064,-306.044,-1552.500,859.760,-208.220
251,63745.500000,22.027,-65.771,-4.942,150.197,-357.052,-314.838,-1964.500,803.760,-190.220
252,63745.515000,31.816,-24.285,-24.710,117.132,-343.187,-332.974,-2288.500,585.760,-216.220
253,63745.538000,6.363,9.107,-62.270,86.944,-334.192,-345.248,-2534.500,386.760,-227.220
254,63745.555000,5.384,44.522,-102.795,79.193,-329.277,-352.008,-2668.500,599.760,-273.220
255,63745.573000,18.111,81.960,-123.552,41.122,-310.535,-366.123,-2760.500,1139.760,-319.220
256,63745.599000,21.048,108.269,-155.181,22.580,-298.748,-374.669,-2851.500,1545.760,-355.220
257,63745.621000,55.312,126.482,-178.903,-18.447,-268.365,-393.668,-2940.500,1834.760,-401.220
258,63745.639000,105.239,154.814,-197.683,-34.062,-257.574,-401.280,-2996.500,1830.760,-476.220
259,63745.661000,106.218,190.229,-238.208,-75.268,-237.848,-404.512,-3135.500,1373.760,-518.220
260,63745.679000,79.786,213.502,-290.595,-118.567,-221.984,-397.857,-3177.500,806.760,-570.220
261,63745.711000,75.870,231.715,-300.479,-136.337,-217.961,-390.657,-3072.500,692.760,-548.220
262,63745.740000,88.597,253.976,-345.946,-175.730,-206.973,-381.112,-2945.500,819.760,-461.220
263,63745.749000,77.828,250.941,-398.332,-190.564,-202.976,-373.963,-2729.500,734.760,-443.220
264,63745.764000,69.996,234.751,-432.927,-220.145,-196.915,-363.603,-2417.500,744.760,-392.220
265,63745.785000,87.618,238.798,-480.371,-235.093,-190.021,-351.533,-2072.500,744.760,-393.220
266,63745.806000,101.323,235.763,-480.371,-253.815,-186.956,-345.298,-1647.500,440.760,-408.220
267,63745.824000,94.470,250.941,-480.371,-258.889,-185.954,-335.365,-1378.500,269.760,-400.220
268,63745.841000,79.786,260.047,-480.371,-263.869,-182.042,-332.328,-696.500,11.760,-258.220
269,63745.864000,66.080,252.964,-480.371,-263.790,-184.942,-335.280,49.500,-3.240,-49.220
270,63745.878000,71.954,239.810,-480.371,-251.979,-186.980,-338.440,755.500,-12.240,56.780
271,63745.900000,79.786,244.870,-480.371,-238.045,-189.995,-350.496,1373.500,-44.240,95.780
272,63745.923000,96.428,238.798,-480.371,-229.145,-187.167,-357.548,1860.500,-175.240,135.780
273,63745.945000,112.092,241.834,-454.672,-206.335,-192.194,-372.713,2229.500,-350.240,174.780
274,63745.968000,116.008,236.775,-404.263,-181.690,-197.245,-381.018,2527.500,-569.240,211.780
275,63745.990000,116.008,232.727,-350.888,-150.982,-208.147,-397.300,2748.500,-745.240,265.780
276,63746.8000,116.987,221.597,-306.409,-117.590,-216.186,-400.835,2833.500,-811.240,290.780
277,63746.25000,110.134,208.443,-261.931,-93.948,-228.005,-404.193,2973.500,-917.240,356.780
278,63746.49000,95.449,188.206,-219.429,-53.670,-245.783,-404.885,3068.500,-994.240,435.780
279,63746.70000,86.639,169.992,-170.008,-33.068,-251.774,-405.242,3124.500,-968.240,531.780
280,63746.108000,83.702,133.565,-135.413,7.045,-264.722,-399.045,3025.500,-1011.240,636.780
281,63746.126000,68.038,101.186,-126.517,22.713,-277.447,-393.401,2811.500,-1214.240,607.780
282,63746.143000,39.648,77.913,-118.610,61.755,-302.974,-375.357,2663.500,-1269.240,539.780
283,63746.160000,21.048,47.557,-100.819,89.962,-316.792,-359.104,2539.500,-1158.240,505.780
284,63746.183000,2.447,22.261,-96.865,98.649,-324.622,-348.420,2491.500,-1090.240,495.780
285,63746.189000,-29.859,11.130,-77.097,134.745,-341.412,-334.272,2477.500,-729.240,465.780
286,63746.211000,-31.816,-17.202,-40.525,139.498,-339.528,-327.467,2403.500,-156.240,472.780
287,63746.234000,-9.300,-54.640,-14.826,156.999,-340.663,-320.884,2163.500,118.760,486.780
288,63746.256000,-5.384,-89.043,3.954,166.690,-345.596,-313.174,1760.500,43.760,400.780
289,63746.279000,-6.363,-121.423,7.907,179.307,-345.718,-307.491,1292.500,-212.240,332.780
290,63746.304000,-13.216,-128.506,20.757,184.202,-357.377,-301.657,850.500,-413.240,241.780
291,63746.319000,-30.837,-128.506,39.537,184.090,-360.287,-293.776,423.500,-420.240,157.780
292,63746.342000,-36.711,-123.447,49.421,188.931,-360.334,-290.908,41.500,-181.240,96.780
293,63746.357000,-42.585,-116.364,56.340,184.038,-360.290,-290.822,-134.500,-1.240,85.780
294,63746.376000,-38.669,-129.518,51.398,177.291,-354.414,-299.569,-544.500,325.760,89.780
295,63746.399000,-24.964,-130.530,35.583,172.503,-354.364,-305.391,-978.500,439.760,39.780
296,63746.421000,-17.132,-115.352,27.676,148.194,-346.390,-317.769,-1364.500,397.760,1.780
297,63746.444000,-8.321,-95.115,18.780,145.317,-339.584,-324.617,-1730.500,368.760,-78.220
298,63746.474000,4.405,-70.830,0.988,121.115,-339.347,-338.956,-2082.500,281.760,-168.220
299,63746.501000,2.447,-46.545,-34.595,95.723,-329.434,-346.394,-2384.500,243.760,-256.220
300,63746.515000,-3.426,-14.166,-79.073,77.253,-329.258,-352.958,-2594.500,465.760,-361.220
301,63746.548000,-0.489,21.249,-125.529,48.968,-312.541,-366.260,-2677.500,838.760,-437.220
302,63746.548000,9.300,49.581,-172.973,39.241,-303.737,-373.974,-2668.500,1035.760,-458.220
303,63746.570000,13.216,68.806,-215.475,1.168,-277.252,-392.036,-2612.500,1402.760,-501.220
304,63746.588000,37.690,98.150,-219.429,-11.589,-267.459,-394.775,-2569.500,1749.760,-537.220
305,63746.603000,84.681,128.506,-217.452,-48.761,-240.019,-408.916,-2631.500,1742.760,-583.220
306,63746.617000,136.566,163.921,-211.521,-84.164,-224.223,-406.339,-2789.500,1221.760,-483.220
307,63746.640000,133.629,158.862,-259.954,-109.692,-220.125,-402.939,-2869.500,400.760,-413.220
308,63746.663000,81.744,153.802,-280.710,-137.307,-216.984,-391.625,-2792.500,324.760,-371.220
309,63746.685000,72.933,176.063,-277.745,-161.883,-211.928,-387.258,-2729.500,342.760,-358.220
310,63746.708000,70.975,183.146,-342.981,-191.551,-203.936,-372.960,-2652.500,268.760,-436.220
311,63746.716000,50.417,202.372,-378.564,-204.375,-205.762,-365.840,-2379.500,394.760,-416.220
312,63746.749000,39.648,223.621,-406.239,-228.146,-198.789,-352.630,-2038.500,647.760,-345.220
313,63746.769000,64.122,219.573,-461.591,-239.976,-192.880,-350.459,-1658.500,571.760,-253.220
314,63746.801000,99.365,211.478,-480.371,-253.882,-192.767,-338.399,-1225.500,51.760,-192.220
315,63746.810000,93.491,217.549,-480.371,-261.812,-200.445,-328.405,-667.500,-538.240,-146.220
316,63746.833000,3.426,251.953,-480.371,-257.888,-205.319,-326.500,73.500,-539.240,-72.220
317,63746.865000,18.111,243.858,-480.371,-245.981,-208.321,-334.583,847.500,-108.240,50.780
318,63746.869000,61.185,229.692,-480.371,-244.934,-206.390,-339.526,1486.500,-3.240,185.780
319,63746.896000,77.828,228.680,-480.371,-221.224,-210.462,-350.770,1742.500,-140.240,245.780
320,63746.916000,72.933,222.609,-443.799,-208.314,-210.567,-361.827,2175.500,-513.240,307.780
321,63746.936000,67.059,213.502,-410.193,-175.691,-224.393,-374.202,2490.500,-779.240,284.780
322,63746.961000,64.122,206.419,-367.691,-138.298,-234.398,-381.743,2738.500,-785.240,204.780
323,63746.976000,69.017,195.289,-326.178,-116.606,-239.424,-389.012,2931.500,-684.240,150.780
324,63746.994000,82.723,189.217,-279.722,-74.398,-250.446,-391.714,3074.500,-542.240,168.780
325,63747.16000,97.407,181.123,-229.313,-55.676,-255.447,-396.962,3162.500,-524.240,239.780
326,63747.43000,90.554,158.862,-188.788,-13.521,-262.601,-398.684,3214.500,-567.240,387.780
327,63747.56000,87.618,131.542,-149.251,8.950,-266.679,-395.139,3236.500,-526.240,569.780
328,63747.74000,85.660,107.257,-106.749,49.107,-280.592,-390.911,3224.500,-515.240,672.780
329,63747.96000,77.828,78.925,-64.247,60.765,-292.318,-380.274,3153.500,-572.240,840.780
330,63747.121000,50.417,38.451,-34.595,92.988,-300.359,-372.960,2981.500,-611.240,952.780
331,63747.144000,14.195,-6.071,-10.873,122.155,-310.316,-357.713,2701.500,-483.240,993.780
332,63747.176000,-4.405,-53.628,8.896,127.958,-316.180,-350.917,2311.500,-350.240,955.780
333,63747.195000,-26.922,-98.150,34.595,143.513,-327.943,-339.365,1841.500,-421.240,736.780
334,63747.209000,-52.375,-130.530,48.432,152.261,-334.802,-332.621,1312.500,-554.240,383.780
335,63747.226000,-54.333,-133.565,47.444,164.809,-338.799,-321.025,815.500,-327.240,73.780
336,63747.249000,-55.312,-119.399,53.375,162.878,-337.812,-322.961,413.500,-127.240,-96.220
337,63747.271000,-52.375,-125.470,60.293,169.736,-338.841,-323.081,220.500,253.760,-137.220
338,63747.286000,-26.922,-136.601,57.328,164.860,-332.989,-326.939,-222.500,351.760,-187.220
339,63747.303000,-8.321,-119.399,65.236,166.885,-329.131,-332.886,-677.500,123.760,-221.220
340,63747.328000,-12.237,-99.162,68.201,157.126,-328.073,-334.684,-1114.500,-184.240,-242.220
341,63747.348000,-12.237,-78.925,54.363,149.411,-330.899,-339.466,-1544.500,-200.240,-266.220
342,63747.365000,-5.384,-53.628,28.664,121.155,-328.698,-346.844,-1953.500,-40.240,-322.220
343,63747.388000,-8.321,-33.391,-2.965,108.433,-320.839,-350.566,-2322.500,170.760,-352.220
344,63747.410000,-12.237,-7.083,-38.548,78.271,-314.746,-362.838,-2572.500,498.760,-384.220
345,63747.428000,-7.342,36.427,-55.351,57.919,-301.966,-380.213,-2636.500,743.760,-403.220
346,63747.448000,25.943,65.771,-81.050,38.345,-288.237,-386.774,-2740.500,1289.760,-430.220
347,63747.473000,70.975,73.866,-141.344,1.174,-266.605,-397.955,-2898.500,1269.760,-448.220
348,63747.490000,72.933,110.292,-196.695,-28.243,-257.630,-398.429,-3032.500,915.760,-523.220
349,63747.513000,48.459,147.731,-223.382,-65.525,-240.843,-400.743,-3041.500,921.760,-499.220
350,63747.533000,59.228,167.968,-244.139,-84.144,-235.836,-401.404,-3058.500,1079.760,-482.220
351,63747.551000,109.155,193.265,-259.954,-121.564,-219.057,-395.839,-3046.500,894.760,-527.220
352,63747.574000,98.386,220.585,-277.745,-145.144,-215.945,-391.488,-2964.500,569.760,-510.220
353,63747.591000,64.122,229.692,-307.398,-179.696,-208.876,-377.102,-2830.500,643.760,-464.220
354,63747.624000,68.038,225.644,-341.992,-208.394,-201.861,-361.836,-2760.500,771.760,-442.220
355,63747.644000,76.849,229.692,-370.656,-225.186,-192.039,-357.612,-2583.500,860.760,-497.220
356,63747.661000,72.933,237.787,-392.402,-248.974,-188.939,-341.444,-2317.500,808.760,-536.220
357,63747.670000,79.786,248.917,-398.332,-259.885,-184.010,-335.350,-1955.500,915.760,-479.220
358,63747.701000,95.449,227.668,-460.602,-272.841,-177.132,-325.284,-1572.500,686.760,-384.220
359,63747.724000,111.113,228.680,-480.371,-283.657,-173.166,-324.113,-1119.500,324.760,-322.220
360,63747.739000,79.786,237.787,-480.371,-291.615,-174.070,-316.096,-591.500,182.760,-321.220
361,63747.759000,79.786,248.917,-480.371,-289.605,-176.020,-318.098,105.500,271.760,-247.220
362,63747.784000,99.365,256.000,-480.371,-278.773,-174.179,-323.214,457.500,257.760,-48.220
363,63747.801000,110.134,254.988,-480.371,-270.711,-175.204,-336.153,1106.500,15.760,61.780
364,63747.819000,104.260,249.929,-480.371,-257.826,-178.215,-344.253,1639.500,-260.240,222.780
365,63747.833000,97.407,241.834,-466.533,-232.082,-181.332,-360.456,2063.500,-402.240,275.780
366,63747.846000,100.344,243.858,-432.927,-219.196,-184.343,-368.556,2387.500,-460.240,271.780
367,63747.878000,103.281,237.787,-405.251,-187.564,-187.513,-385.848,2667.500,-510.240,260.780
368,63747.897000,111.113,233.739,-374.610,-160.814,-195.478,-401.079,2915.500,-537.240,258.780
369,63747.918000,117.966,240.822,-334.085,-120.565,-198.739,-407.694,3112.500,-537.240,343.780
370,63747.945000,127.755,227.668,-298.502,-75.335,-211.719,-414.386,3251.500,-605.240,477.780
371,63747.965000,125.797,214.514,-261.931,-59.556,-217.661,-418.596,3320.500,-651.240,560.780
372,63747.983000,119.924,201.360,-210.533,-13.539,-226.789,-416.446,3441.500,-737.240,783.780
373,63748.5000,109.155,176.063,-154.193,8.068,-237.627,-415.831,3490.500,-852.240,1026.780
374,63748.38000,97.407,153.802,-100.819,51.092,-255.443,-405.742,3444.500,-1002.240,1244.780
375,63748.70000,77.828,127.494,-62.270,66.777,-268.166,-401.083,3297.500,-1131.240,1387.780
376,63748.84000,50.417,81.960,-43.490,99.843,-289.774,-379.000,3066.500,-1084.240,1384.780
377,63748.98000,19.090,41.486,-22.734,126.155,-310.346,-362.706,2778.500,-847.240,1271.780
378,63748.115000,5.384,-4.047,3.954,131.836,-310.410,-351.977,2389.500,-596.240,1076.780
379,63748.140000,-4.405,-47.557,13.838,146.457,-325.066,-341.390,1966.500,-455.240,766.780
380,63748.153000,-34.753,-88.032,33.606,162.996,-326.190,-335.774,1729.500,-361.240,570.780
381,63748.166000,-52.375,-113.328,46.456,169.803,-331.094,-330.967,1287.500,-0.240,238.780
382,63748.180000,-53.354,-122.435,81.050,172.668,-325.318,-330.040,843.500,484.760,-6.220
383,63748.208000,-30.837,-122.435,86.981,177.567,-316.651,-335.059,370.500,717.760,-108.220
384,63748.228000,-22.027,-126.482,87.969,178.648,-312.782,-342.958,-119.500,495.760,-151.220
385,63748.245000,-21.048,-120.411,81.050,175.790,-309.847,-348.818,-648.500,71.760,-169.220
386,63748.271000,-39.648,-99.162,61.282,165.026,-307.814,-349.614,-1148.500,-266.240,-247.220
387,63748.294000,-37.690,-78.925,39.537,156.238,-311.604,-348.470,-1572.500,-155.240,-312.220
388,63748.314000,-16.153,-61.723,19.768,136.884,-308.510,-361.913,-1753.500,3.760,-399.220
389,63748.335000,-12.237,-36.427,-4.942,125.140,-300.661,-365.652,-2100.500,237.760,-470.220
390,63748.358000,-21.048,-7.083,-34.595,94.968,-289.729,-379.898,-2388.500,451.760,-604.220
391,63748.395000,4.405,10.119,-74.131,84.255,-281.885,-386.609,-2637.500,785.760,-723.220
392,63748.414000,59.228,52.617,-97.853,55.017,-264.189,-401.864,-2863.500,1113.760,-855.220
393,63748.423000,75.870,103.209,-137.390,20.800,-248.389,-411.121,-3065.500,982.760,-950.220
394,63748.438000,50.417,138.625,-173.961,-8.575,-236.509,-415.538,-3083.500,875.760,-967.220
395,63748.465000,50.417,154.814,-189.776,-43.867,-213.930,-422.815,-3023.500,1444.760,-838.220
396,63748.484000,105.239,166.957,-225.359,-65.518,-200.191,-422.448,-3051.500,1808.760,-769.220
397,63748.493000,165.935,184.158,-273.792,-108.717,-174.642,-426.636,-3071.500,1655.760,-783.220
398,63748.506000,143.419,205.407,-297.514,-122.519,-174.523,-420.486,-3006.500,1019.760,-836.220
399,63748.538000,103.281,220.585,-320.247,-159.973,-163.554,-409.991,-2869.500,789.760,-773.220
400,63748.556000,138.524,223.621,-358.795,-193.556,-151.654,-397.598,-2709.500,1057.760,-713.220
401,63748.584000,162.998,220.585,-406.239,-212.348,-144.721,-389.397,-2478.500,840.760,-722.220
402,63748.601000,168.872,209.455,-452.695,-238.040,-143.536,-375.162,-2214.500,352.760,-665.220
403,63748.619000,155.166,229.692,-480.371,-246.040,-145.410,-364.189,-1838.500,19.760,-557.220
404,63748.641000,131.671,237.787,-480.371,-263.869,-148.166,-350.088,-1268.500,34.760,-375.220
405,63748.689000,133.629,243.858,-480.371,-269.731,-147.144,-350.970,-592.500,295.760,-216.220
406,63748.698000,172.788,235.763,-480.371,-267.862,-143.295,-348.054,-241.500,303.760,-133.220
407,63748.706000,175.725,235.763,-480.371,-258.873,-148.204,-356.083,422.500,-41.240,36.780
408,63748.724000,139.503,236.775,-480.371,-247.044,-150.242,-360.228,1079.500,-382.240,261.780
409,63748.746000,141.461,240.822,-480.371,-234.047,-148.406,-377.196,1687.500,-391.240,484.780
410,63748.769000,149.293,238.798,-468.510,-218.277,-153.382,-381.407,2147.500,-476.240,596.780
411,63748.791000,144.398,231.715,-424.031,-187.614,-159.446,-397.694,2475.500,-680.240,628.780
412,63748.809000,141.461,233.739,-380.541,-174.720,-163.424,-405.793,2700.500,-814.240,641.780
413,63748.843000,130.692,226.656,-323.212,-133.352,-174.429,-416.356,2893.500,-939.240,669.780
414,63748.858000,111.113,219.573,-274.780,-114.638,-180.399,-420.618,2973.500,-949.240,750.780
415,63748.880000,105.239,199.336,-250.069,-76.222,-197.186,-427.185,3122.500,-933.240,814.780
416,63748.893000,109.155,189.217,-212.510,-29.120,-214.060,-427.014,3215.500,-967.240,929.780
417,63748.920000,99.365,165.945,-177.915,-5.634,-222.016,-423.482,3278.500,-1114.240,1004.780
418,63748.939000,70.975,150.767,-142.332,32.610,-242.685,-418.228,3310.500,-1051.240,1081.780
419,63748.958000,59.228,117.375,-108.726,48.171,-245.736,-411.609,3274.500,-853.240,1205.780
420,63748.971000,63.143,78.925,-89.946,84.312,-267.363,-397.456,3141.500,-860.240,1293.780
421,63748.995000,47.480,53.628,-58.317,106.776,-278.217,-389.965,2972.500,-984.240,1319.780
422,63749.19000,29.859,11.130,-23.722,131.053,-295.872,-370.685,2688.500,-991.240,1265.780
423,63749.39000,13.216,-43.510,-9.884,132.877,-319.127,-351.001,2474.500,-1010.240,1189.780
424,63749.62000,-15.174,-97.138,-12.849,147.393,-329.917,-336.478,2012.500,-1140.240,945.780
425,63749.83000,-55.312,-124.459,7.907,163.858,-343.628,-320.018,1575.500,-1109.240,501.780
426,63749.98000,-97.407,-128.506,32.618,170.587,-347.569,-311.272,1189.500,-683.240,79.780
427,63749.115000,-101.323,-123.447,50.409,181.281,-345.735,-308.510,824.500,181.760,-176.220
428,63749.132000,-48.459,-118.387,77.097,189.195,-343.865,-314.559,433.500,790.760,-245.220
429,63749.175000,-14.195,-130.530,94.888,195.089,-331.335,-322.554,-86.500,480.760,-310.220
430,63749.177000,-6.363,-139.636,91.923,192.117,-327.438,-322.506,-671.500,-65.240,-382.220
431,63749.198000,-13.216,-130.530,86.981,184.334,-330.268,-323.349,-1220.500,-275.240,-453.220
432,63749.225000,-14.195,-114.340,79.073,164.868,-333.956,-326.938,-1490.500,-534.240,-493.220
433,63749.240000,-13.216,-91.067,59.305,159.014,-331.966,-328.806,-1943.500,-546.240,-560.220
434,63749.260000,-32.795,-71.842,30.641,137.609,-331.763,-335.319,-2279.500,-331.240,-604.220
435,63749.279000,-44.543,-58.688,-5.931,129.928,-330.716,-344.044,-2510.500,9.760,-640.220
436,63749.298000,-28.880,-19.225,-26.687,97.730,-319.770,-354.316,-2617.500,452.760,-667.220
437,63749.320000,5.384,18.213,-44.479,91.996,-313.902,-365.051,-2699.500,884.760,-665.220
438,63749.346000,22.027,57.676,-79.073,55.968,-293.237,-385.111,-2743.500,1277.760,-636.220
439,63749.360000,27.901,82.972,-122.564,15.825,-261.900,-399.204,-2793.500,1677.760,-562.220
440,63749.383000,64.122,98.150,-146.286,1.239,-247.243,-411.761,-2824.500,1806.760,-552.220
441,63749.405000,81.744,133.565,-151.228,-37.942,-219.788,-422.913,-2860.500,1853.760,-546.220
442,63749.425000,105.239,156.838,-172.973,-60.538,-206.038,-424.499,-2930.500,1656.760,-521.220
443,63749.443000,150.272,177.075,-195.707,-97.932,-190.225,-419.918,-3014.500,1121.760,-520.220
444,63749.469000,143.419,207.431,-218.440,-125.513,-183.211,-412.547,-3090.500,601.760,-491.220
445,63749.495000,89.576,228.680,-270.826,-164.959,-170.290,-401.035,-3091.500,704.760,-481.220
446,63749.515000,92.512,223.621,-329.143,-180.770,-172.092,-390.909,-3017.500,841.760,-604.220
447,63749.535000,125.797,224.632,-386.471,-218.249,-164.027,-377.457,-2807.500,571.760,-728.220
448,63749.553000,102.302,264.095,-480.371,-246.946,-158.948,-361.204,-2485.500,504.760,-654.220
449,63749.573000,145.377,270.166,-480.371,-260.819,-154.961,-353.088,-2268.500,617.760,-590.220
450,63749.595000,182.577,270.166,-480.371,-277.696,-154.824,-339.007,-1734.500,556.760,-531.220
451,63749.613000,159.082,270.166,-480.371,-276.813,-153.870,-334.101,-1016.500,132.760,-384.220
452,63749.633000,124.818,253.976,-480.371,-279.739,-156.747,-333.062,-165.500,-79.240,-12.220
453,63749.653000,146.356,243.858,-480.371,-278.735,-155.786,-335.049,645.500,-68.240,334.780
454,63749.680000,137.545,245.881,-480.371,-264.836,-156.867,-346.123,1332.500,-304.240,471.780
455,63749.713000,120.902,242.846,-480.371,-241.023,-158.998,-364.262,1870.500,-527.240,581.780
456,63749.731000,123.839,237.787,-439.846,-233.092,-159.064,-370.309,2308.500,-640.240,702.780
457,63749.740000,127.755,237.787,-386.471,-206.333,-166.060,-386.526,2626.500,-887.240,772.780
458,63749.759000,112.092,220.585,-359.784,-182.700,-174.976,-390.871,2746.500,-1023.240,777.780
459,63749.776000,109.155,211.478,-332.108,-146.182,-186.903,-403.317,2932.500,-1100.240,720.780
460,63749.800000,116.008,201.360,-305.421,-131.347,-192.835,-409.479,3061.500,-1120.240,655.780
461,63749.815000,113.071,194.277,-266.873,-91.960,-214.470,-413.104,3175.500,-1177.240,613.780
462,63749.834000,108.176,175.051,-234.255,-66.526,-221.478,-409.608,3231.500,-1209.240,639.780
463,63749.851000,99.365,147.731,-211.521,-23.233,-242.182,-413.303,3218.500,-1317.240,669.780
464,63749.879000,86.639,139.636,-177.915,18.743,-263.864,-397.284,3218.500,-1432.240,675.780
465,63749.899000,60.207,130.530,-133.436,38.334,-279.527,-390.722,3296.500,-1370.240,725.780
466,63749.919000,57.270,99.162,-80.062,80.310,-297.337,-376.677,3308.500,-1183.240,750.780
467,63749.935000,42.585,52.617,-32.618,97.847,-306.213,-368.116,3209.500,-811.240,808.780
468,63749.961000,25.943,2.024,3.954,118.225,-316.088,-353.699,2845.500,-489.240,842.780
469,63749.984000,27.901,-46.545,24.710,134.792,-322.051,-347.094,2360.500,-465.240,825.780
470,63750.13000,-0.489,-89.043,54.363,154.157,-335.791,-328.715,1892.500,-842.240,644.780
471,63750.28000,-41.606,-120.411,79.073,159.920,-352.305,-314.031,1377.500,-1003.240,347.780
472,63750.60000,-62.164,-127.494,83.027,164.632,-357.199,-301.311,882.500,-744.240,51.780
473,63750.74000,-65.101,-128.506,82.039,173.414,-362.120,-297.523,435.500,-411.240,-147.220
474,63750.88000,-60.207,-127.494,85.004,173.318,-359.222,-293.587,39.500,-310.240,-258.220
475,63750.115000,-63.143,-120.411,86.981,176.237,-363.121,-290.680,-153.500,-251.240,-281.220
476,63750.124000,-63.143,-112.316,80.062,179.198,-360.243,-293.690,-559.500,-40.240,-315.220
477,63750.154000,-52.375,-98.150,59.305,167.559,-356.258,-301.364,-964.500,185.760,-359.220
478,63750.160000,-31.816,-91.067,33.606,158.846,-349.398,-310.078,-1340.500,276.760,-408.220
479,63750.188000,-30.837,-75.889,13.838,147.223,-343.477,-319.724,-1692.500,253.760,-479.220
480,63750.210000,-38.669,-52.617,-4.942,128.846,-334.584,-336.145,-1993.500,413.760,-524.220
481,63750.228000,-10.279,-39.462,-36.571,116.211,-330.592,-342.817,-2294.500,599.760,-504.220
482,63750.244000,39.648,-13.154,-68.201,95.773,-319.752,-354.281,-2562.500,457.760,-545.220
483,63750.265000,48.459,27.320,-90.934,79.232,-312.821,-362.857,-2750.500,327.760,-545.220
484,63750.293000,16.153,47.557,-124.541,47.027,-306.715,-370.170,-2840.500,282.760,-538.220
485,63750.313000,18.111,77.913,-140.355,21.619,-300.674,-374.650,-2940.500,825.760,-572.220
486,63750.330000,49.438,117.375,-146.286,-3.802,-276.244,-388.011,-3014.500,1417.760,-544.220
487,63750.353000,95.449,122.435,-183.846,-51.745,-253.546,-399.003,-3176.500,1385.760,-501.220
488,63750.375000,132.650,144.696,-211.521,-67.533,-244.700,-395.780,-3287.500,878.760,-613.220
489,63750.400000,87.618,190.229,-226.347,-112.736,-236.558,-388.099,-3278.500,682.760,-584.220
490,63750.423000,69.017,214.514,-273.792,-135.321,-227.647,-387.710,-3127.500,1045.760,-478.220
491,63750.436000,92.512,209.455,-327.166,-170.792,-217.661,-378.234,-2983.500,1077.760,-397.220
492,63750.468000,122.860,223.621,-389.436,-189.566,-210.727,-371.019,-2921.500,892.760,-430.220
493,63750.476000,76.849,241.834,-475.429,-220.230,-204.663,-354.732,-2637.500,503.760,-433.220
494,63750.493000,72.933,246.893,-480.371,-230.242,-196.843,-345.704,-2158.500,594.760,-427.220
495,63750.515000,81.744,275.225,-480.371,-246.980,-194.762,-340.488,-1559.500,625.760,-380.220
496,63750.535000,76.849,265.107,-480.371,-248.125,-189.923,-333.582,-752.500,576.760,-185.220
497,63750.558000,81.744,244.870,-480.371,-253.892,-187.928,-340.374,34.500,402.760,121.780
498,63750.580000,87.618,227.668,-480.371,-249.909,-186.024,-345.369,669.500,-100.240,239.780
499,63750.597000,73.912,223.621,-480.371,-239.094,-186.119,-348.513,1204.500,-397.240,201.780
500,63750.618000,59.228,225.644,-480.371,-223.186,-191.087,-360.602,1674.500,-395.240,203.780
501,63750.635000,73.912,219.573,-449.730,-202.481,-195.136,-367.855,1863.500,-424.240,242.780
502,63750.668000,91.533,206.419,-397.344,-182.676,-204.012,-377.055,2154.500,-636.240,290.780
503,63750.700000,92.512,193.265,-361.761,-151.092,-218.800,-385.472,2341.500,-913.240,283.780
504,63750.729000,80.765,190.229,-325.189,-139.263,-222.773,-388.630,2496.500,-1023.240,262.780
505,63750.732000,74.891,176.063,-289.606,-103.834,-239.537,-392.191,2598.500,-978.240,279.780
506,63750.745000,76.849,146.719,-273.792,-77.343,-247.516,-392.650,2625.500,-1003.240,212.780
507,63750.768000,66.080,141.660,-251.058,-47.855,-262.294,-393.155,2633.500,-1016.240,169.780
508,63750.785000,55.312,121.423,-238.208,-34.084,-272.094,-392.402,2655.500,-889.240,113.780
509,63750.799000,59.228,111.304,-213.498,14.800,-283.188,-385.379,2669.500,-794.240,115.780
510,63750.821000,69.017,98.150,-175.938,22.580,-298.748,-374.669,2619.500,-814.240,153.780
511,63750.852000,64.122,67.794,-152.216,52.862,-302.898,-370.278,2500.500,-951.240,228.780
512,63750.872000,39.648,59.700,-117.622,82.083,-322.531,-353.052,2422.500,-964.240,370.780
513,63750.891000,17.132,41.486,-85.004,102.581,-326.592,-348.487,2335.500,-819.240,484.780
514,63750.914000,9.300,22.261,-50.409,120.085,-341.277,-334.997,2180.500,-545.240,521.780
515,63750.934000,-7.342,-55.652,-4.942,127.774,-341.356,-327.258,1861.500,-301.240,488.780
516,63750.949000,-15.174,-90.055,-1.977,136.453,-348.219,-316.574,1415.500,-283.240,414.780
517,63750.971000,-19.090,-115.352,5.931,146.230,-353.148,-313.788,955.500,-533.240,319.780
518,63750.980000,-40.627,-115.352,20.757,149.990,-360.935,-301.048,750.500,-658.240,249.780
519,63751.8000,-53.354,-106.245,24.710,152.850,-367.742,-293.215,392.500,-643.240,130.780
520,63751.30000,-55.312,-105.233,25.699,149.889,-368.684,-291.192,104.500,-148.240,97.780
521,63751.48000,-43.564,-111.304,9.884,149.013,-364.798,-299.057,-231.500,313.760,38.780
522,63751.70000,-16.153,-105.233,6.919,150.059,-358.996,-305.973,-600.500,547.760,-47.220
523,63751.93000,-4.405,-96.126,10.873,132.592,-353.988,-316.499,-974.500,375.760,-108.220
524,63751.125000,-23.006,-75.889,4.942,127.725,-352.974,-318.383,-1344.500,140.760,-173.220
525,63751.139000,-23.985,-53.628,-23.722,115.108,-350.917,-325.053,-1637.500,258.760,-214.220
526,63751.158000,-12.237,-43.510,-62.270,93.630,-339.103,-333.547,-1869.500,402.760,-247.220
527,63751.174000,-1.468,-23.273,-95.876,76.155,-336.999,-342.101,-1985.500,410.760,-273.220
528,63751.200000,-8.321,7.083,-112.680,53.760,-328.077,-352.544,-2165.500,501.760,-318.220
529,63751.215000,-1.468,37.439,-119.598,39.159,-319.229,-361.156,-2283.500,826.760,-353.220
530,63751.238000,31.816,65.771,-141.344,11.817,-300.586,-373.492,-2425.500,1205.760,-403.220
531,63751.255000,64.122,88.032,-163.089,3.078,-294.695,-380.236,-2568.500,1192.760,-430.220
532,63751.273000,81.744,103.209,-186.811,-36.126,-277.888,-384.484,-2752.500,759.760,-424.220
533,63751.295000,68.038,149.755,-195.707,-51.835,-273.877,-383.226,-2872.500,458.760,-454.220
534,63751.329000,51.396,183.146,-211.521,-95.064,-263.817,-377.551,-2910.500,575.760,-390.220
535,63751.333000,54.333,199.336,-239.197,-129.487,-251.900,-373.018,-2903.500,692.760,-349.220
536,63751.355000,59.228,209.455,-262.919,-150.142,-242.040,-371.680,-2833.500,836.760,-305.220
537,63751.383000,58.249,207.431,-303.444,-179.723,-237.914,-360.332,-2781.500,730.760,-289.220
538,63751.398000,50.417,225.644,-382.517,-194.609,-233.921,-350.229,-2725.500,422.760,-308.220
539,63751.415000,37.690,252.964,-443.799,-223.245,-231.742,-335.942,-2412.500,281.760,-322.220
540,63751.443000,16.153,268.142,-480.371,-238.079,-227.746,-328.793,-1952.500,361.760,-279.220
541,63751.472000,23.006,265.107,-480.371,-254.896,-222.765,-320.626,-1408.500,581.760,-234.220
542,63751.500000,54.333,257.012,-480.371,-256.941,-216.945,-318.628,-806.500,482.760,-176.220
543,63751.509000,53.354,238.798,-480.371,-252.109,-219.897,-313.788,-168.500,149.760,-41.220
544,63751.533000,35.732,228.680,-480.371,-256.933,-214.041,-320.600,153.500,43.760,11.780
545,63751.555000,24.964,229.692,-480.371,-244.099,-218.990,-324.759,764.500,-30.240,65.780
546,63751.573000,27.901,225.644,-477.405,-233.181,-217.143,-334.799,1286.500,28.760,99.780
547,63751.590000,49.438,215.526,-429.961,-226.184,-216.229,-343.784,1673.500,6.760,164.780
548,63751.613000,67.059,205.407,-396.355,-205.385,-217.370,-357.933,1909.500,-194.240,216.780
549,63751.635000,64.122,189.217,-400.309,-185.710,-223.349,-361.228,2066.500,-576.240,121.780
550,63751.655000,55.312,192.253,-395.367,-158.068,-231.328,-371.552,2249.500,-775.240,-57.220
551,63751.659000,38.669,202.372,-379.552,-124.518,-247.101,-380.003,2484.500,-767.240,-179.220
552,63751.684000,48.459,209.455,-346.934,-111.736,-253.988,-380.221,2689.500,-720.240,-187.220
553,63751.720000,69.017,209.455,-312.340,-69.450,-265.974,-386.862,2755.500,-772.240,-172.220
554,63751.735000,69.017,196.300,-289.606,-45.955,-274.898,-383.329,2853.500,-1050.240,-119.220
555,63751.749000,54.333,182.134,-259.954,-4.811,-291.723,-378.131,2949.500,-1239.240,-66.220
556,63751.766000,35.732,164.933,-225.359,19.664,-308.399,-370.668,3040.500,-1192.240,-4.220
557,63751.801000,40.627,144.696,-173.961,60.608,-322.332,-355.625,3090.500,-942.240,51.780
558,63751.814000,49.438,114.340,-139.367,95.656,-335.245,-339.494,3040.500,-861.240,142.780
559,63751.839000,39.648,77.913,-112.680,113.158,-344.123,-328.965,2946.500,-807.240,236.780
560,63751.861000,23.985,48.569,-74.131,141.278,-356.010,-308.775,2803.500,-565.240,322.780
561,63751.874000,15.174,16.190,-27.676,158.787,-358.112,-302.191,2691.500,-414.240,358.780
562,63751.898000,16.153,-20.237,1.977,177.215,-361.194,-291.684,2400.500,-113.240,381.780
563,63751.914000,10.279,-50.593,19.768,192.803,-367.148,-285.062,2067.500,89.760,325.780
564,63751.934000,-4.405,-87.020,45.467,200.423,-365.295,-274.370,1684.500,202.760,265.780
565,63751.955000,-17.132,-122.435,75.120,209.230,-367.311,-273.539,1183.500,233.760,191.780
566,63751.975000,-36.711,-131.542,87.969,212.026,-361.538,-268.673,721.500,229.760,143.780
567,63752.3000,-13.216,-139.636,97.853,211.142,-360.556,-274.565,264.500,273.760,197.780
568,63752.18000,6.363,-139.636,103.784,214.052,-363.487,-271.660,-195.500,-9.240,178.780
569,63752.45000,-34.753,-126.482,90.934,207.333,-364.386,-278.431,-613.500,52.760,148.780
570,63752.60000,-54.333,-117.375,76.108,199.573,-360.439,-284.205,-824.500,268.760,135.780
571,63752.83000,-31.816,-110.292,64.247,188.982,-356.460,-295.836,-1263.500,541.760,63.780
572,63752.100000,-2.447,-88.032,43.490,170.527,-348.540,-307.332,-1690.500,480.760,-58.220
573,63752.114000,-3.426,-60.711,26.687,147.257,-339.603,-323.667,-2075.500,489.760,-159.220
574,63752.146000,-5.384,-33.391,-0.988,121.095,-329.669,-342.904,-2424.500,624.760,-210.220
575,63752.191000,7.342,-9.107,-39.537,109.431,-328.590,-347.622,-2692.500,764.760,-258.220
576,63752.200000,28.880,25.296,-80.062,73.412,-310.828,-366.694,-2868.500,852.760,-336.220
577,63752.200000,34.753,72.854,-106.749,60.750,-301.998,-374.356,-2916.500,1342.760,-388.220
578,63752.223000,40.627,109.281,-107.737,9.991,-271.524,-396.136,-3151.500,1651.760,-386.220
579,63752.246000,68.038,114.340,-148.263,-6.691,-256.857,-400.781,-3296.500,1633.760,-416.220
580,63752.263000,117.966,122.435,-195.707,-56.622,-245.757,-403.848,-3457.500,842.760,-535.220
581,63752.285000,54.333,247.905,-193.730,-80.212,-237.807,-401.471,-3443.500,453.760,-538.220
582,63752.308000,78.807,289.391,-289.606,-120.514,-226.805,-395.848,-3447.500,1029.760,-439.220
583,63752.330000,126.776,265.107,-350.888,-163.901,-210.946,-384.270,-3294.500,1157.760,-414.220
584,63752.350000,88.597,256.000,-378.564,-177.809,-203.090,-376.158,-3090.500,801.760,-345.220
585,63752.373000,55.312,277.249,-442.811,-223.211,-193.992,-357.645,-2836.500,716.760,-361.220
586,63752.390000,77.828,288.379,-480.371,-232.132,-189.079,-353.555,-2349.500,941.760,-337.220
587,63752.410000,89.576,288.379,-480.371,-256.890,-179.194,-341.315,-2068.500,947.760,-304.220
588,63752.428000,103.281,280.285,-480.371,-267.794,-173.296,-336.207,-1495.500,821.760,-180.220
589,63752.447000,102.302,267.130,-480.371,-276.723,-165.480,-333.105,-900.500,593.760,-73.220
590,63752.460000,91.533,243.858,-480.371,-274.819,-161.629,-332.159,-317.500,400.760,-39.220
591,63752.493000,85.660,244.870,-480.371,-270.820,-157.788,-339.125,277.500,367.760,-10.220
592,63752.513000,104.260,242.846,-480.371,-256.005,-152.107,-350.223,865.500,428.760,82.780
593,63752.535000,145.377,246.893,-480.371,-254.931,-153.078,-355.163,1373.500,253.760,192.780
594,63752.558000,157.124,250.941,-456.649,-235.120,-151.307,-370.282,1772.500,-195.240,287.780
595,63752.573000,126.776,249.929,-422.054,-226.165,-156.218,-376.342,2161.500,-452.240,411.780
596,63752.600000,122.860,247.905,-385.483,-194.542,-156.485,-394.621,2343.500,-389.240,484.780
597,63752.623000,147.335,235.763,-353.853,-172.669,-158.597,-413.710,2643.500,-286.240,611.780
598,63752.653000,161.040,225.644,-324.201,-141.277,-165.653,-415.242,2816.500,-546.240,635.780
599,63752.672000,145.377,221.597,-293.560,-97.917,-180.545,-425.836,2896.500,-1002.240,585.780
600,63752.685000,123.839,212.490,-262.919,-76.275,-191.382,-427.191,2988.500,-1171.240,578.780
601,63752.705000,114.050,192.253,-225.359,-35.044,-212.074,-424.943,3084.500,-1121.240,639.780
602,63752.725000,115.029,171.004,-185.822,-15.395,-215.151,-428.240,3119.500,-1158.240,777.780
603,63752.740000,114.050,145.708,-149.251,26.625,-237.798,-414.190,3090.500,-1393.240,908.780
604,63752.758000,88.597,121.423,-119.598,46.268,-253.459,-410.582,3056.500,-1556.240,957.780
605,63752.793000,50.417,93.091,-97.853,80.349,-280.881,-387.526,2950.500,-1674.240,959.780
606,63752.808000,24.964,56.664,-76.108,106.584,-304.361,-365.320,2822.500,-1469.240,928.780
607,63752.830000,20.069,19.225,-52.386,117.194,-312.211,-352.700,2592.500,-1071.240,848.780
608,63752.855000,8.321,-15.178,-40.525,143.444,-329.883,-334.440,2307.500,-903.240,702.780
609,63752.873000,-14.195,-32.379,-18.780,156.080,-337.747,-325.794,2084.500,-655.240,554.780
610,63752.888000,-43.564,-58.688,14.826,166.681,-344.629,-313.175,1875.500,-254.240,474.780
611,63752.908000,-54.333,-94.103,40.525,181.342,-346.699,-311.463,1562.500,157.760,404.780
612,63752.930000,-34.753,-118.387,60.293,188.061,-345.801,-304.692,1132.500,324.760,274.780
613,63752.950000,-17.132,-132.553,83.027,191.966,-344.869,-304.762,887.500,251.760,207.780
614,63752.974000,-23.006,-144.696,83.027,189.967,-349.693,-299.799,344.500,-29.240,100.780
615,63752.990000,-29.859,-144.696,70.178,187.085,-355.471,-299.741,-186.500,-282.240,56.780
616,63753.27000,-34.753,-132.553,66.224,185.145,-353.516,-301.678,-608.500,-463.240,59.780
617,63753.55000,-51.396,-121.423,54.363,170.520,-357.251,-302.400,-957.500,-482.240,41.780
618,63753.59000,-60.207,-107.257,33.606,168.556,-360.138,-300.393,-1279.500,-194.240,-14.220
619,63753.68000,-44.543,-86.008,14.826,151.089,-355.130,-310.918,-1570.500,159.760,-90.220
620,63753.84000,-43.564,-63.747,-6.919,136.461,-347.250,-317.560,-1785.500,461.760,-159.220
621,63753.110000,-40.627,-44.522,-20.757,117.097,-341.253,-331.991,-1992.500,897.760,-195.220
622,63753.132000,-10.279,-25.296,-33.606,91.842,-321.654,-352.241,-2103.500,1086.760,-219.220
623,63753.153000,39.648,5.059,-46.456,78.270,-310.875,-364.811,-2373.500,1195.760,-274.220
624,63753.178000,69.996,22.261,-92.911,48.011,-294.141,-377.093,-2742.500,725.760,-320.220
625,63753.200000,72.933,57.676,-143.320,20.683,-297.759,-378.574,-2968.500,220.760,-419.220
626,63753.220000,27.901,104.221,-164.077,-6.691,-290.733,-383.021,-2993.500,436.760,-452.220
627,63753.235000,10.279,132.553,-172.973,-33.191,-277.915,-384.536,-3028.500,1260.760,-437.220
628,63753.252000,80.765,138.625,-209.544,-72.406,-254.333,-391.745,-3135.500,1481.760,-483.220
629,63753.278000,140.482,174.040,-245.127,-88.308,-238.718,-385.575,-3139.500,733.760,-512.220
630,63753.312000,100.344,206.419,-278.734,-127.464,-242.235,-381.925,-3109.500,457.760,-432.220
631,63753.322000,35.732,240.822,-304.432,-166.946,-223.508,-371.404,-2936.500,857.760,-349.220
632,63753.344000,79.786,252.964,-334.085,-185.660,-213.667,-369.115,-2719.500,1401.760,-233.220
633,63753.359000,130.692,235.763,-386.471,-211.389,-204.741,-356.857,-2605.500,806.760,-236.220
634,63753.384000,95.449,231.715,-428.973,-227.183,-204.606,-348.702,-2344.500,185.760,-270.220
635,63753.405000,28.880,230.704,-470.486,-254.920,-197.601,-332.469,-1975.500,370.760,-213.220
636,63753.414000,37.690,242.846,-480.371,-259.882,-197.560,-328.443,-1423.500,666.760,-139.220
637,63753.434000,78.807,232.727,-480.371,-268.802,-190.711,-325.340,-852.500,391.760,-98.220
638,63753.449000,85.660,233.739,-480.371,-267.893,-190.724,-321.418,-287.500,6.760,-81.220
639,63753.483000,65.101,233.739,-480.371,-275.722,-188.717,-322.266,27.500,-63.240,-36.220
640,63753.497000,50.417,226.656,-480.371,-261.910,-189.803,-328.416,657.500,-10.240,72.780
641,63753.529000,60.207,221.597,-480.371,-253.009,-186.974,-335.468,1212.500,3.760,184.780
642,63753.556000,72.933,215.526,-446.764,-232.157,-190.048,-351.585,1641.500,-197.240,287.780
643,63753.565000,77.828,204.395,-388.448,-229.117,-192.005,-356.559,1901.500,-500.240,342.780
644,63753.585000,75.870,190.229,-358.795,-205.353,-205.753,-365.823,2045.500,-730.240,281.780
645,63753.608000,61.185,179.099,-338.039,-193.393,-212.623,-374.887,2144.500,-821.240,168.780
646,63753.632000,57.270,165.945,-319.259,-159.984,-222.596,-378.419,2237.500,-894.240,83.780
647,63753.652000,76.849,160.885,-284.664,-132.384,-235.417,-383.815,2281.500,-1028.240,-7.220
648,63753.665000,56.291,153.802,-281.699,-109.755,-247.229,-385.186,2295.500,-1294.240,-44.220
649,63753.687000,40.627,151.779,-269.838,-75.399,-266.893,-381.833,2353.500,-1304.240,-105.220
650,63753.708000,42.585,138.625,-240.185,-59.688,-276.711,-380.131,2480.500,-985.240,-104.220
651,63753.730000,64.122,119.399,-202.625,-30.261,-288.589,-378.668,2589.500,-705.240,-52.220
652,63753.750000,69.017,87.020,-187.799,-4.845,-293.661,-375.174,2557.500,-811.240,39.780
653,63753.759000,47.480,74.877,-170.996,22.548,-310.365,-366.779,2443.500,-1096.240,48.780
654,63753.807000,16.153,61.723,-149.251,55.673,-323.258,-352.583,2413.500,-1089.240,83.780
655,63753.820000,9.300,29.344,-127.506,72.275,-333.090,-345.975,2362.500,-796.240,162.780
656,63753.834000,21.048,-1.012,-114.656,96.611,-345.903,-332.608,2294.500,-698.240,182.780
657,63753.863000,14.195,-16.190,-89.946,107.219,-346.009,-323.935,2111.500,-734.240,173.780
658,63753.883000,-17.132,-38.451,-62.270,129.545,-358.807,-307.580,1884.500,-763.240,149.780
659,63753.893000,-41.606,-64.759,-29.653,138.292,-363.730,-301.822,1585.500,-447.240,102.780
660,63753.915000,1.468,-82.972,-2.965,152.849,-363.870,-295.188,1171.500,28.760,11.780
661,63753.935000,25.943,-97.138,9.884,151.837,-367.735,-291.228,723.500,-111.240,-107.220
662,63753.953000,-6.363,-109.281,25.699,167.459,-373.686,-286.575,332.500,-510.240,-120.220
663,63753.975000,-45.522,-104.221,31.629,162.481,-377.518,-279.591,34.500,-461.240,-58.220
664,63753.995000,-59.228,-96.126,32.618,160.454,-373.633,-277.591,-157.500,25.760,51.780
665,63754.13000,-41.606,-98.150,44.479,155.708,-370.676,-287.355,-231.500,280.760,88.780
666,63754.35000,-18.111,-103.209,52.386,157.699,-368.756,-290.346,-494.500,576.760,126.780
667,63754.58000,-22.027,-97.138,32.618,143.184,-361.838,-302.895,-903.500,555.760,81.780
668,63754.80000,-23.985,-75.889,13.838,131.545,-355.918,-311.556,-1302.500,574.760,16.780
669,63754.109000,-12.237,-52.617,9.884,113.081,-345.095,-324.040,-1665.500,700.760,-65.220
670,63754.112000,4.405,-25.296,-0.988,95.708,-337.178,-341.462,-2041.500,821.760,-152.220
671,63754.133000,13.216,5.059,-36.571,74.238,-324.397,-350.942,-2392.500,857.760,-213.220
672,63754.188000,9.300,39.462,-78.085,43.018,-307.652,-364.191,-2582.500,950.760,-254.220
673,63754.188000,22.027,74.877,-92.911,26.486,-303.624,-371.779,-2637.500,1104.760,-280.220
674,63754.205000,39.648,112.316,-112.680,-5.733,-277.193,-388.960,-2755.500,1526.760,-300.220
675,63754.220000,72.933,131.542,-155.181,-24.328,-261.537,-396.525,-2906.500,1819.760,-372.220
676,63754.248000,112.092,160.885,-197.683,-64.531,-235.044,-404.705,-3030.500,1750.760,-487.220
677,63754.263000,107.197,200.348,-222.394,-109.720,-213.351,-404.915,-3093.500,1496.760,-572.220
678,63754.295000,100.344,223.621,-252.046,-125.491,-200.632,-404.651,-3059.500,1519.760,-557.220
679,63754.309000,132.650,237.787,-292.571,-167.927,-176.072,-396.053,-3053.500,1526.760,-577.220
680,63754.326000,156.145,258.024,-341.992,-190.520,-173.937,-391.718,-2942.500,1110.760,-655.220
681,63754.349000,119.924,274.213,-380.541,-218.292,-164.998,-374.502,-2663.500,954.760,-584.220
682,63754.369000,123.839,274.213,-399.320,-233.214,-155.199,-365.389,-2488.500,1024.760,-531.220
683,63754.391000,146.356,261.059,-438.857,-254.975,-150.177,-354.181,-2171.500,905.760,-471.220
684,63754.414000,152.229,248.917,-480.371,-267.844,-147.166,-347.066,-1803.500,503.760,-406.220
685,63754.428000,147.335,242.846,-480.371,-279.766,-149.973,-335.038,-1323.500,109.760,-330.220
686,63754.437000,160.061,254.988,-480.371,-285.766,-152.830,-326.068,-718.500,-142.240,-232.220
687,63754.469000,147.335,257.012,-480.371,-281.835,-152.865,-327.122,17.500,-338.240,-63.220
688,63754.489000,151.250,261.059,-480.371,-275.815,-159.685,-332.143,746.500,-478.240,154.780
689,63754.506000,143.419,271.178,-480.371,-270.880,-158.760,-335.185,1418.500,-605.240,339.780
690,63754.534000,140.482,277.249,-480.371,-253.915,-166.635,-350.243,1991.500,-697.240,461.780
691,63754.549000,132.650,276.237,-469.498,-240.042,-170.622,-358.359,2241.500,-721.240,521.780
692,63754.569000,130.692,274.213,-406.239,-206.391,-176.710,-377.652,2650.500,-828.240,674.780
693,63754.592000,129.713,264.095,-348.911,-171.812,-188.618,-391.048,2919.500,-1052.240,748.780
694,63754.612000,125.797,259.036,-311.351,-157.002,-199.391,-393.266,3025.500,-1321.240,712.780
695,63754.634000,100.344,250.941,-284.664,-112.741,-215.265,-398.953,3156.500,-1413.240,651.780
696,63754.652000,68.038,243.858,-230.301,-93.066,-223.180,-401.261,3329.500,-1175.240,763.780
697,63754.674000,68.038,215.526,-190.764,-50.770,-241.940,-404.940,3381.500,-1066.240,918.780
698,63754.696000,75.870,187.194,-167.042,-25.310,-249.914,-402.428,3338.500,-1203.240,922.780
699,63754.719000,64.122,154.814,-145.297,5.056,-276.321,-391.121,3283.500,-1297.240,855.780
700,63754.737000,37.690,118.387,-135.413,24.601,-281.340,-387.523,3147.500,-1309.240,804.780
701,63754.754000,18.111,95.115,-116.633,62.630,-302.988,-369.466,3065.500,-1102.240,713.780
702,63754.768000,11.258,70.830,-88.958,92.853,-313.917,-358.174,2965.500,-736.240,684.780
703,63754.795000,15.174,43.510,-59.305,110.433,-321.823,-352.570,2795.500,-465.240,706.780
704,63754.840000,14.195,8.095,-28.664,131.772,-331.708,-337.184,2524.500,-344.240,713.780
705,63754.859000,-2.447,-33.391,14.826,138.579,-334.676,-333.363,2112.500,-299.240,669.780
706,63754.868000,-8.321,-79.937,35.583,154.038,-343.541,-317.875,1598.500,-390.240,437.780
707,63754.882000,-28.880,-119.399,45.467,164.742,-346.546,-313.139,1078.500,-448.240,98.780
708,63754.904000,-51.396,-131.542,49.421,167.592,-350.449,-306.294,842.500,-371.240,-56.220
709,63754.924000,-61.185,-130.530,63.259,174.424,-352.448,-304.443,384.500,-76.240,-245.220
710,63754.948000,-47.480,-135.589,74.131,180.260,-348.632,-304.551,-100.500,40.760,-283.220
711,63754.970000,-31.816,-138.625,71.166,176.389,-349.562,-306.450,-571.500,-160.240,-328.220
712,63754.988000,-50.417,-113.328,48.432,170.562,-350.474,-308.315,-948.500,-312.240,-349.220
713,63755.10000,-51.396,-96.126,32.618,157.902,-349.387,-312.030,-1243.500,-128.240,-394.220
714,63755.25000,-42.585,-78.925,18.780,159.901,-346.499,-316.007,-1481.500,250.760,-432.220
715,63755.48000,-23.985,-60.711,-0.988,142.519,-333.743,-335.403,-1746.500,616.760,-500.220
716,63755.68000,5.384,-40.474,-20.757,130.903,-317.174,-350.968,-2046.500,817.760,-540.220
717,63755.77000,27.901,-12.142,-40.525,115.385,-315.088,-359.556,-2198.500,835.760,-555.220
718,63755.119000,35.732,17.202,-76.108,81.211,-298.318,-371.769,-2467.500,762.760,-579.220
719,63755.138000,32.795,48.569,-109.714,70.541,-291.440,-380.448,-2631.500,759.760,-578.220
720,63755.156000,36.711,73.866,-134.425,30.487,-269.778,-394.532,-2694.500,1009.760,-598.220
721,63755.167000,60.207,103.209,-164.077,14.899,-263.824,-401.154,-2752.500,1429.760,-617.220
722,63755.188000,87.618,123.447,-193.730,-14.472,-235.489,-414.450,-2812.500,1574.760,-646.220
723,63755.214000,112.092,137.613,-221.405,-37.093,-222.708,-414.065,-2906.500,1436.760,-683.220
724,63755.232000,108.176,175.051,-231.290,-78.300,-197.175,-420.257,-2925.500,1239.760,-769.220
725,63755.249000,110.134,205.407,-244.139,-113.659,-184.279,-418.662,-2910.500,1231.760,-782.220
726,63755.272000,116.987,223.621,-262.919,-131.508,-171.550,-411.470,-2850.500,1307.760,-794.220
727,63755.294000,130.692,228.680,-268.849,-172.842,-156.671,-404.849,-2747.500,1341.760,-766.220
728,63755.319000,154.187,232.727,-283.676,-180.862,-150.803,-396.839,-2701.500,1265.760,-706.220
729,63755.339000,159.082,240.822,-311.351,-216.428,-139.855,-382.440,-2683.500,897.760,-696.220
730,63755.354000,143.419,253.976,-341.004,-235.228,-133.890,-373.254,-2586.500,573.760,-729.220
731,63755.375000,123.839,257.012,-393.390,-265.873,-133.632,-354.992,-2350.500,612.760,-665.220
732,63755.397000,124.818,249.929,-443.799,-285.738,-127.663,-340.865,-1927.500,924.760,-530.220
733,63755.410000,159.082,238.798,-475.429,-287.817,-123.781,-335.911,-1391.500,1089.760,-362.220
734,63755.424000,211.946,239.810,-480.371,-299.760,-114.974,-328.819,-1127.500,991.760,-284.220
735,63755.457000,226.631,253.976,-480.371,-306.609,-116.848,-327.711,-613.500,448.760,-167.220
736,63755.465000,204.115,252.964,-480.371,-299.787,-112.072,-328.821,-37.500,-2.240,6.780
737,63755.495000,170.830,258.024,-480.371,-296.818,-108.225,-332.816,653.500,-51.240,252.780
738,63755.518000,180.620,257.012,-480.371,-286.800,-107.333,-346.777,1335.500,65.760,586.780
739,63755.555000,206.073,248.917,-452.695,-272.928,-105.512,-357.854,1825.500,-231.240,830.780
740,63755.576000,208.031,249.929,-417.112,-249.158,-108.613,-373.037,2131.500,-830.240,894.780
741,63755.584000,173.767,258.024,-385.483,-220.391,-117.560,-391.256,2375.500,-1219.240,879.780
742,63755.613000,152.229,256.000,-353.853,-208.526,-123.468,-395.397,2601.500,-1254.240,879.780
743,63755.628000,141.461,253.976,-314.317,-176.805,-136.312,-412.679,2712.500,-1243.240,881.780
744,63755.648000,137.545,249.929,-281.699,-152.228,-143.303,-416.059,2901.500,-1205.240,918.780
745,63755.665000,139.503,229.692,-252.046,-108.816,-160.129,-428.620,3017.500,-1274.240,942.780
746,63755.683000,132.650,218.561,-225.359,-95.044,-171.864,-426.882,3068.500,-1432.240,940.780
747,63755.699000,115.029,198.324,-195.707,-49.821,-193.556,-428.641,3096.500,-1471.240,969.780
748,63755.723000,99.365,167.968,-170.008,-10.528,-218.100,-425.369,3070.500,-1438.240,952.780
749,63755.750000,81.744,138.625,-152.216,4.143,-226.945,-420.696,3001.500,-1317.240,891.780
750,63755.768000,65.101,112.316,-140.355,39.391,-246.623,-412.437,2922.500,-1113.240,854.780
751,63755.790000,65.101,78.925,-125.529,65.788,-259.447,-405.013,2883.500,-994.240,840.780
752,63755.813000,61.185,68.806,-98.842,96.020,-271.343,-393.721,2797.500,-867.240,836.780
753,63755.834000,31.816,60.711,-61.282,106.717,-281.124,-385.038,2768.500,-680.240,853.780
754,63755.854000,21.048,36.427,-21.745,133.926,-289.127,-370.744,2680.500,-206.240,952.780
755,63755.867000,3.426,-15.178,21.745,147.617,-292.156,-369.013,2343.500,183.760,1029.780
756,63755.889000,1.468,-70.830,33.606,160.182,-292.280,-360.375,1832.500,163.760,925.780
757,63755.907000,-3.426,-110.292,40.525,173.798,-305.960,-348.787,1323.500,-275.240,660.780
758,63755.929000,-37.690,-127.494,57.328,176.682,-309.861,-343.911,838.500,-661.240,371.780
759,63755.952000,-71.954,-127.494,70.178,184.486,-318.645,-338.132,401.500,-575.240,111.780
760,63755.969000,-86.639,-126.482,79.073,188.366,-320.618,-335.245,204.500,-420.240,13.780
761,63755.991000,-85.660,-133.565,75.120,178.590,-321.497,-335.071,-189.500,-87.240,-154.220
762,63756.24000,-72.933,-132.553,65.236,184.477,-317.677,-338.133,-598.500,169.760,-298.220
763,63756.53000,-50.417,-120.411,60.293,170.864,-313.676,-344.788,-1005.500,258.760,-381.220
764,63756.62000,-40.627,-107.257,54.363,160.245,-304.859,-357.409,-1400.500,212.760,-451.220
765,63756.70000,-33.774,-86.008,44.479,147.533,-301.839,-359.156,-1754.500,235.760,-530.220
766,63756.93000,-24.964,-60.711,21.745,133.044,-293.952,-373.676,-2035.500,394.760,-607.220
767,63756.115000,-14.195,-25.296,-4.942,116.467,-283.151,-382.255,-2255.500,664.760,-649.220
768,63756.135000,-4.405,0.000,-33.606,80.327,-261.524,-396.408,-2453.500,1023.760,-663.220
769,63756.155000,23.006,13.154,-61.282,73.623,-254.678,-408.111,-2556.500,1156.760,-680.220
770,63756.180000,54.333,42.498,-82.039,36.504,-234.978,-421.259,-2723.500,1278.760,-760.220
771,63756.197000,63.143,83.984,-100.819,0.180,-204.651,-429.512,-2815.500,1420.760,-859.220
772,63756.217000,89.576,117.375,-130.471,-13.531,-191.944,-435.191,-2935.500,1640.760,-946.220
773,63756.238000,115.029,146.719,-170.008,-64.558,-162.452,-441.214,-3055.500,1609.760,-1025.220
774,63756.258000,140.482,177.075,-193.730,-88.122,-153.532,-440.808,-3117.500,1383.760,-1062.220
775,63756.290000,145.377,205.407,-219.429,-126.616,-135.782,-430.303,-3113.500,1164.760,-1094.220
776,63756.319000,153.208,248.917,-258.965,-143.416,-130.800,-423.120,-3047.500,1165.760,-1068.220
777,63756.335000,167.893,253.976,-301.467,-182.879,-117.880,-410.624,-3010.500,1192.760,-1055.220
778,63756.343000,174.746,257.012,-345.946,-204.572,-110.918,-404.341,-2926.500,1056.760,-1068.220
779,63756.365000,168.872,268.142,-375.598,-241.123,-108.673,-384.993,-2793.500,865.760,-1119.220
780,63756.388000,177.683,288.379,-381.529,-265.066,-103.646,-360.948,-2528.500,842.760,-1109.220
781,63756.408000,196.283,281.296,-417.112,-277.925,-103.538,-352.845,-2156.500,859.760,-906.220
782,63756.427000,211.946,251.953,-480.371,-289.919,-100.541,-339.839,-1734.500,607.760,-656.220
783,63756.448000,220.757,247.905,-480.371,-304.708,-101.382,-332.685,-1235.500,330.760,-488.220
784,63756.469000,201.178,257.012,-480.371,-306.717,-101.367,-329.696,-579.500,384.760,-310.220
785,63756.494000,180.620,256.000,-480.371,-310.668,-93.591,-331.604,244.500,1034.760,69.780
786,63756.514000,236.421,238.798,-479.382,-299.866,-75.296,-343.630,656.500,1367.760,333.780
787,63756.528000,323.549,216.538,-430.950,-286.995,-56.045,-362.585,1259.500,1201.760,825.780
788,63756.550000,290.264,220.585,-426.008,-273.227,-54.230,-367.753,1527.500,-103.240,1075.780
789,63756.570000,197.262,228.680,-417.112,-255.328,-57.278,-382.833,1769.500,-1034.240,1080.780
790,63756.588000,171.809,233.739,-376.587,-245.378,-58.325,-391.868,2091.500,-924.240,1075.780
791,63756.610000,200.199,233.739,-342.981,-214.715,-62.454,-409.141,2359.500,-710.240,1100.780
792,63756.628000,204.115,233.739,-304.432,-191.957,-71.356,-419.378,2556.500,-917.240,1091.780
793,63756.650000,206.073,225.644,-274.780,-161.311,-77.421,-434.680,2662.500,-1316.240,1112.780
794,63756.670000,185.514,216.538,-256.988,-134.706,-92.170,-438.087,2714.500,-1676.240,1120.780
795,63756.690000,161.040,203.383,-240.185,-101.112,-112.780,-446.532,2741.500,-1772.240,1111.780
796,63756.723000,140.482,193.265,-205.591,-60.692,-144.101,-448.195,2814.500,-1832.240,1072.780
797,63756.752000,119.924,169.992,-174.950,-43.942,-154.892,-449.463,2881.500,-1734.240,1037.780
798,63756.760000,112.092,136.601,-152.216,-2.674,-183.326,-445.238,2883.500,-1622.240,1031.780
799,63756.780000,98.386,117.375,-124.541,19.800,-199.018,-435.773,2818.500,-1634.240,1002.780
800,63756.803000,85.660,81.960,-104.772,53.146,-228.354,-425.499,2678.500,-1685.240,971.780
801,63756.820000,64.122,51.605,-91.923,64.840,-245.886,-413.872,2502.500,-1727.240,865.780
802,63756.854000,29.859,31.368,-71.166,92.088,-269.373,-393.653,2382.500,-1576.240,738.780
803,63756.857000,12.237,6.071,-48.432,119.302,-292.862,-371.465,2322.500,-1425.240,691.780
804,63756.873000,2.447,-19.225,-23.722,132.881,-298.801,-361.854,2166.500,-1129.240,609.780
805,63756.895000,-23.006,-45.534,13.838,152.333,-312.536,-348.399,1947.500,-799.240,480.780
806,63756.918000,-49.438,-76.901,29.653,161.080,-317.459,-342.642,1617.500,-341.240,305.780
807,63756.938000,-42.585,-103.209,38.548,179.637,-319.566,-340.014,1218.500,114.760,143.780
808,63756.960000,-23.985,-108.269,58.317,181.541,-315.715,-339.068,796.500,251.760,21.780
809,63756.978000,-13.216,-114.340,81.050,181.498,-316.685,-336.113,321.500,36.760,-37.220
810,63757.1000,-14.195,-125.470,85.992,189.318,-317.725,-335.265,-212.500,-342.240,-50.220
811,63757.19000,-21.048,-133.565,72.154,181.448,-322.496,-330.198,-730.500,-724.240,-74.220
812,63757.40000,-27.901,-131.542,53.375,163.838,-332.014,-324.953,-967.500,-878.240,-90.220
813,63757.77000,-50.417,-115.352,33.606,158.029,-338.733,-324.843,-1335.500,-976.240,-144.220
814,63757.87000,-65.101,-102.198,14.826,143.430,-341.499,-327.535,-1596.500,-614.240,-229.220
815,63757.103000,-51.396,-76.901,-4.942,131.748,-338.485,-332.254,-1834.500,65.760,-345.220
816,63757.132000,-24.964,-48.569,-28.664,109.395,-322.785,-348.612,-2067.500,629.760,-444.220
817,63757.148000,9.300,-23.273,-50.409,100.699,-317.859,-357.324,-2272.500,900.760,-499.220
818,63757.175000,32.795,2.024,-67.212,74.371,-299.224,-371.647,-2457.500,934.760,-516.220
819,63757.193000,39.648,31.368,-85.004,48.112,-284.456,-387.935,-2574.500,1048.760,-520.220
820,63757.208000,49.438,59.700,-109.714,23.699,-274.552,-395.391,-2671.500,1356.760,-518.220
821,63757.225000,69.017,92.079,-140.355,-9.567,-250.051,-407.629,-2725.500,1488.760,-515.220
822,63757.248000,100.344,116.364,-163.089,-32.129,-232.427,-413.157,-2857.500,1564.760,-478.220
823,63757.275000,133.629,143.684,-178.903,-71.402,-215.625,-413.466,-2987.500,1263.760,-432.220
824,63757.290000,137.545,178.087,-192.741,-92.030,-208.667,-412.125,-3099.500,873.760,-402.220
825,63757.313000,121.881,213.502,-223.382,-131.432,-198.647,-401.595,-3144.500,618.760,-379.220
826,63757.335000,90.554,230.704,-264.896,-158.988,-188.728,-397.181,-3053.500,683.760,-391.220
827,63757.355000,85.660,240.822,-281.699,-191.644,-180.711,-379.877,-2929.500,982.760,-390.220
828,63757.370000,90.554,252.964,-304.432,-228.164,-162.978,-370.392,-2802.500,1287.760,-426.220
829,63757.393000,107.197,263.083,-333.097,-242.107,-155.124,-360.310,-2730.500,1345.760,-471.220
830,63757.415000,125.797,266.119,-364.726,-275.767,-146.132,-342.004,-2545.500,1170.760,-471.220
831,63757.437000,138.524,252.964,-410.193,-289.691,-144.084,-329.947,-2288.500,775.760,-471.220
832,63757.454000,121.881,256.000,-464.556,-304.646,-142.031,-314.918,-1922.500,452.760,-456.220
833,63757.476000,124.818,265.107,-480.371,-313.618,-139.056,-306.887,-1393.500,415.760,-435.220
834,63757.499000,126.776,267.130,-480.371,-317.670,-137.093,-299.927,-700.500,404.760,-321.220
835,63757.517000,132.650,263.083,-480.371,-316.632,-136.130,-303.884,49.500,367.760,-51.220
836,63757.539000,156.145,260.047,-480.371,-312.666,-134.227,-307.894,764.500,57.760,275.780
837,63757.559000,159.082,256.000,-480.371,-294.838,-131.471,-321.995,1380.500,-302.240,494.780
838,63757.577000,141.461,259.036,-479.382,-292.707,-133.415,-330.891,1642.500,-386.240,572.780
839,63757.594000,135.587,256.000,-435.892,-266.955,-133.629,-349.066,2034.500,-420.240,652.780
840,63757.616000,124.818,246.893,-401.297,-257.976,-131.764,-360.056,2335.500,-426.240,728.780
841,63757.639000,160.061,228.680,-341.992,-231.166,-136.821,-380.214,2537.500,-546.240,748.780
842,63757.667000,156.145,226.656,-325.189,-210.322,-144.735,-393.371,2661.500,-917.240,651.780
843,63757.695000,133.629,219.573,-315.305,-173.865,-153.761,-403.850,2781.500,-1154.240,531.780
844,63757.709000,139.503,210.466,-290.595,-135.397,-166.673,-415.345,2925.500,-969.240,530.780
845,63757.727000,156.145,196.300,-270.826,-117.662,-170.698,-420.576,2978.500,-883.240,572.780
846,63757.749000,145.377,182.134,-243.151,-79.263,-189.422,-425.171,3027.500,-1011.240,608.780
847,63757.770000,128.734,183.146,-196.695,-50.728,-201.286,-428.616,3059.500,-1211.240,647.780
848,63757.790000,97.407,162.909,-163.089,-9.583,-220.047,-422.430,3108.500,-1288.240,814.780
849,63757.808000,80.765,136.601,-135.413,3.192,-233.710,-418.703,3137.500,-1222.240,962.780
850,63757.829000,72.933,96.126,-118.610,44.233,-252.477,-406.609,3072.500,-1093.240,1029.780
851,63757.850000,59.228,75.889,-95.876,79.368,-269.257,-393.428,2957.500,-1053.240,983.780
852,63757.869000,34.753,61.723,-72.154,93.996,-281.008,-384.813,2862.500,-994.240,948.780
853,63757.884000,11.258,49.581,-43.490,122.177,-293.860,-367.577,2829.500,-793.240,922.780
854,63757.912000,-20.069,8.095,2.965,139.801,-306.602,-361.967,2784.500,-315.240,888.780
855,63757.921000,-29.859,-67.794,33.606,164.021,-304.903,-349.600,2649.500,-42.240,770.780
856,63757.943000,-23.985,-128.506,37.560,167.875,-307.845,-344.742,2148.500,241.760,649.780
857,63757.970000,-18.111,-145.708,37.560,183.437,-310.897,-338.123,1561.500,26.760,376.780
858,63757.988000,-37.690,-128.506,57.328,197.060,-321.672,-328.507,1030.500,-299.240,177.780
859,63758.10000,-63.143,-113.328,77.097,197.000,-322.644,-324.567,585.500,-420.240,78.780
860,63758.28000,-65.101,-118.387,81.050,200.890,-329.456,-319.705,158.500,-311.240,15.780
861,63758.57000,-63.143,-115.352,76.108,207.748,-328.550,-320.812,-261.500,-185.240,-85.220
862,63758.82000,-65.101,-113.328,67.212,194.074,-325.520,-323.527,-663.500,-12.240,-211.220
863,63758.119000,-61.185,-113.328,59.305,188.254,-321.592,-328.351,-1057.500,183.760,-344.220
864,63758.119000,-54.333,-103.209,50.409,179.576,-314.730,-339.034,-1252.500,260.760,-407.220
865,63758.140000,-36.711,-81.960,41.514,173.799,-309.832,-346.814,-1635.500,369.760,-519.220
866,63758.158000,-13.216,-53.628,28.664,160.287,-300.017,-362.337,-1993.500,448.760,-620.220
867,63758.180000,7.342,-25.296,-3.954,131.016,-286.195,-373.649,-2316.500,464.760,-681.220
868,63758.193000,12.237,-8.095,-46.456,110.605,-282.129,-383.137,-2549.500,496.760,-703.220
869,63758.215000,15.174,20.237,-70.178,83.367,-265.416,-400.395,-2685.500,845.760,-772.220
870,63758.243000,23.985,58.688,-80.062,64.807,-249.759,-409.929,-2758.500,1522.760,-908.220
871,63758.265000,59.228,82.972,-116.633,30.638,-218.470,-430.035,-2908.500,2053.760,-1053.220
872,63758.275000,126.776,107.257,-160.124,11.973,-198.947,-435.634,-3053.500,2102.760,-1191.220
873,63758.297000,163.977,145.708,-164.077,-25.321,-169.578,-443.869,-3095.500,1822.760,-1217.220
874,63758.313000,162.998,185.170,-162.100,-75.446,-146.875,-442.024,-3220.500,1460.760,-1214.220
875,63758.335000,186.493,213.502,-199.660,-101.997,-139.867,-437.625,-3348.500,1230.760,-1149.220
876,63758.363000,189.430,228.680,-259.954,-147.340,-125.926,-425.026,-3341.500,857.760,-1088.220
877,63758.385000,161.040,237.787,-272.803,-163.109,-122.886,-419.828,-3177.500,918.760,-1009.220
878,63758.389000,158.103,253.976,-284.664,-204.617,-106.081,-404.346,-3024.500,1293.760,-1001.220
879,63758.419000,177.683,271.178,-303.444,-223.443,-101.086,-393.190,-2857.500,1414.760,-972.220
880,63758.446000,204.115,264.095,-330.131,-257.112,-91.127,-374.886,-2700.500,1091.760,-905.220
881,63758.467000,195.304,260.047,-363.737,-272.163,-82.303,-357.894,-2588.500,922.760,-900.220
882,63758.492000,165.935,280.285,-380.541,-296.843,-79.189,-346.632,-2259.500,917.760,-837.220
883,63758.520000,158.103,265.107,-396.355,-313.826,-69.379,-331.576,-1791.500,1362.760,-651.220
884,63758.534000,203.136,236.775,-421.066,-317.931,-63.547,-323.635,-1376.500,1501.760,-504.220
885,63758.548000,234.463,237.787,-428.973,-324.012,-55.762,-315.661,-954.500,1130.760,-385.220
886,63758.569000,247.189,221.597,-479.382,-335.762,-56.623,-314.468,-467.500,557.760,-309.220
887,63758.582000,248.168,224.632,-480.371,-331.823,-55.690,-316.507,88.500,205.760,-138.220
888,63758.604000,232.505,250.941,-480.371,-326.870,-52.827,-321.520,709.500,87.760,183.780
889,63758.625000,254.042,264.095,-460.602,-315.009,-45.184,-332.568,1297.500,-82.240,580.780
890,63758.648000,274.600,268.142,-417.112,-296.115,-44.368,-350.624,1533.500,-292.240,748.780
891,63758.673000,263.832,258.024,-403.274,-286.121,-50.252,-359.654,1908.500,-758.240,966.780
892,63758.688000,235.442,254.988,-377.575,-253.450,-50.525,-381.889,2221.500,-963.240,1047.780
893,63758.721000,230.547,249.929,-358.795,-235.655,-53.578,-391.061,2483.500,-972.240,1001.780
894,63758.735000,232.505,265.107,-341.992,-209.815,-57.659,-412.187,2736.500,-985.240,946.780
895,63758.752000,220.757,276.237,-303.444,-182.148,-62.732,-425.468,2960.500,-954.240,1087.780
896,63758.777000,230.547,263.083,-275.768,-142.616,-75.649,-441.904,3088.500,-1165.240,1302.780
897,63758.794000,230.547,260.047,-241.174,-100.207,-95.371,-451.491,3161.500,-1546.240,1411.780
898,63758.817000,201.178,251.953,-212.510,-79.465,-111.033,-454.793,3248.500,-1659.240,1433.780
899,63758.849000,160.061,226.656,-190.764,-30.318,-133.727,-456.620,3294.500,-1580.240,1460.780
900,63758.878000,134.608,206.419,-158.147,-6.789,-140.714,-456.044,3357.500,-1330.240,1561.780
901,63758.880000,133.629,174.040,-123.552,40.245,-163.399,-448.974,3296.500,-1298.240,1666.780
902,63758.902000,121.881,144.696,-97.853,62.859,-182.955,-445.413,3187.500,-1507.240,1728.780
903,63758.924000,100.344,114.340,-64.247,95.044,-213.260,-424.289,3003.500,-1666.240,1730.780
904,63758.942000,53.354,62.735,-33.606,103.820,-228.828,-414.582,2642.500,-1636.240,1532.780
905,63758.964000,11.258,-37.439,-52.386,127.189,-256.149,-394.290,2211.500,-1529.240,1146.780
906,63758.984000,-10.279,-21.249,-26.687,148.567,-283.455,-371.994,1948.500,-1328.240,768.780
907,63759.2000,-37.690,-13.154,14.826,159.307,-292.265,-366.267,1876.500,-1136.240,659.780
908,63759.19000,-62.164,-43.510,56.340,175.728,-303.076,-348.824,1743.500,-528.240,578.780
909,63759.45000,-62.164,-82.972,69.189,184.516,-301.221,-348.982,1492.500,-1.240,537.780
910,63759.63000,-44.543,-112.316,85.004,192.362,-303.227,-349.119,1104.500,303.760,474.780
911,63759.88000,-35.732,-137.613,97.853,203.048,-302.361,-345.371,618.500,156.760,281.780
912,63759.105000,-43.564,-144.696,85.004,200.087,-305.240,-342.362,31.500,-260.240,58.780
913,63759.122000,-60.207,-122.435,77.097,187.325,-311.902,-336.221,-492.500,-502.240,-114.220
914,63759.143000,-72.933,-111.304,83.027,185.402,-311.882,-338.156,-911.500,-546.240,-197.220
915,63759.160000,-76.849,-105.233,74.131,167.868,-314.621,-340.796,-1289.500,-413.240,-277.220
916,63759.183000,-74.891,-87.020,48.432,170.847,-315.613,-342.817,-1468.500,-283.240,-338.220
917,63759.205000,-57.270,-63.747,26.687,144.591,-308.588,-355.158,-1778.500,93.760,-495.220
918,63759.228000,-32.795,-38.451,0.988,133.886,-301.712,-361.868,-2053.500,508.760,-645.220
919,63759.253000,-8.321,-12.142,-19.768,113.515,-285.061,-380.232,-2310.500,860.760,-782.220
920,63759.275000,32.795,17.202,-48.432,102.931,-276.242,-394.822,-2559.500,1195.760,-876.220
921,63759.313000,72.933,52.617,-92.911,70.686,-248.844,-411.019,-2750.500,1234.760,-1007.220
922,63759.327000,93.491,79.937,-135.413,39.378,-228.233,-421.318,-2854.500,1086.760,-1038.220
923,63759.327000,90.554,97.138,-161.112,12.956,-218.314,-425.785,-2899.500,1162.760,-966.220
924,63759.349000,110.134,127.494,-177.915,-23.254,-194.755,-436.985,-2938.500,1315.760,-952.220
925,63759.358000,141.461,162.909,-195.707,-41.943,-183.945,-436.667,-2951.500,1559.760,-952.220
926,63759.399000,160.061,164.933,-228.324,-87.195,-155.480,-436.884,-2996.500,1514.760,-952.220
927,63759.414000,173.767,174.040,-255.012,-103.934,-149.527,-433.642,-3054.500,1374.760,-1014.220
928,63759.432000,165.935,215.526,-263.907,-143.346,-132.732,-426.073,-3039.500,1366.760,-1083.220
929,63759.449000,164.956,243.858,-262.919,-182.872,-111.104,-414.570,-2909.500,1638.760,-971.220
930,63759.472000,225.652,225.644,-288.618,-197.785,-104.209,-404.469,-2866.500,1369.760,-838.220
931,63759.489000,236.421,226.656,-328.154,-233.418,-101.008,-382.185,-2919.500,408.760,-903.220
932,63759.507000,161.040,261.059,-355.830,-254.130,-103.734,-370.986,-2760.500,-33.240,-921.220
933,63759.528000,110.134,267.130,-392.402,-280.912,-105.450,-348.852,-2554.500,146.760,-852.220
934,63759.554000,131.671,251.953,-422.054,-298.690,-102.395,-340.666,-2095.500,860.760,-676.220
935,63759.563000,176.704,219.573,-480.371,-315.611,-99.356,-325.603,-1700.500,830.760,-636.220
936,63759.595000,189.430,220.585,-480.371,-321.620,-97.375,-318.608,-1243.500,250.760,-641.220
937,63759.610000,162.998,261.059,-480.371,-321.661,-106.088,-311.706,-580.500,-85.240,-521.220
938,63759.633000,142.440,307.605,-480.371,-320.623,-103.190,-316.650,248.500,209.760,-169.220
939,63759.655000,173.767,296.474,-480.371,-311.705,-100.360,-324.687,1000.500,425.760,239.780
940,63759.675000,212.925,256.000,-469.498,-295.825,-98.554,-338.752,1501.500,-50.240,504.780
941,63759.705000,206.073,242.846,-426.008,-283.001,-94.792,-346.859,1837.500,-758.240,612.780
942,63759.723000,172.788,250.941,-388.448,-266.988,-105.562,-361.896,1996.500,-940.240,648.780
943,63759.742000,157.124,254.988,-363.737,-242.292,-106.739,-375.130,2310.500,-963.240,679.780
944,63759.767000,149.293,264.095,-319.259,-213.516,-114.718,-394.334,2609.500,-702.240,711.780
945,63759.789000,171.809,242.846,-284.664,-186.810,-117.845,-409.570,2807.500,-623.240,826.780
946,63759.807000,191.388,228.680,-253.035,-166.027,-124.794,-419.774,2870.500,-936.240,920.780
947,63759.822000,174.746,217.549,-227.336,-127.532,-142.545,-430.279,2875.500,-1285.240,923.780
948,63759.839000,149.293,203.383,-212.510,-110.749,-151.399,-434.503,2879.500,-1344.240,918.780
949,63759.867000,127.755,181.123,-206.579,-74.376,-170.109,-435.125,2884.500,-1196.240,921.780
950,63759.894000,125.797,155.826,-179.892,-41.910,-180.071,-440.610,2873.500,-1068.240,904.780
951,63759.907000,111.113,136.601,-161.112,-5.667,-197.821,-434.339,2857.500,-1055.240,914.780
952,63759.924000,109.155,110.292,-145.297,27.631,-210.704,-429.991,2794.500,-1068.240,954.780
953,63759.947000,80.765,99.162,-127.506,51.214,-227.367,-427.435,2763.500,-1044.240,1015.780
954,63759.969000,56.291,71.842,-104.772,74.624,-240.167,-417.005,2693.500,-808.240,1085.780
955,63759.989000,56.291,36.427,-92.911,91.138,-246.133,-407.446,2535.500,-733.240,1085.780
956,63760.12000,51.396,11.130,-78.085,114.541,-265.709,-393.070,2334.500,-844.240,1043.780
957,63760.35000,34.753,-8.095,-53.375,124.320,-278.381,-386.338,2124.500,-886.240,987.780
958,63760.42000,-5.384,-29.344,-28.664,146.639,-292.147,-368.996,1894.500,-699.240,845.780
959,63760.67000,-46.501,-67.794,-10.873,151.462,-294.131,-364.157,1743.500,-543.240,614.780
960,63760.94000,-59.228,-117.375,-1.977,162.175,-300.039,-358.433,1347.500,-288.240,459.780
961,63760.117000,-52.375,-139.636,-1.977,168.931,-306.882,-349.684,912.500,-179.240,180.780
962,63760.134000,-50.417,-127.494,19.768,177.659,-304.063,-346.889,516.500,-121.240,-5.220
963,63760.150000,-52.375,-108.269,39.537,180.656,-308.925,-347.920,151.500,-76.240,-73.220
964,63760.172000,-49.438,-111.304,52.386,173.799,-309.832,-346.814,-198.500,-72.240,-113.220
965,63760.189000,-48.459,-116.364,50.409,173.860,-312.732,-348.780,-567.500,-52.240,-196.220
966,63760.212000,-46.501,-112.316,38.548,166.029,-302.982,-353.575,-925.500,-6.240,-281.220
967,63760.232000,-28.880,-112.316,30.641,157.292,-302.898,-357.359,-1311.500,36.760,-384.220
968,63760.254000,-16.153,-100.174,27.676,139.747,-294.991,-364.933,-1516.500,65.760,-446.220
969,63760.272000,11.258,-55.652,-2.965,132.031,-295.881,-370.702,-1924.500,181.760,-546.220
970,63760.299000,22.027,-19.225,-32.618,103.739,-284.003,-381.045,-2252.500,215.760,-613.220
971,63760.317000,19.090,10.119,-59.305,88.220,-279.982,-390.619,-2429.500,269.760,-628.220
972,63760.333000,14.195,45.534,-83.027,59.840,-266.173,-397.024,-2500.500,718.760,-620.220
973,63760.354000,42.585,79.937,-104.772,45.263,-252.483,-409.580,-2530.500,1502.760,-658.220
974,63760.368000,105.239,99.162,-143.320,10.039,-222.158,-424.744,-2554.500,2022.760,-631.220
975,63760.397000,148.314,121.423,-157.158,-1.724,-206.566,-431.445,-2594.500,1811.760,-619.220
976,63760.409000,143.419,143.684,-166.054,-45.857,-183.909,-436.598,-2684.500,1293.760,-617.220
977,63760.437000,117.966,167.968,-193.730,-83.279,-161.323,-433.993,-2738.500,1184.760,-634.220
978,63760.464000,127.755,188.206,-219.429,-101.969,-148.577,-434.662,-2847.500,1458.760,-710.220
979,63760.492000,170.830,201.360,-232.278,-140.412,-126.952,-429.085,-2947.500,1599.760,-846.220
980,63760.505000,165.935,215.526,-253.035,-160.183,-120.010,-420.867,-3020.500,1262.760,-952.220
981,63760.524000,145.377,229.692,-284.664,-199.680,-110.963,-404.428,-3064.500,962.760,-1007.220
982,63760.547000,132.650,259.036,-319.259,-226.403,-103.964,-390.181,-3008.500,1093.760,-1076.220
983,63760.567000,160.061,265.107,-347.923,-252.218,-95.043,-372.999,-2820.500,1321.760,-1087.220
984,63760.587000,186.493,248.917,-392.402,-289.800,-90.856,-351.665,-2564.500,976.760,-1071.220
985,63760.609000,189.430,246.893,-436.880,-301.758,-91.729,-338.655,-2424.500,732.760,-1062.220
986,63760.628000,165.935,230.704,-480.371,-318.659,-98.368,-319.644,-2077.500,116.760,-982.220
987,63760.650000,188.451,253.976,-480.371,-323.689,-102.203,-309.706,-1482.500,79.760,-828.220
988,63760.670000,203.136,308.617,-480.371,-322.709,-108.019,-306.763,-680.500,190.760,-593.220
989,63760.696000,198.241,306.593,-480.371,-326.624,-102.176,-309.654,205.500,319.760,-120.220
990,63760.713000,222.715,275.225,-480.371,-315.723,-100.331,-318.709,944.500,344.760,430.780
991,63760.740000,235.442,243.858,-441.822,-309.576,-96.497,-336.542,1418.500,-267.240,741.780
992,63760.750000,200.199,227.668,-405.251,-291.885,-95.685,-341.778,1724.500,-1012.240,793.780
993,63760.773000,150.272,233.739,-377.575,-269.006,-104.579,-358.908,2016.500,-1205.240,799.780
994,63760.821000,143.419,248.917,-348.911,-263.861,-111.385,-369.820,2168.500,-1114.240,788.780
995,63760.821000,145.377,251.953,-313.328,-235.181,-116.465,-385.089,2440.500,-908.240,777.780
996,63760.835000,171.809,226.656,-308.386,-210.545,-118.614,-394.382,2578.500,-879.240,758.780
997,63760.858000,178.662,220.585,-297.514,-177.896,-133.406,-407.740,2651.500,-1210.240,647.780
998,63760.878000,150.272,230.704,-276.757,-161.043,-144.192,-414.917,2747.500,-1361.240,583.780
999,63760.900000,134.608,229.692,-255.012,-117.656,-161.987,-425.509,2900.500,-1193.240,655.780
1000,63760.918000,133.629,212.490,-222.394,-76.339,-176.867,-431.144,3018.500,-1021.240,840.780
