Sample, Time, ACCX, ACCY, ACCZ, MAGX, MAGY, MAGZ, GYRX, GYRY, GYRZ
0,63616.919000,-46.501,-25.296,-238.208,52.325,-368.746,-305.217,-5.500,-12.240,-0.220
1,63616.941000,-48.459,-26.308,-238.208,55.210,-372.647,-300.341,-4.500,8.760,4.780
2,63616.974000,-44.543,-27.320,-239.197,56.196,-369.752,-302.331,-6.500,-9.240,4.780
3,63616.992000,-44.543,-25.296,-238.208,58.154,-373.642,-300.392,-5.500,-43.240,5.780
4,63617.11000,-48.459,-26.308,-240.185,56.188,-370.721,-301.345,-3.500,-35.240,5.780
5,63617.26000,-51.396,-25.296,-240.185,57.166,-370.729,-301.363,0.500,12.760,3.780
6,63617.52000,-47.480,-28.332,-242.162,52.247,-369.719,-300.292,0.500,30.760,4.780
7,63617.59000,-44.543,-26.308,-240.185,58.171,-371.705,-302.364,-7.500,-7.240,-4.220
8,63617.80000,-46.501,-26.308,-242.162,58.136,-369.771,-301.381,-9.500,-24.240,-7.220
9,63617.109000,-49.438,-24.285,-243.151,54.300,-372.635,-304.263,-0.500,-3.240,-4.220
10,63617.126000,-46.501,-28.332,-243.151,57.210,-371.695,-303.331,6.500,17.760,-1.220
11,63617.146000,-43.564,-26.308,-242.162,58.153,-371.706,-301.379,8.500,16.760,-3.220
12,63617.166000,-44.543,-25.296,-242.162,52.308,-368.747,-304.232,5.500,-5.240,-4.220
13,63617.189000,-46.501,-25.296,-240.185,54.204,-367.801,-301.314,1.500,-15.240,-4.220
14,63617.209000,-47.480,-25.296,-239.197,57.166,-368.794,-302.349,4.500,-5.240,-0.220
15,63617.231000,-43.564,-26.308,-239.197,57.175,-373.633,-300.375,7.500,8.760,-1.220
16,63617.248000,-44.543,-27.320,-239.197,53.243,-367.791,-302.281,5.500,8.760,-2.220
17,63617.271000,-44.543,-27.320,-239.197,57.191,-367.824,-304.320,-1.500,2.760,-5.220
18,63617.288000,-46.501,-27.320,-240.185,54.256,-367.798,-304.268,-4.500,-15.240,-3.220
19,63617.311000,-45.522,-27.320,-239.197,59.131,-369.779,-302.383,-7.500,-3.240,-2.220
20,63617.334000,-44.543,-28.332,-240.185,54.230,-368.767,-302.298,-8.500,1.760,-0.220
21,63617.350000,-46.501,-27.320,-240.185,51.365,-372.608,-304.211,-10.500,-6.240,-4.220
22,63617.379000,-44.543,-27.320,-239.197,55.192,-370.713,-300.343,-9.500,-4.240,-5.220
23,63617.387000,-44.543,-26.308,-241.174,54.203,-365.865,-302.300,-10.500,-2.240,-4.220
24,63617.412000,-45.522,-25.296,-241.174,54.213,-368.768,-301.313,-10.500,-8.240,-2.220
25,63617.435000,-45.522,-27.320,-242.162,56.231,-369.750,-304.301,-7.500,-16.240,0.780
26,63617.472000,-46.501,-27.320,-244.139,59.149,-369.778,-303.368,-3.500,-11.240,0.780
27,63617.486000,-47.480,-26.308,-244.139,60.118,-368.819,-303.386,0.500,-6.240,-0.220
28,63617.514000,-46.501,-26.308,-243.151,52.282,-369.717,-302.262,6.500,1.760,-0.220
29,63617.514000,-47.480,-27.320,-242.162,55.209,-370.712,-301.328,15.500,8.760,1.780
30,63617.536000,-44.543,-26.308,-241.174,58.153,-367.834,-303.352,16.500,9.760,3.780
31,63617.554000,-43.564,-27.320,-239.197,52.299,-367.780,-304.233,13.500,-2.240,3.780
32,63617.576000,-46.501,-29.344,-238.208,64.007,-369.824,-301.485,0.500,-32.240,3.780
33,63617.598000,-49.438,-27.320,-239.197,55.218,-369.743,-302.314,-4.500,-25.240,0.780
34,63617.621000,-46.501,-27.320,-239.197,60.093,-371.725,-300.429,-3.500,7.760,-6.220
35,63617.639000,-42.585,-27.320,-237.220,56.179,-371.689,-300.360,-2.500,10.760,-7.220
36,63617.661000,-44.543,-24.285,-236.232,54.221,-367.800,-302.298,-5.500,-11.240,-0.220
37,63617.684000,-45.522,-27.320,-237.220,62.050,-369.807,-301.450,-3.500,-17.240,11.780
38,63617.706000,-45.522,-27.320,-239.197,59.106,-370.748,-300.413,-13.500,-13.240,8.780
39,63617.727000,-46.501,-26.308,-239.197,56.179,-369.753,-301.346,-15.500,-10.240,3.780
40,63617.748000,-48.459,-24.285,-240.185,60.110,-371.724,-301.414,-15.500,-1.240,3.780
41,63617.770000,-45.522,-25.296,-240.185,54.161,-368.771,-298.358,-10.500,17.760,8.780
42,63617.787000,-44.543,-27.320,-241.174,49.372,-368.721,-304.181,-8.500,19.760,16.780
43,63617.810000,-46.501,-27.320,-244.139,52.334,-371.649,-304.229,-10.500,10.760,16.780
44,63617.842000,-45.522,-28.332,-242.162,55.244,-370.710,-303.298,-12.500,10.760,7.780
45,63617.861000,-45.522,-26.308,-243.151,56.196,-369.752,-302.331,-9.500,11.760,1.780
46,63617.861000,-47.480,-27.320,-243.151,54.247,-368.766,-303.282,-4.500,18.760,-2.220
47,63617.882000,-45.522,-24.285,-242.162,54.265,-368.765,-304.267,-5.500,12.760,-2.220
48,63617.906000,-44.543,-26.308,-244.139,52.255,-366.814,-302.265,-5.500,1.760,-4.220
49,63617.926000,-47.480,-25.296,-242.162,55.261,-368.773,-305.269,-3.500,-14.240,-4.220
50,63617.948000,-46.501,-25.296,-244.139,56.204,-368.784,-303.317,4.500,-0.240,-2.220
51,63617.966000,-46.501,-25.296,-243.151,53.278,-369.725,-303.264,10.500,8.760,0.780
52,63617.989000,-45.522,-25.296,-241.174,49.381,-369.688,-304.180,9.500,-1.240,-1.220
53,63618.11000,-46.501,-23.273,-241.174,51.320,-367.771,-304.216,9.500,-6.240,-6.220
54,63618.31000,-47.480,-24.285,-241.174,52.273,-368.749,-302.263,14.500,9.760,-6.220
55,63618.54000,-45.522,-25.296,-240.185,56.231,-369.750,-304.301,16.500,22.760,-6.220
56,63618.76000,-43.564,-26.308,-240.185,56.213,-369.751,-303.316,14.500,7.760,-3.220
57,63618.101000,-43.564,-27.320,-239.197,57.175,-369.761,-302.348,7.500,-0.240,-3.220
58,63618.125000,-44.543,-27.320,-238.208,54.274,-371.668,-303.279,1.500,-14.240,-3.220
59,63618.137000,-45.522,-27.320,-239.197,62.093,-370.772,-303.419,-6.500,-15.240,-5.220
60,63618.165000,-45.522,-27.320,-240.185,60.161,-367.849,-306.341,-5.500,-8.240,-10.220
61,63618.171000,-46.501,-26.308,-239.197,57.235,-368.790,-306.288,-6.500,2.760,-11.220
62,63618.185000,-44.543,-25.296,-240.185,54.230,-366.831,-303.284,-7.500,2.760,-7.220
63,63618.217000,-41.606,-27.320,-240.185,54.239,-367.799,-303.283,-11.500,-17.240,-4.220
64,63618.235000,-43.564,-26.308,-241.174,49.355,-368.722,-303.196,-13.500,-30.240,-6.220
65,63618.257000,-47.480,-25.296,-243.151,54.256,-369.733,-303.281,-4.500,-3.240,-7.220
66,63618.280000,-47.480,-24.285,-241.174,55.208,-366.840,-303.302,-1.500,15.760,-6.220
67,63618.302000,-43.564,-26.308,-242.162,57.218,-370.727,-304.317,1.500,18.760,-4.220
68,63618.320000,-41.606,-27.320,-241.174,59.210,-370.742,-306.321,-7.500,-12.240,-3.220
69,63618.342000,-43.564,-27.320,-244.139,52.369,-371.648,-306.199,-11.500,-32.240,-6.220
70,63618.369000,-47.480,-24.285,-244.139,54.291,-369.731,-305.251,2.500,-16.240,-10.220
71,63618.382000,-47.480,-26.308,-243.151,60.135,-366.883,-305.358,13.500,14.760,-2.220
72,63618.405000,-44.543,-25.296,-241.174,60.161,-365.913,-307.328,21.500,25.760,6.780
73,63618.427000,-40.627,-26.308,-240.185,61.115,-370.763,-303.401,9.500,-24.240,6.780
74,63618.450000,-41.606,-27.320,-239.197,62.093,-370.772,-303.419,-2.500,-53.240,-2.220
75,63618.467000,-47.480,-26.308,-238.208,61.097,-368.828,-303.403,-4.500,-32.240,-8.220
76,63618.485000,-43.564,-27.320,-238.208,55.243,-366.838,-305.271,-0.500,14.760,-8.220
77,63618.512000,-40.627,-27.320,-239.197,58.179,-368.801,-304.336,-3.500,13.760,-6.220
78,63618.521000,-43.564,-28.332,-239.197,55.174,-368.778,-300.345,-9.500,-21.240,-6.220
79,63618.544000,-47.480,-25.296,-240.185,58.145,-370.738,-301.380,-12.500,-35.240,-8.220
80,63618.572000,-45.522,-27.320,-241.174,57.183,-368.793,-303.334,-8.500,4.760,-4.220
81,63618.598000,-42.585,-26.308,-238.208,51.399,-372.606,-306.181,-9.500,22.760,-4.220
82,63618.612000,-41.606,-27.320,-240.185,61.071,-367.862,-302.420,-14.500,-9.240,-1.220
83,63618.640000,-45.522,-26.308,-240.185,59.158,-370.745,-303.367,-15.500,-22.240,-1.220
84,63618.654000,-46.501,-27.320,-242.162,57.201,-370.728,-303.332,-13.500,-22.240,0.780
85,63618.676000,-45.522,-26.308,-242.162,53.312,-369.723,-305.234,-12.500,-6.240,0.780
86,63618.700000,-46.501,-26.308,-241.174,58.126,-364.932,-303.355,-12.500,-12.240,-0.220
87,63618.722000,224.673,361.233,-245.127,51.448,-360.988,-315.055,-420.500,646.760,-274.220
88,63618.742000,34.753,-211.478,-221.405,37.675,-375.387,-302.981,-486.500,-2012.240,1627.780
89,63618.762000,-302.011,-78.925,-272.803,41.315,-387.053,-281.374,-150.500,-1697.240,-431.220
90,63618.780000,-218.799,23.273,-281.699,49.263,-379.374,-292.353,354.500,1333.760,-428.220
91,63618.802000,84.681,-171.004,-217.452,52.477,-353.251,-321.974,318.500,2574.760,230.780
92,63618.819000,145.377,62.735,-210.533,47.652,-347.396,-328.786,-284.500,165.760,-331.220
93,63618.846000,-5.384,45.534,-273.792,45.542,-359.001,-313.969,-193.500,-942.240,-345.220
94,63618.855000,-109.155,-54.640,-291.583,46.446,-371.597,-303.141,-71.500,-1392.240,-4.220
95,63618.877000,-94.470,-7.083,-274.780,53.235,-370.695,-300.309,-61.500,-304.240,10.780
96,63618.897000,-34.753,-7.083,-256.988,53.321,-368.754,-306.219,108.500,309.760,78.780
97,63618.920000,-27.901,-25.296,-253.035,52.325,-368.746,-305.217,131.500,173.760,63.780
98,63618.938000,-28.880,-18.213,-250.069,46.471,-368.692,-306.098,123.500,77.760,34.780
99,63618.960000,-25.943,-23.273,-244.139,46.506,-368.690,-308.068,111.500,-29.240,84.780
100,63618.997000,-38.669,-26.308,-237.220,48.419,-367.742,-306.134,102.500,-150.240,105.780
101,63619.11000,-51.396,-27.320,-240.185,54.231,-370.703,-301.311,106.500,-163.240,82.780
102,63619.30000,-60.207,-29.344,-240.185,52.362,-376.487,-303.240,109.500,-100.240,66.780
103,63619.39000,-50.417,-29.344,-237.220,51.348,-372.609,-303.227,105.500,80.760,40.780
104,63619.61000,-38.669,-30.356,-234.255,51.320,-367.771,-304.216,74.500,84.760,18.780
105,63619.84000,-38.669,-28.332,-234.255,47.424,-369.670,-304.145,40.500,-23.240,4.780
106,63619.104000,-47.480,-27.320,-233.266,51.330,-370.674,-303.228,22.500,-77.240,3.780
107,63619.126000,-52.375,-25.296,-235.243,55.200,-369.744,-301.329,26.500,-1.240,10.780
108,63619.149000,-43.564,-27.320,-234.255,48.438,-373.549,-304.158,31.500,28.760,19.780
109,63619.165000,-41.606,-28.332,-235.243,49.408,-374.526,-303.190,17.500,-21.240,20.780
110,63619.186000,-44.543,-29.344,-235.243,52.283,-371.652,-301.275,5.500,-64.240,24.780
111,63619.209000,-50.417,-27.320,-238.208,55.192,-370.713,-300.343,-1.500,-59.240,21.780
112,63619.226000,-51.396,-26.308,-238.208,49.382,-371.624,-303.193,-1.500,-19.240,15.780
113,63619.254000,-49.438,-27.320,-238.208,52.317,-371.650,-303.245,0.500,-0.240,8.780
114,63619.274000,-48.459,-27.320,-239.197,53.331,-375.529,-303.258,0.500,13.760,9.780
115,63619.306000,-43.564,-27.320,-238.208,49.390,-368.720,-305.165,-3.500,-13.240,11.780
116,63619.320000,-44.543,-27.320,-238.208,54.266,-374.572,-301.307,-10.500,-55.240,12.780
117,63619.339000,-50.417,-26.308,-239.197,49.383,-375.495,-301.219,-8.500,-51.240,11.780
118,63619.356000,-51.396,-27.320,-240.185,49.339,-372.594,-300.238,-6.500,-14.240,9.780
119,63619.370000,-49.438,-26.308,-238.208,48.404,-375.486,-301.202,-9.500,-6.240,3.780
120,63619.388000,-46.501,-28.332,-239.197,50.353,-376.473,-300.251,-10.500,-20.240,2.780
121,63619.410000,-50.417,-28.332,-238.208,51.357,-375.512,-302.239,-12.500,-36.240,-2.220
122,63619.435000,-50.417,-27.320,-239.197,51.287,-371.645,-300.273,-14.500,-30.240,-5.220
123,63619.457000,-51.396,-27.320,-239.197,45.434,-373.526,-300.167,-20.500,-15.240,-10.220
124,63619.475000,-49.438,-27.320,-241.174,55.227,-372.647,-301.326,-29.500,-17.240,-19.220
125,63619.497000,-49.438,-25.296,-240.185,49.348,-375.497,-299.250,-27.500,-16.240,-28.220
126,63619.506000,-50.417,-23.273,-241.174,50.378,-373.567,-303.208,-16.500,0.760,-24.220
127,63619.539000,-48.459,-26.308,-240.185,55.288,-375.547,-303.293,-7.500,13.760,-12.220
128,63619.559000,-43.564,-26.308,-241.174,49.339,-372.594,-300.238,-6.500,-12.240,-5.220
129,63619.579000,-43.564,-26.308,-242.162,52.275,-374.557,-299.303,-7.500,-29.240,-3.220
130,63619.606000,-47.480,-25.296,-242.162,50.299,-370.668,-300.257,-9.500,-33.240,-8.220
131,63619.640000,-49.438,-26.308,-241.174,49.356,-374.529,-300.236,3.500,7.760,-9.220
132,63619.652000,-48.459,-25.296,-241.174,51.305,-373.579,-300.271,13.500,41.760,-3.220
133,63619.661000,-44.543,-27.320,-240.185,50.395,-373.566,-304.193,10.500,19.760,1.780
134,63619.684000,-43.564,-27.320,-239.197,49.329,-367.755,-302.212,4.500,-26.240,3.780
135,63619.706000,-47.480,-28.332,-240.185,47.382,-374.512,-299.216,0.500,-29.240,1.780
136,63619.729000,-51.396,-26.308,-240.185,53.244,-373.598,-299.321,5.500,2.760,-4.220
137,63619.751000,-50.417,-27.320,-240.185,52.275,-374.557,-299.303,7.500,14.760,-6.220
138,63619.771000,-47.480,-27.320,-238.208,47.391,-373.544,-300.202,6.500,18.760,-6.220
139,63619.792000,-48.459,-29.344,-242.162,48.395,-374.519,-301.203,2.500,10.760,-9.220
140,63619.801000,-47.480,-27.320,-241.174,50.327,-375.506,-299.267,-0.500,9.760,-16.220
141,63619.830000,-46.501,-28.332,-240.185,50.325,-369.699,-302.227,-0.500,4.760,-18.220
142,63619.844000,-45.522,-27.320,-240.185,51.330,-370.674,-303.228,-1.500,8.760,-17.220
143,63619.866000,-45.522,-26.308,-239.197,54.257,-371.669,-302.295,-4.500,-3.240,-12.220
144,63619.894000,-47.480,-27.320,-239.197,53.296,-373.595,-302.275,-0.500,-16.240,-7.220
145,63619.907000,-48.459,-26.308,-241.174,54.249,-376.509,-299.335,2.500,-11.240,-3.220
146,63619.950000,-47.480,-27.320,-240.185,45.477,-372.556,-303.123,2.500,-8.240,-0.220
147,63619.950000,-46.501,-27.320,-239.197,50.361,-373.568,-302.223,-1.500,-3.240,-1.220
148,63619.970000,-47.480,-28.332,-239.197,57.219,-376.534,-301.357,1.500,-0.240,0.780
149,63619.997000,-49.438,-28.332,-239.197,52.308,-370.683,-303.246,2.500,9.760,7.780
150,63620.22000,-45.522,-28.332,-239.197,52.318,-375.522,-301.271,6.500,37.760,15.780
151,63620.35000,-43.564,-29.344,-236.232,59.115,-373.651,-299.425,10.500,29.760,11.780
152,63620.57000,-45.522,-30.356,-240.185,47.407,-371.607,-302.173,3.500,-8.240,8.780
153,63620.80000,-46.501,-27.320,-238.208,49.364,-369.689,-303.195,-6.500,-13.240,8.780
154,63620.95000,-46.501,-27.320,-237.220,52.300,-373.587,-301.273,-18.500,-5.240,5.780
155,63620.120000,-48.459,-28.332,-241.174,53.269,-370.693,-302.278,-21.500,-10.240,-0.220
156,63620.135000,-47.480,-26.308,-243.151,53.278,-371.660,-302.277,-26.500,-8.240,-4.220
157,63620.162000,-47.480,-25.296,-240.185,49.364,-371.625,-302.208,-17.500,4.760,-3.220
158,63620.185000,-47.480,-26.308,-239.197,48.386,-371.616,-302.191,-12.500,7.760,-0.220
159,63620.200000,-47.480,-26.308,-239.197,56.153,-370.723,-299.376,-12.500,6.760,2.780
160,63620.232000,-46.501,-26.308,-241.174,52.283,-373.588,-300.289,-21.500,-6.240,-2.220
161,63620.251000,-49.438,-26.308,-242.162,48.386,-371.616,-302.191,-29.500,-15.240,-13.220
162,63620.274000,-49.438,-26.308,-241.174,51.365,-374.544,-303.225,-23.500,9.760,-15.220
163,63620.282000,-49.438,-25.296,-242.162,52.283,-373.588,-300.289,-11.500,32.760,-9.220
164,63620.305000,-45.522,-26.308,-241.174,47.407,-369.671,-303.160,-7.500,32.760,-6.220
165,63620.317000,-44.543,-26.308,-240.185,51.321,-369.707,-303.229,-8.500,4.760,-3.220
166,63620.349000,-47.480,-24.285,-240.185,52.370,-373.583,-305.212,-10.500,-12.240,-7.220
167,63620.367000,-50.417,-27.320,-242.162,53.365,-373.591,-306.214,-10.500,-0.240,-8.220
168,63620.386000,-47.480,-26.308,-241.174,49.391,-372.591,-303.192,-9.500,23.760,-12.220
169,63620.409000,-44.543,-25.296,-241.174,51.304,-369.708,-302.245,-9.500,11.760,-14.220
170,63620.426000,-46.501,-25.296,-241.174,45.433,-371.590,-301.154,-8.500,-7.240,-12.220
171,63620.451000,-47.480,-25.296,-241.174,52.299,-367.780,-304.233,-7.500,-0.240,-10.220
172,63620.464000,-47.480,-26.308,-240.185,52.334,-371.649,-304.229,-10.500,2.760,-10.220
173,63620.486000,-45.522,-26.308,-242.162,47.381,-370.641,-301.190,-9.500,5.760,-12.220
174,63620.514000,-46.501,-24.285,-240.185,50.404,-372.598,-305.179,-12.500,6.760,-17.220
175,63620.536000,-44.543,-27.320,-244.139,49.391,-372.591,-303.192,-11.500,2.760,-8.220
176,63620.557000,-45.522,-24.285,-242.162,50.360,-369.697,-304.197,-9.500,-10.240,-10.220
177,63620.570000,-45.522,-26.308,-244.139,53.365,-371.655,-307.201,-5.500,-17.240,-6.220
178,63620.587000,-47.480,-24.285,-243.151,53.322,-374.562,-303.259,-3.500,-12.240,-14.220
179,63620.610000,-46.501,-25.296,-242.162,54.264,-366.829,-305.254,-3.500,-9.240,-12.220
180,63620.637000,-48.459,-25.296,-241.174,45.433,-369.654,-302.141,-2.500,-8.240,-14.220
181,63620.652000,-45.522,-26.308,-241.174,48.377,-370.648,-302.192,-2.500,-4.240,-14.220
182,63620.675000,-46.501,-25.296,-240.185,56.248,-371.685,-304.299,-0.500,-7.240,-13.220
183,63620.697000,-46.501,-25.296,-239.197,55.244,-370.710,-303.298,2.500,-5.240,-12.220
184,63620.715000,-46.501,-26.308,-239.197,48.376,-368.713,-303.178,4.500,-0.240,-10.220
185,63620.737000,-43.564,-25.296,-238.208,48.369,-371.617,-301.206,-2.500,-4.240,-6.220
186,63620.760000,-42.585,-26.308,-237.220,51.382,-372.607,-305.196,-11.500,-19.240,-3.220
187,63620.782000,-44.543,-25.296,-237.220,50.368,-368.729,-305.183,-16.500,-24.240,1.780
188,63620.795000,-45.522,-26.308,-239.197,58.189,-373.640,-302.362,-17.500,-16.240,1.780
189,63620.809000,-47.480,-23.273,-237.220,55.262,-372.645,-303.296,-11.500,5.760,5.780
190,63620.822000,-44.543,-24.285,-237.220,52.378,-374.551,-305.211,-10.500,7.760,15.780
191,63620.855000,-45.522,-26.308,-240.185,45.441,-370.622,-302.140,-14.500,1.760,16.780
192,63620.877000,-45.522,-26.308,-240.185,46.411,-367.727,-303.145,-23.500,-12.240,10.780
193,63620.900000,-48.459,-25.296,-241.174,44.454,-369.645,-302.124,-25.500,-10.240,2.780
194,63620.917000,-51.396,-25.296,-244.139,50.308,-369.700,-301.243,-19.500,27.760,-6.220
195,63620.940000,-47.480,-24.285,-243.151,48.376,-368.713,-303.178,-12.500,41.760,-4.220
196,63620.960000,-45.522,-24.285,-241.174,50.395,-371.631,-305.180,-13.500,7.760,-1.220
197,63620.977000,-43.564,-25.296,-241.174,49.398,-369.687,-305.164,-14.500,-20.240,-2.220
198,63621.0,-49.438,-25.296,-242.162,47.363,-368.706,-301.192,-12.500,-11.240,-7.220
199,63621.22000,-50.417,-23.273,-241.174,46.446,-371.597,-303.141,-4.500,24.760,-8.220
200,63621.45000,-48.459,-24.285,-242.162,44.471,-367.709,-304.095,1.500,37.760,-7.220
201,63621.72000,-44.543,-23.273,-239.197,49.363,-367.753,-304.181,3.500,33.760,-7.220
202,63621.103000,-43.564,-23.273,-239.197,52.264,-367.782,-302.264,-3.500,-6.240,-2.220
203,63621.121000,-45.522,-23.273,-240.185,45.502,-369.650,-306.080,-9.500,-28.240,-7.220
204,63621.135000,-47.480,-23.273,-241.174,45.476,-368.684,-305.096,-10.500,-8.240,-11.220
205,63621.139000,-46.501,-23.273,-242.162,50.430,-373.565,-306.163,-5.500,9.760,-12.220
206,63621.159000,-44.543,-25.296,-243.151,51.382,-370.671,-306.183,-2.500,12.760,-11.220
207,63621.185000,-44.543,-22.261,-241.174,48.429,-370.646,-305.146,1.500,-1.240,-8.220
208,63621.202000,-46.501,-23.273,-242.162,47.416,-370.639,-303.159,9.500,-5.240,-5.220
209,63621.225000,-45.522,-25.296,-240.185,50.351,-368.729,-304.198,8.500,-1.240,-4.220
210,63621.245000,-44.543,-24.285,-238.208,45.441,-366.750,-304.113,8.500,3.760,-1.220
211,63621.267000,-44.543,-23.273,-238.208,50.359,-367.761,-305.184,1.500,-12.240,-3.220
212,63621.290000,-44.543,-24.285,-238.208,50.360,-369.697,-304.197,-5.500,-23.240,-4.220
213,63621.307000,-46.501,-25.296,-240.185,51.338,-367.770,-305.201,-11.500,-23.240,-6.220
214,63621.330000,-48.459,-25.296,-240.185,44.532,-370.609,-306.062,-10.500,-6.240,-9.220
215,63621.372000,-45.522,-25.296,-238.208,46.445,-367.726,-305.114,-9.500,7.760,-12.220
216,63621.392000,-44.543,-25.296,-238.208,48.411,-368.711,-305.148,-12.500,0.760,-15.220
217,63621.405000,-43.564,-25.296,-239.197,48.481,-372.578,-307.114,-20.500,-10.240,-13.220
218,63621.414000,-45.522,-24.285,-241.174,54.273,-367.797,-305.253,-22.500,-15.240,-13.220
219,63621.434000,-45.522,-23.273,-242.162,51.355,-367.769,-306.186,-23.500,-11.240,-13.220
220,63621.451000,-44.543,-24.285,-242.162,53.287,-370.692,-303.263,-20.500,-7.240,-12.220
221,63621.467000,-44.543,-23.273,-240.185,45.449,-367.718,-304.112,-16.500,1.760,-14.220
222,63621.486000,-45.522,-22.261,-242.162,43.501,-366.731,-305.063,-11.500,2.760,-7.220
223,63621.514000,-43.564,-24.285,-241.174,43.510,-369.635,-304.076,-6.500,6.760,1.780
224,63621.536000,-43.564,-25.296,-240.185,50.324,-365.827,-304.201,-8.500,-11.240,3.780
225,63621.554000,-46.501,-24.285,-243.151,50.342,-367.762,-304.199,-15.500,-34.240,0.780
226,63621.571000,-47.480,-23.273,-242.162,48.394,-370.647,-303.177,-10.500,-21.240,-7.220
227,63621.594000,-47.480,-23.273,-242.162,45.476,-368.684,-305.096,-7.500,-0.240,-8.220
228,63621.616000,-42.585,-23.273,-242.162,48.428,-368.710,-306.133,-0.500,17.760,-2.220
229,63621.644000,-43.564,-24.285,-239.197,51.329,-366.803,-305.202,-5.500,-7.240,-2.220
230,63621.667000,-46.501,-23.273,-240.185,53.278,-369.725,-303.264,-7.500,-19.240,-1.220
231,63621.674000,-47.480,-22.261,-241.174,49.390,-370.655,-304.179,-4.500,0.760,-0.220
232,63621.701000,-45.522,-22.261,-239.197,52.325,-368.746,-305.217,-0.500,29.760,0.780
233,63621.739000,-43.564,-23.273,-239.197,47.424,-367.734,-305.132,0.500,30.760,6.780
234,63621.757000,-40.627,-24.285,-238.208,44.541,-371.576,-306.061,-6.500,1.760,10.780
235,63621.766000,-43.564,-24.285,-238.208,52.290,-366.812,-304.234,-16.500,-17.240,8.780
236,63621.782000,-46.501,-24.285,-240.185,49.416,-369.686,-306.149,-20.500,-31.240,5.780
237,63621.800000,-46.501,-22.261,-241.174,46.437,-370.630,-303.142,-23.500,-11.240,2.780
238,63621.826000,-46.501,-22.261,-239.197,44.532,-370.609,-306.062,-17.500,19.760,-0.220
239,63621.847000,-43.564,-22.261,-239.197,54.334,-370.697,-307.219,-17.500,18.760,2.780
240,63621.865000,-44.543,-23.273,-240.185,41.597,-370.582,-306.010,-19.500,-0.240,4.780
241,63621.887000,-45.522,-22.261,-241.174,44.531,-364.802,-309.022,-22.500,-1.240,4.780
242,63621.905000,-45.522,-22.261,-240.185,47.468,-372.571,-305.127,-24.500,7.760,-1.220
243,63621.927000,-46.501,-22.261,-241.174,43.554,-370.600,-306.044,-21.500,9.760,0.780
244,63621.950000,-43.564,-21.249,-241.174,51.285,-365.837,-303.233,-21.500,5.760,1.780
245,63621.967000,-45.522,-21.249,-242.162,41.579,-368.647,-306.012,-18.500,-3.240,1.780
246,63621.990000,-47.480,-22.261,-243.151,50.413,-373.566,-305.178,-16.500,-11.240,0.780
247,63622.7000,-46.501,-20.237,-244.139,44.497,-368.675,-305.079,-16.500,-1.240,-7.220
248,63622.30000,-45.522,-20.237,-243.151,43.535,-366.729,-307.033,-12.500,10.760,-8.220
249,63622.52000,-43.564,-21.249,-242.162,44.575,-369.639,-309.017,-7.500,-0.240,-5.220
250,63622.75000,-43.564,-21.249,-240.185,45.475,-366.748,-306.083,-7.500,-3.240,-1.220
251,63622.97000,-43.564,-21.249,-242.162,46.463,-369.660,-305.112,-12.500,-15.240,-0.220
252,63622.114000,-45.522,-22.261,-243.151,38.643,-366.685,-306.946,-15.500,-22.240,-7.220
253,63622.122000,-47.480,-21.249,-241.174,47.502,-370.634,-308.083,-11.500,-9.240,-10.220
254,63622.149000,-46.501,-21.249,-243.151,48.428,-366.774,-307.119,1.500,22.760,-8.220
255,63622.186000,-40.627,-20.237,-243.151,48.410,-364.839,-307.121,3.500,13.760,0.780
256,63622.205000,-40.627,-20.237,-241.174,46.523,-368.689,-309.052,-3.500,-36.240,2.780
257,63622.219000,-43.564,-21.249,-238.208,42.505,-366.724,-304.061,-6.500,-48.240,1.780
258,63622.241000,-46.501,-21.249,-241.174,45.510,-368.682,-307.066,-1.500,-10.240,0.780
259,63622.264000,-45.522,-22.261,-243.151,46.470,-364.820,-308.072,1.500,17.760,-4.220
260,63622.284000,-43.564,-21.249,-241.174,45.458,-368.685,-304.111,0.500,14.760,-7.220
261,63622.299000,-42.585,-21.249,-241.174,49.407,-368.719,-306.150,0.500,-0.240,-8.220
262,63622.317000,-43.564,-22.261,-243.151,48.420,-371.614,-304.160,-1.500,-0.240,-9.220
263,63622.344000,-46.501,-22.261,-242.162,44.444,-364.806,-304.098,-0.500,0.760,-11.220
264,63622.361000,-43.564,-21.249,-241.174,41.587,-367.679,-306.997,1.500,-1.240,-9.220
265,63622.384000,-44.543,-21.249,-242.162,49.397,-365.815,-307.138,3.500,-9.240,-6.220
266,63622.401000,-43.564,-22.261,-240.185,45.492,-366.747,-307.068,4.500,-8.240,-4.220
267,63622.424000,-44.543,-20.237,-239.197,42.549,-369.625,-305.043,3.500,-12.240,-1.220
268,63622.451000,-45.522,-22.261,-241.174,42.479,-367.693,-302.091,-1.500,-14.240,-5.220
269,63622.472000,-44.543,-20.237,-240.185,44.610,-371.572,-310.000,-3.500,-9.240,-2.220
270,63622.475000,-45.522,-20.237,-239.197,45.484,-365.780,-307.069,-1.500,9.760,2.780
271,63622.505000,-42.585,-22.261,-239.197,46.498,-369.658,-307.082,0.500,12.760,3.780
272,63622.525000,-43.564,-22.261,-239.197,47.458,-367.732,-307.101,-5.500,-3.240,4.780
273,63622.550000,-46.501,-21.249,-240.185,49.433,-369.685,-307.134,-11.500,-22.240,-2.220
274,63622.570000,-47.480,-21.249,-239.197,45.511,-370.618,-306.079,-9.500,-3.240,-3.220
275,63622.607000,-42.585,-21.249,-240.185,50.394,-367.759,-307.153,-10.500,15.760,-0.220
276,63622.626000,-41.606,-21.249,-239.197,50.403,-368.727,-307.152,-14.500,-4.240,-0.220
277,63622.632000,-43.564,-22.261,-240.185,52.368,-367.776,-308.172,-21.500,-33.240,-2.220
278,63622.655000,-47.480,-21.249,-240.185,45.466,-365.781,-306.084,-23.500,-29.240,-5.220
279,63622.677000,-46.501,-21.249,-240.185,39.639,-368.629,-306.962,-23.500,-4.240,-6.220
280,63622.695000,-44.543,-20.237,-241.174,42.496,-365.756,-304.062,-21.500,0.760,-7.220
281,63622.717000,-43.564,-22.261,-242.162,46.445,-365.790,-306.101,-21.500,1.760,-8.220
282,63622.735000,-45.522,-22.261,-241.174,51.390,-369.703,-307.168,-20.500,-4.240,-7.220
283,63622.751000,-43.564,-21.249,-241.174,45.519,-369.649,-307.065,-20.500,0.760,-8.220
284,63622.772000,-41.606,-20.237,-242.162,51.390,-367.767,-308.155,-23.500,2.760,-7.220
285,63622.799000,-43.564,-19.225,-242.162,45.493,-368.683,-306.081,-26.500,-11.240,-3.220
286,63622.815000,-44.543,-20.237,-241.174,43.544,-367.697,-307.032,-21.500,-24.240,4.780
287,63622.837000,-45.522,-18.213,-240.185,43.527,-365.762,-307.034,-14.500,-15.240,9.780
288,63622.860000,-45.522,-19.225,-240.185,47.433,-368.702,-305.131,-10.500,-11.240,13.780
289,63622.875000,-45.522,-20.237,-240.185,42.566,-367.688,-307.015,-13.500,-7.240,13.780
290,63622.907000,-46.501,-20.237,-241.174,40.687,-370.569,-309.931,-18.500,5.760,8.780
291,63622.921000,-46.501,-20.237,-241.174,41.553,-369.617,-304.041,-25.500,10.760,-1.220
292,63622.940000,-45.522,-18.213,-241.174,49.407,-368.719,-306.150,-26.500,3.760,-6.220
293,63622.956000,-45.522,-20.237,-242.162,46.506,-368.690,-308.068,-19.500,11.760,-5.220
294,63622.989000,-42.585,-18.213,-242.162,40.626,-365.733,-308.952,-15.500,27.760,-1.220
295,63623.9000,-41.606,-19.225,-242.162,47.511,-369.665,-309.069,-17.500,10.760,2.780
296,63623.26000,-42.585,-19.225,-242.162,42.539,-364.786,-307.018,-20.500,-11.240,4.780
297,63623.49000,-46.501,-18.213,-244.139,39.639,-366.693,-307.949,-20.500,-5.240,-3.220
298,63623.67000,-46.501,-17.202,-242.162,37.699,-366.674,-308.899,-14.500,5.760,-1.220
299,63623.89000,-44.543,-18.213,-242.162,43.571,-368.663,-308.016,-2.500,30.760,2.780
300,63623.101000,-40.627,-20.237,-242.162,40.626,-365.733,-308.952,1.500,21.760,9.780
301,63623.115000,-39.648,-17.202,-241.174,41.665,-366.707,-311.922,-9.500,-14.240,7.780
302,63623.134000,-45.522,-18.213,-240.185,43.597,-369.630,-309.000,-20.500,-39.240,-1.220
303,63623.164000,-48.459,-18.213,-239.197,42.609,-368.653,-308.983,-19.500,-2.240,-4.220
304,63623.177000,-47.480,-17.202,-240.185,38.651,-365.717,-307.932,-11.500,37.760,-0.220
305,63623.200000,-42.585,-18.213,-239.197,37.690,-363.771,-309.886,-13.500,23.760,-0.220
306,63623.217000,-43.564,-17.202,-239.197,42.548,-365.753,-307.017,-14.500,5.760,-0.220
307,63623.240000,-43.564,-19.225,-241.174,44.539,-363.833,-310.007,-19.500,-13.240,-0.220
308,63623.262000,-45.522,-18.213,-240.185,43.535,-366.729,-307.033,-24.500,-7.240,-2.220
309,63623.285000,-45.522,-17.202,-239.197,36.678,-367.636,-305.926,-25.500,6.760,-8.220
310,63623.316000,-45.522,-17.202,-239.197,35.759,-366.655,-309.849,-27.500,22.760,-11.220
311,63623.334000,-43.564,-18.213,-240.185,38.634,-365.718,-306.947,-30.500,12.760,-13.220
312,63623.356000,-42.585,-18.213,-240.185,39.612,-363.791,-307.951,-36.500,-0.240,-14.220
313,63623.376000,-43.564,-17.202,-241.174,37.707,-365.706,-309.884,-34.500,0.760,-15.220
314,63623.389000,-44.543,-17.202,-243.151,40.669,-366.699,-310.920,-27.500,12.760,-14.220
315,63623.420000,-43.564,-17.202,-243.151,37.760,-367.639,-311.852,-24.500,17.760,-14.220
316,63623.436000,-41.606,-17.202,-242.162,37.715,-362.802,-311.857,-21.500,28.760,-10.220
317,63623.460000,-38.669,-17.202,-241.174,40.670,-368.635,-309.933,-33.500,-1.240,-14.220
318,63623.479000,-42.585,-15.178,-243.151,42.617,-365.749,-310.956,-32.500,-29.240,-13.220
319,63623.506000,-46.501,-14.166,-243.151,42.599,-363.814,-310.958,-25.500,-0.240,-14.220
320,63623.525000,-43.564,-15.178,-243.151,35.768,-367.623,-309.848,-10.500,29.760,-5.220
321,63623.554000,-39.648,-16.190,-244.139,35.768,-367.623,-309.848,-11.500,-2.240,-2.220
322,63623.557000,-39.648,-16.190,-245.127,43.604,-364.790,-311.959,-20.500,-40.240,-7.220
323,63623.575000,-44.543,-15.178,-244.139,38.668,-363.780,-309.904,-15.500,-22.240,-9.220
324,63623.597000,-46.501,-14.166,-246.116,41.630,-364.773,-310.939,-9.500,-6.240,-9.220
325,63623.615000,-44.543,-15.178,-246.116,40.678,-367.666,-310.919,1.500,19.760,-7.220
326,63623.637000,-40.627,-15.178,-246.116,42.643,-366.716,-311.939,12.500,13.760,-7.220
327,63623.655000,-41.606,-15.178,-245.127,36.719,-360.858,-311.842,12.500,-19.240,-7.220
328,63623.677000,-42.585,-15.178,-246.116,37.715,-362.802,-311.857,13.500,-23.240,-8.220
329,63623.700000,-44.543,-15.178,-244.139,38.651,-363.781,-308.919,20.500,1.760,-6.220
330,63623.734000,-42.585,-16.190,-244.139,41.577,-362.840,-308.972,25.500,1.760,-3.220
331,63623.736000,-41.606,-16.190,-243.151,44.531,-364.802,-309.022,27.500,-22.240,-2.220
332,63623.758000,-41.606,-17.202,-243.151,40.678,-365.730,-311.906,28.500,-24.240,0.780
333,63623.780000,-42.585,-17.202,-242.162,46.489,-368.691,-307.083,29.500,-17.240,2.780
334,63623.805000,-43.564,-16.190,-242.162,40.616,-360.894,-310.926,29.500,-8.240,0.780
335,63623.827000,-41.606,-17.202,-241.174,38.669,-365.716,-308.917,29.500,-6.240,-0.220
336,63623.850000,-42.585,-17.202,-240.185,43.596,-367.694,-309.986,29.500,3.760,1.780
337,63623.870000,-42.585,-15.178,-241.174,47.501,-366.762,-310.056,29.500,-5.240,3.780
338,63623.887000,-44.543,-16.190,-239.197,37.733,-364.736,-311.855,23.500,-18.240,5.780
339,63623.907000,-45.522,-16.190,-236.232,40.565,-364.769,-305.998,24.500,-3.240,5.780
340,63623.925000,-42.585,-18.213,-237.220,49.467,-367.747,-310.090,21.500,9.760,6.780
341,63623.942000,-43.564,-17.202,-238.208,44.592,-365.766,-311.975,12.500,-0.240,3.780
342,63623.967000,-43.564,-18.213,-238.208,46.505,-364.818,-310.041,4.500,-14.240,2.780
343,63624.0,-47.480,-19.225,-240.185,38.721,-367.648,-310.885,-1.500,-25.240,-1.220
344,63624.14000,-46.501,-18.213,-241.174,40.626,-367.669,-307.965,-3.500,-9.240,-6.220
345,63624.46000,-44.543,-18.213,-241.174,44.557,-365.768,-310.006,-3.500,3.760,-7.220
346,63624.52000,-43.564,-18.213,-242.162,43.535,-364.794,-308.020,-3.500,2.760,-9.220
347,63624.75000,-43.564,-18.213,-241.174,41.594,-360.903,-310.943,-2.500,-8.240,-9.220
348,63624.95000,-43.564,-19.225,-241.174,46.488,-366.755,-308.070,-2.500,-7.240,-10.220
349,63624.110000,-44.543,-17.202,-243.151,46.488,-364.819,-309.056,-6.500,-6.240,-11.220
350,63624.135000,-44.543,-17.202,-244.139,38.660,-364.748,-308.918,-6.500,-4.240,-12.220
351,63624.157000,-44.543,-17.202,-243.151,38.616,-363.783,-306.949,-6.500,-2.240,-10.220
352,63624.175000,-43.564,-17.202,-242.162,46.479,-363.852,-309.057,0.500,1.760,-8.220
353,63624.197000,-42.585,-17.202,-240.185,45.561,-364.808,-311.993,5.500,-8.240,-5.220
354,63624.220000,-43.564,-18.213,-241.174,40.626,-365.733,-308.952,7.500,-10.240,-2.220
355,63624.237000,-44.543,-18.213,-242.162,41.569,-363.808,-307.986,8.500,-0.240,-1.220
356,63624.260000,-42.585,-19.225,-242.162,42.557,-368.656,-306.029,4.500,-0.240,-3.220
357,63624.275000,-44.543,-18.213,-240.185,42.556,-362.849,-308.989,3.500,-13.240,-6.220
358,63624.297000,-45.522,-16.190,-241.174,39.639,-366.693,-307.949,8.500,-1.240,-6.220
359,63624.319000,-42.585,-19.225,-239.197,47.510,-367.730,-310.055,8.500,16.760,-0.220
360,63624.360000,-41.606,-19.225,-238.208,46.496,-363.851,-310.042,6.500,11.760,1.780
361,63624.379000,-42.585,-19.225,-239.197,40.713,-369.600,-311.902,-1.500,-14.240,2.780
362,63624.387000,-42.585,-18.213,-238.208,43.596,-367.694,-309.986,-8.500,-22.240,-2.220
363,63624.401000,-43.564,-17.202,-238.208,43.605,-368.661,-309.985,-10.500,-16.240,-5.220
364,63624.424000,-42.585,-19.225,-239.197,45.509,-364.811,-309.039,-10.500,0.760,-5.220
365,63624.432000,-42.585,-18.213,-242.162,42.574,-364.784,-308.987,-9.500,12.760,-2.220
366,63624.451000,-41.606,-17.202,-240.185,45.510,-368.682,-307.066,-12.500,1.760,-1.220
367,63624.479000,-41.606,-19.225,-239.197,46.514,-367.722,-309.053,-17.500,-12.240,2.780
368,63624.501000,-43.564,-18.213,-241.174,37.699,-364.738,-309.885,-20.500,-19.240,4.780
369,63624.519000,-43.564,-17.202,-242.162,40.599,-362.831,-308.954,-21.500,-16.240,1.780
370,63624.546000,-45.522,-17.202,-243.151,40.599,-364.767,-307.968,-15.500,-3.240,-1.220
371,63624.564000,-44.543,-17.202,-243.151,43.491,-361.892,-307.038,-9.500,15.760,-1.220
372,63624.585000,-44.543,-18.213,-243.151,45.588,-367.710,-311.990,-9.500,14.760,-2.220
373,63624.614000,-41.606,-18.213,-243.151,43.561,-365.760,-309.003,-8.500,-8.240,-3.220
374,63624.641000,-43.564,-17.202,-244.139,39.648,-367.660,-307.948,-8.500,-19.240,-2.220
375,63624.650000,-43.564,-16.190,-243.151,40.608,-365.734,-307.967,-7.500,-9.240,-2.220
376,63624.670000,-42.585,-17.202,-240.185,39.708,-368.625,-310.901,-9.500,-12.240,-0.220
377,63624.687000,-43.564,-17.202,-241.174,43.517,-360.923,-309.008,-10.500,-17.240,-2.220
378,63624.710000,-44.543,-17.202,-240.185,47.492,-365.795,-310.057,-11.500,-20.240,0.780
379,63624.737000,-44.543,-18.213,-241.174,47.493,-367.731,-309.071,-8.500,-16.240,-2.220
380,63624.752000,-44.543,-17.202,-240.185,43.588,-368.662,-309.001,-4.500,-3.240,0.780
381,63624.775000,-45.522,-18.213,-241.174,40.617,-364.766,-308.953,-11.500,-4.240,-5.220
382,63624.791000,-42.585,-17.202,-240.185,45.492,-364.811,-308.054,-17.500,-9.240,-9.220
383,63624.812000,-41.606,-20.237,-241.174,44.531,-364.802,-309.022,-25.500,-10.240,-9.220
384,63624.842000,-43.564,-17.202,-242.162,45.501,-367.715,-307.067,-24.500,-17.240,-11.220
385,63624.857000,-43.564,-15.178,-242.162,38.687,-371.522,-306.942,-20.500,-27.240,-8.220
386,63624.883000,-44.543,-16.190,-242.162,43.622,-368.660,-310.970,-20.500,-26.240,-8.220
387,63624.897000,-45.522,-15.178,-241.174,41.552,-363.809,-307.001,-15.500,-13.240,-3.220
388,63624.917000,-43.564,-15.178,-240.185,38.660,-366.684,-307.931,-14.500,-14.240,-0.220
389,63624.950000,-45.522,-15.178,-241.174,42.609,-368.653,-308.983,-16.500,-17.240,1.780
390,63624.964000,-45.522,-17.202,-242.162,45.510,-366.746,-308.052,-21.500,-4.240,-7.220
391,63624.989000,-45.522,-16.190,-241.174,36.642,-363.766,-305.930,-19.500,-4.240,-12.220
392,63625.14000,-44.543,-17.202,-238.208,41.578,-366.712,-306.998,-21.500,8.760,-14.220
393,63625.29000,-43.564,-15.178,-240.185,39.595,-365.727,-305.980,-24.500,0.760,-10.220
394,63625.44000,-43.564,-16.190,-240.185,41.543,-362.842,-307.002,-27.500,-16.240,-9.220
395,63625.66000,-46.501,-15.178,-240.185,34.702,-363.747,-306.880,-25.500,-13.240,-11.220
396,63625.84000,-46.501,-14.166,-241.174,41.578,-366.712,-306.998,-19.500,5.760,-11.220
397,63625.97000,-45.522,-15.178,-245.127,41.605,-367.678,-307.982,-13.500,25.760,-14.220
398,63625.111000,-45.522,-13.154,-244.139,37.743,-367.640,-310.867,-11.500,34.760,-9.220
399,63625.139000,-42.585,-14.166,-244.139,35.742,-364.721,-309.851,-10.500,26.760,-9.220
400,63625.164000,-42.585,-14.166,-245.127,46.462,-365.789,-307.086,-10.500,1.760,-12.220
401,63625.191000,-42.585,-14.166,-247.104,43.552,-362.857,-309.991,-6.500,-9.240,-13.220
402,63625.209000,-43.564,-15.178,-247.104,45.527,-364.810,-310.024,2.500,-0.240,-9.220
403,63625.232000,-43.564,-15.178,-246.116,40.678,-365.730,-311.906,6.500,-10.240,-6.220
404,63625.246000,-42.585,-16.190,-245.127,45.483,-363.844,-308.055,9.500,-22.240,-6.220
405,63625.263000,-45.522,-15.178,-246.116,42.618,-367.685,-309.969,10.500,-38.240,-9.220
406,63625.302000,-43.564,-14.166,-245.127,37.663,-362.805,-308.903,15.500,-27.240,-9.220
407,63625.321000,-42.585,-15.178,-245.127,50.428,-367.757,-309.123,21.500,-15.240,-9.220
408,63625.340000,-42.585,-16.190,-243.151,40.670,-368.635,-309.933,25.500,-22.240,-5.220
409,63625.354000,-43.564,-17.202,-243.151,43.562,-367.696,-308.017,29.500,-27.240,0.780
410,63625.371000,-42.585,-16.190,-240.185,45.501,-367.715,-307.067,31.500,-30.240,1.780
411,63625.394000,-43.564,-17.202,-239.197,46.462,-365.789,-307.086,33.500,-33.240,3.780
412,63625.411000,-42.585,-18.213,-236.232,44.541,-369.641,-307.047,28.500,-31.240,6.780
413,63625.435000,-40.627,-18.213,-236.232,47.406,-367.735,-304.147,21.500,-32.240,8.780
414,63625.449000,-42.585,-19.225,-234.255,40.618,-368.638,-306.979,2.500,-54.240,8.780
415,63625.470000,-46.501,-19.225,-233.266,40.540,-367.674,-303.041,-17.500,-73.240,4.780
416,63625.499000,-48.459,-17.202,-236.232,45.502,-369.650,-306.080,-22.500,-49.240,4.780
417,63625.516000,-44.543,-17.202,-238.208,37.604,-367.647,-302.989,-15.500,2.760,6.780
418,63625.539000,-42.585,-16.190,-237.220,43.493,-371.571,-302.104,-18.500,5.760,13.780
419,63625.554000,-43.564,-18.213,-238.208,42.565,-365.752,-308.001,-24.500,-21.240,19.780
420,63625.576000,-46.501,-16.190,-241.174,43.536,-370.601,-305.060,-31.500,-10.240,23.780
421,63625.599000,-48.459,-15.178,-243.151,38.636,-371.525,-303.987,-29.500,-7.240,23.780
422,63625.622000,-51.396,-17.202,-244.139,38.643,-368.621,-305.960,-27.500,-2.240,23.780
423,63625.636000,-52.375,-15.178,-245.127,40.627,-369.605,-306.978,-12.500,33.760,19.780
424,63625.660000,-45.522,-17.202,-247.104,43.518,-366.730,-306.048,-1.500,62.760,23.780
425,63625.681000,-41.606,-15.178,-246.116,41.587,-367.679,-306.997,-8.500,27.760,19.780
426,63625.696000,-47.480,-13.154,-247.104,37.691,-367.643,-307.913,-11.500,-13.240,19.780
427,63625.714000,-45.522,-12.142,-251.058,46.480,-369.659,-306.097,-0.500,12.760,24.780
428,63625.742000,-43.564,-12.142,-248.093,39.692,-370.562,-308.929,13.500,-4.240,34.780
429,63625.766000,-45.522,-12.142,-247.104,38.591,-364.752,-304.979,21.500,-51.240,49.780
430,63625.789000,-49.438,-14.166,-246.116,39.614,-369.598,-304.991,32.500,-56.240,51.780
431,63625.809000,-48.459,-15.178,-246.116,40.566,-370.576,-303.038,34.500,-42.240,45.780
432,63625.826000,-48.459,-15.178,-241.174,39.640,-372.500,-304.988,34.500,-32.240,26.780
433,63625.844000,-47.480,-14.166,-242.162,34.747,-370.520,-305.889,25.500,-6.240,15.780
434,63625.860000,-46.501,-15.178,-239.197,37.648,-370.549,-303.971,22.500,15.760,12.780
435,63625.886000,-44.543,-15.178,-237.220,41.588,-369.615,-306.011,23.500,18.760,13.780
436,63625.909000,-38.669,-15.178,-240.185,36.696,-371.506,-304.937,9.500,-24.240,7.780
437,63625.917000,-42.585,-15.178,-236.232,36.687,-370.539,-304.938,-7.500,-110.240,7.780
438,63625.951000,-48.459,-15.178,-239.197,38.662,-374.427,-303.984,-16.500,-112.240,8.780
439,63625.957000,-52.375,-16.190,-241.174,42.524,-372.530,-302.086,-8.500,-91.240,5.780
440,63625.985000,-53.354,-20.237,-241.174,36.670,-372.476,-302.967,3.500,-30.240,-1.220
441,63626.7000,-55.312,-18.213,-239.197,36.652,-370.541,-302.969,16.500,49.760,-11.220
442,63626.25000,-50.417,-15.178,-237.220,40.637,-374.444,-305.004,33.500,134.760,-7.220
443,63626.45000,-44.543,-16.190,-236.232,40.635,-366.701,-308.951,31.500,147.760,0.780
444,63626.67000,-35.732,-16.190,-233.266,43.527,-367.698,-306.047,1.500,63.760,1.780
445,63626.81000,-38.669,-17.202,-234.255,36.669,-368.604,-304.940,-41.500,-69.240,-5.220
446,63626.109000,-48.459,-16.190,-238.208,33.743,-369.545,-304.887,-71.500,-104.240,-14.220
447,63626.139000,-51.396,-16.190,-244.139,35.682,-369.563,-303.937,-72.500,-32.240,-12.220
448,63626.181000,-53.354,-13.154,-245.127,33.778,-371.478,-305.870,-61.500,11.760,-10.220
449,63626.181000,-58.249,-11.130,-246.116,35.752,-371.495,-306.890,-12.500,159.760,-0.220
450,63626.195000,-55.312,-14.166,-244.139,40.678,-365.730,-311.906,34.500,358.760,14.780
451,63626.212000,-35.732,-20.237,-243.151,36.745,-359.889,-313.812,27.500,418.760,22.780
452,63626.230000,-19.090,-24.285,-239.197,34.822,-359.869,-315.747,-35.500,221.760,6.780
453,63626.257000,-21.048,-19.225,-238.208,38.780,-360.870,-317.785,-99.500,-73.240,-20.220
454,63626.279000,-42.585,-13.154,-240.185,36.753,-358.920,-314.798,-123.500,-155.240,-37.220
455,63626.294000,-60.207,-10.119,-240.185,38.789,-363.773,-316.797,-102.500,54.760,-40.220
456,63626.310000,-51.396,-12.142,-241.174,31.913,-360.809,-316.679,-103.500,178.760,-48.220
457,63626.332000,-30.837,-17.202,-237.220,29.003,-359.812,-318.597,-116.500,127.760,-58.220
458,63626.355000,-28.880,-21.249,-232.278,36.770,-356.983,-316.769,-153.500,-63.240,-67.220
459,63626.377000,-36.711,-18.213,-233.266,27.965,-362.711,-313.653,-176.500,-176.240,-63.220
460,63626.395000,-36.711,-15.178,-236.232,36.842,-366.658,-315.775,-193.500,-205.240,-55.220
461,63626.417000,-40.627,-11.130,-239.197,37.751,-366.671,-311.853,-203.500,-206.240,-56.220
462,63626.431000,-47.480,-7.083,-243.151,30.910,-367.576,-311.731,-181.500,-108.240,-64.220
463,63626.459000,-50.417,-7.083,-242.162,24.052,-364.611,-312.597,-140.500,45.760,-49.220
464,63626.475000,-36.711,-9.107,-241.174,23.064,-363.635,-312.581,-124.500,55.760,-35.220
465,63626.500000,-28.880,-9.107,-239.197,28.988,-365.621,-314.653,-129.500,-16.240,-28.220
466,63626.527000,-35.732,-5.059,-237.220,26.961,-363.671,-311.666,-131.500,-21.240,-26.220
467,63626.542000,-39.648,-6.071,-239.197,26.087,-367.528,-315.583,-134.500,18.760,-31.220
468,63626.565000,-31.816,0.000,-248.093,20.154,-362.639,-314.500,-142.500,25.760,-32.220
469,63626.585000,-30.837,-1.012,-249.081,26.017,-363.660,-313.618,-157.500,-39.240,-29.220
470,63626.602000,-30.837,0.000,-246.116,23.100,-367.504,-312.577,-154.500,-120.240,-15.220
471,63626.630000,-40.627,1.012,-250.069,18.174,-371.333,-308.548,-123.500,-110.240,-5.220
472,63626.657000,-41.606,1.012,-252.046,15.211,-366.469,-309.485,-92.500,-78.240,-1.220
473,63626.671000,-43.564,4.047,-251.058,18.173,-367.462,-310.521,-69.500,-103.240,13.780
474,63626.690000,-45.522,9.107,-248.093,25.040,-369.459,-310.640,-54.500,-109.240,28.780
475,63626.712000,-43.564,6.071,-246.116,19.091,-370.378,-305.612,-48.500,-107.240,37.780
476,63626.725000,-41.606,2.024,-246.116,16.200,-375.188,-305.555,-60.500,-176.240,35.780
477,63626.752000,-53.354,5.059,-248.093,17.066,-374.235,-299.665,-90.500,-293.240,0.780
478,63626.770000,-59.228,3.036,-251.058,19.024,-378.125,-297.726,-88.500,-300.240,-14.220
479,63626.797000,-59.228,8.095,-247.104,11.257,-379.018,-300.541,-52.500,-192.240,-22.220
480,63626.816000,-56.291,2.024,-245.127,12.201,-380.965,-297.602,1.500,-81.240,-9.220
481,63626.839000,-46.501,-1.012,-242.162,18.055,-381.019,-296.721,32.500,-12.240,18.780
482,63626.854000,-40.627,0.000,-242.162,17.033,-380.045,-294.735,13.500,-71.240,31.780
483,63626.876000,-48.459,3.036,-239.197,10.123,-380.954,-290.674,-4.500,-132.240,26.780
484,63626.895000,-61.185,6.071,-237.220,13.094,-384.850,-290.722,-14.500,-185.240,21.780
485,63626.912000,-60.207,8.095,-237.220,14.107,-384.857,-292.709,15.500,-76.240,15.780
486,63626.934000,-50.417,5.059,-235.243,17.017,-385.853,-290.790,36.500,25.760,23.780
487,63626.956000,-50.417,1.012,-237.220,13.085,-381.947,-291.710,19.500,-38.240,29.780
488,63626.979000,-60.207,1.012,-241.174,18.974,-385.871,-290.825,0.500,-109.240,20.780
489,63627.6000,-67.059,-1.012,-243.151,17.960,-381.992,-290.811,7.500,-69.240,3.780
490,63627.25000,-65.101,1.012,-243.151,12.108,-387.745,-288.732,29.500,6.760,-13.220
491,63627.39000,-61.185,7.083,-239.197,16.004,-383.910,-289.790,59.500,38.760,-0.220
492,63627.56000,-55.312,8.095,-239.197,15.043,-385.836,-289.771,65.500,37.760,4.780
493,63627.70000,-54.333,2.024,-237.220,16.048,-386.811,-290.772,59.500,-5.240,10.780
494,63627.89000,-55.312,1.012,-236.232,14.021,-384.862,-287.785,36.500,-71.240,9.780
495,63627.116000,-62.164,4.047,-236.232,16.021,-385.845,-289.788,21.500,-110.240,-12.220
496,63627.136000,-66.080,7.083,-235.243,17.009,-388.757,-288.818,36.500,-67.240,-16.220
497,63627.156000,-62.164,8.095,-235.243,15.953,-387.785,-284.862,53.500,18.760,-5.220
498,63627.184000,-58.249,3.036,-236.232,15.026,-385.837,-288.786,62.500,34.760,6.780
499,63627.206000,-61.185,-1.012,-237.220,19.875,-386.852,-285.917,65.500,27.760,8.780
500,63627.226000,-58.249,-5.059,-235.243,21.866,-384.932,-288.908,59.500,48.760,-6.220
501,63627.244000,-54.333,-4.047,-239.197,20.957,-384.919,-292.830,47.500,49.760,-13.220
502,63627.272000,-55.312,-1.012,-241.174,18.004,-384.893,-291.793,21.500,11.760,-32.220
503,63627.287000,-57.270,-1.012,-242.162,25.859,-387.867,-291.929,17.500,6.760,-38.220
504,63627.307000,-56.291,-3.036,-246.116,23.849,-385.916,-289.926,25.500,42.760,-35.220
505,63627.325000,-53.354,-7.083,-243.151,16.982,-381.983,-290.794,31.500,57.760,-39.220
506,63627.347000,-50.417,-4.047,-242.162,21.935,-384.928,-292.847,39.500,23.760,-42.220
507,63627.364000,-49.438,-2.024,-240.185,23.944,-384.943,-295.836,38.500,15.760,-49.220
508,63627.385000,-50.417,1.012,-243.151,24.836,-383.021,-291.916,38.500,29.760,-46.220
509,63627.412000,-51.396,1.012,-241.174,21.909,-382.026,-292.850,39.500,79.760,-40.220
510,63627.430000,-49.438,-1.012,-239.197,20.964,-380.079,-295.789,42.500,101.760,-30.220
511,63627.452000,-44.543,-5.059,-239.197,28.792,-380.150,-295.927,45.500,97.760,-12.220
512,63627.482000,-46.501,-7.083,-238.208,27.787,-377.239,-295.913,44.500,39.760,-5.220
513,63627.515000,-50.417,-7.083,-239.197,24.896,-382.050,-295.856,54.500,8.760,9.780
514,63627.515000,-50.417,-3.036,-236.232,25.831,-379.157,-294.892,65.500,34.760,13.780
515,63627.535000,-46.501,-1.012,-237.220,29.814,-379.189,-298.900,64.500,43.760,23.780
516,63627.557000,-50.417,-1.012,-236.232,30.741,-381.137,-294.976,53.500,37.760,33.780
517,63627.584000,-52.375,-3.036,-238.208,24.869,-377.212,-296.846,37.500,35.760,29.780
518,63627.601000,-53.354,-8.095,-240.185,27.840,-379.172,-297.881,26.500,5.760,9.780
519,63627.619000,-51.396,-11.130,-242.162,29.779,-379.191,-296.930,17.500,-31.240,-5.220
520,63627.637000,-53.354,-10.119,-241.174,28.757,-376.281,-295.931,6.500,-92.240,-38.220
521,63627.659000,-58.249,-5.059,-239.197,27.814,-382.077,-294.923,23.500,-41.240,-47.220
522,63627.676000,-56.291,-2.024,-240.185,32.741,-380.184,-297.966,45.500,89.760,-39.220
523,63627.704000,-42.585,-3.036,-239.197,29.840,-380.155,-299.884,44.500,105.760,-25.220
524,63627.710000,-37.690,-5.059,-234.255,31.701,-375.339,-296.969,35.500,17.760,-2.220
525,63627.732000,-52.375,-4.047,-238.208,24.904,-377.210,-298.815,56.500,42.760,26.780
526,63627.751000,-54.333,-4.047,-239.197,32.724,-380.185,-296.981,76.500,133.760,43.780
527,63627.774000,-44.543,-7.083,-239.197,30.852,-376.291,-303.844,57.500,69.760,30.780
528,63627.801000,-44.543,-6.071,-239.197,28.817,-373.374,-300.858,44.500,15.760,19.780
529,63627.822000,-55.312,-5.059,-241.174,31.761,-376.304,-299.922,33.500,21.760,3.780
530,63627.855000,-54.333,-6.071,-244.139,30.817,-374.357,-302.861,36.500,97.760,-2.220
531,63627.869000,-47.480,-9.107,-243.151,32.809,-374.373,-304.865,28.500,76.760,-11.220
532,63627.887000,-46.501,-8.095,-242.162,40.672,-376.378,-305.987,17.500,1.760,-18.220
533,63627.901000,-49.438,-8.095,-244.139,32.800,-375.341,-303.880,23.500,-27.240,-19.220
534,63627.932000,-46.501,-5.059,-245.127,33.761,-373.415,-303.899,44.500,-38.240,-10.220
535,63627.939000,-49.438,-3.036,-246.116,36.661,-369.572,-303.955,73.500,20.760,1.780
536,63627.959000,-51.396,-3.036,-241.174,31.761,-374.368,-300.909,93.500,80.760,25.780
537,63627.986000,-42.585,-4.047,-242.162,29.812,-371.446,-302.847,91.500,122.760,33.780
538,63628.4000,-31.816,-8.095,-240.185,39.623,-372.501,-304.004,59.500,-8.240,26.780
539,63628.26000,-36.711,-5.059,-240.185,39.607,-376.374,-301.045,30.500,-140.240,10.780
540,63628.41000,-61.185,-8.095,-243.151,30.756,-373.392,-299.908,49.500,-91.240,21.780
541,63628.54000,-56.291,-15.178,-240.185,42.515,-371.562,-302.087,79.500,67.760,44.780
542,63628.82000,-46.501,-17.202,-237.220,35.744,-374.399,-304.917,80.500,122.760,34.780
543,63628.105000,-42.585,-18.213,-238.208,35.726,-370.529,-305.906,45.500,13.760,-1.220
544,63628.122000,-51.396,-14.166,-241.174,36.635,-370.542,-301.984,6.500,-91.240,-25.220
545,63628.145000,-57.270,-10.119,-242.162,36.671,-374.411,-301.980,-1.500,-73.240,-31.220
546,63628.170000,-56.291,-11.130,-242.162,41.579,-370.583,-305.025,22.500,64.760,-27.220
547,63628.190000,-46.501,-14.166,-241.174,39.701,-371.529,-308.928,48.500,209.760,-21.220
548,63628.217000,-32.795,-14.166,-241.174,42.574,-366.720,-308.000,61.500,238.760,-11.220
549,63628.236000,-28.880,-11.130,-242.162,32.859,-366.627,-311.766,36.500,108.760,-12.220
550,63628.255000,-43.564,-8.095,-241.174,42.592,-368.654,-307.998,15.500,-41.240,-21.220
551,63628.274000,-52.375,-8.095,-244.139,40.679,-369.602,-309.932,21.500,7.760,-22.220
552,63628.294000,-44.543,-9.107,-244.139,36.729,-367.633,-308.880,40.500,152.760,-13.220
553,63628.319000,-31.816,-12.142,-241.174,39.699,-365.722,-311.889,36.500,165.760,-4.220
554,63628.334000,-31.816,-12.142,-241.174,41.681,-362.834,-314.880,28.500,111.760,-3.220
555,63628.356000,-39.648,-12.142,-243.151,39.715,-361.849,-314.847,16.500,15.760,-2.220
556,63628.374000,-41.606,-15.178,-245.127,40.685,-362.826,-313.878,18.500,2.760,3.780
557,63628.391000,-42.585,-16.190,-245.127,41.716,-362.832,-316.850,19.500,11.760,5.780
558,63628.405000,-44.543,-15.178,-246.116,41.673,-365.738,-312.908,16.500,3.760,2.780
559,63628.437000,-46.501,-15.178,-246.116,40.685,-360.891,-314.865,22.500,14.760,-1.220
560,63628.455000,-42.585,-15.178,-244.139,37.749,-358.928,-315.800,22.500,31.760,-12.220
561,63628.477000,-44.543,-16.190,-245.127,37.785,-362.798,-315.796,22.500,16.760,-22.220
562,63628.500000,-47.480,-14.166,-244.139,46.564,-359.976,-315.955,25.500,15.760,-34.220
563,63628.530000,-48.459,-15.178,-242.162,47.552,-360.952,-315.971,34.500,39.760,-33.220
564,63628.542000,-42.585,-15.178,-241.174,47.543,-361.920,-314.985,46.500,107.760,-35.220
565,63628.565000,-35.732,-16.190,-238.208,44.625,-361.893,-315.918,41.500,109.760,-41.220
566,63628.589000,-32.795,-14.166,-241.174,44.659,-359.955,-318.874,16.500,40.760,-50.220
567,63628.607000,-36.711,-14.166,-239.197,46.608,-360.941,-317.923,-1.500,0.760,-52.220
568,63628.625000,-36.711,-18.213,-240.185,47.594,-356.110,-320.900,0.500,24.760,-39.220
569,63628.648000,-29.859,-16.190,-241.174,51.509,-360.017,-318.995,-6.500,33.760,-30.220
570,63628.665000,-27.901,-15.178,-240.185,50.504,-357.106,-318.981,-11.500,-6.240,-20.220
571,63628.687000,-31.816,-15.178,-242.162,39.670,-353.140,-316.825,-18.500,-13.240,-11.220
572,63628.707000,-33.774,-15.178,-243.151,44.597,-355.119,-317.894,-18.500,3.760,-6.220
573,63628.730000,-32.795,-16.190,-243.151,49.507,-355.162,-318.966,-6.500,31.760,3.780
574,63628.747000,-33.774,-17.202,-244.139,48.519,-352.250,-319.936,6.500,46.760,23.780
575,63628.770000,-28.880,-19.225,-245.127,40.684,-357.019,-316.838,13.500,37.760,37.780
576,63628.790000,-30.837,-15.178,-243.151,41.723,-356.057,-320.796,8.500,-19.240,36.780
577,63628.807000,-38.669,-14.166,-244.139,53.457,-359.068,-319.031,5.500,-27.240,34.780
578,63628.825000,-42.585,-14.166,-244.139,42.701,-356.065,-320.813,11.500,43.760,34.780
579,63628.853000,-37.690,-15.178,-243.151,43.706,-357.041,-321.814,17.500,59.760,38.780
580,63628.871000,-33.774,-18.213,-243.151,45.619,-356.093,-319.880,8.500,10.760,37.780
581,63628.886000,-34.753,-18.213,-241.174,46.624,-355.133,-321.868,6.500,-13.240,37.780
582,63628.915000,-38.669,-18.213,-243.151,40.666,-355.084,-316.840,0.500,-35.240,36.780
583,63628.931000,-43.564,-15.178,-243.151,44.606,-354.150,-318.880,-0.500,-17.240,32.780
584,63628.952000,-42.585,-17.202,-243.151,41.653,-354.125,-317.843,6.500,21.760,27.780
585,63628.995000,-38.669,-15.178,-241.174,48.607,-356.117,-322.886,4.500,16.760,22.780
586,63629.4000,-33.774,-16.190,-241.174,50.539,-359.040,-319.964,-4.500,-35.240,12.780
587,63629.22000,-39.648,-13.154,-242.162,41.741,-357.991,-320.794,-14.500,-47.240,-1.220
588,63629.35000,-41.606,-15.178,-245.127,41.724,-359.928,-318.822,-14.500,-11.240,-6.220
589,63629.49000,-37.690,-14.166,-245.127,46.546,-354.169,-317.930,-10.500,12.760,-11.220
590,63629.76000,-34.753,-14.166,-244.139,44.640,-354.148,-320.850,-5.500,0.760,-7.220
591,63629.99000,-36.711,-14.166,-243.151,41.775,-357.989,-322.763,4.500,-11.240,6.780
592,63629.121000,-33.774,-15.178,-241.174,44.642,-359.956,-317.889,12.500,-7.240,15.780
593,63629.139000,-35.732,-16.190,-242.162,45.559,-355.129,-316.927,3.500,-19.240,11.780
594,63629.156000,-35.732,-19.225,-242.162,41.689,-357.994,-317.840,-4.500,-45.240,-0.220
595,63629.181000,-40.627,-16.190,-242.162,41.723,-357.992,-319.809,0.500,-18.240,-7.220
596,63629.197000,-40.627,-17.202,-240.185,48.504,-358.059,-315.991,13.500,38.760,2.780
597,63629.220000,-37.690,-19.225,-240.185,49.577,-357.094,-321.918,14.500,59.760,7.780
598,63629.240000,-32.795,-19.225,-241.174,48.564,-357.087,-319.931,5.500,23.760,2.780
599,63629.262000,-34.753,-18.213,-236.232,41.758,-357.990,-321.779,0.500,11.760,3.780
600,63629.280000,-35.732,-20.237,-238.208,43.645,-356.076,-318.861,-3.500,15.760,4.780
601,63629.302000,-32.795,-19.225,-239.197,47.594,-358.046,-319.913,-16.500,17.760,0.780
602,63629.322000,-32.795,-17.202,-240.185,42.684,-354.131,-320.815,-31.500,-10.240,-2.220
603,63629.340000,-37.690,-16.190,-242.162,45.646,-358.995,-319.877,-28.500,-2.240,-1.220
604,63629.367000,-39.648,-15.178,-242.162,44.624,-356.085,-318.878,-15.500,32.760,7.780
605,63629.382000,-33.774,-16.190,-244.139,38.788,-357.966,-319.757,-12.500,14.760,6.780
606,63629.396000,-39.648,-16.190,-245.127,48.538,-356.121,-318.947,-13.500,-22.240,5.780
607,63629.429000,-41.606,-14.166,-245.127,38.796,-356.997,-320.743,-11.500,7.760,3.780
608,63629.467000,-36.711,-15.178,-244.139,41.740,-354.120,-322.767,-7.500,37.760,0.780
609,63629.485000,-34.753,-17.202,-245.127,45.636,-354.156,-321.852,-9.500,36.760,-8.220
610,63629.494000,-36.711,-15.178,-246.116,48.615,-355.149,-323.872,-14.500,3.760,-14.220
611,63629.511000,-39.648,-14.166,-244.139,40.752,-353.144,-322.751,-9.500,16.760,-15.220
612,63629.529000,-33.774,-16.190,-243.151,42.665,-350.260,-321.804,4.500,50.760,-10.220
613,63629.546000,-30.837,-16.190,-241.174,39.817,-352.164,-325.689,3.500,36.760,-8.220
614,63629.571000,-32.795,-17.202,-242.162,38.891,-354.088,-327.639,-9.500,-10.240,-11.220
615,63629.593000,-35.732,-16.190,-243.151,44.701,-353.177,-324.790,-18.500,-4.240,-18.220
616,63629.614000,-34.753,-16.190,-242.162,42.709,-351.226,-323.772,-15.500,7.760,-17.220
617,63629.641000,-33.774,-15.178,-243.151,45.654,-354.155,-322.836,-14.500,24.760,-17.220
618,63629.654000,-31.816,-16.190,-244.139,40.752,-353.144,-322.751,-9.500,21.760,-11.220
619,63629.681000,-31.816,-14.166,-245.127,45.636,-352.221,-322.838,-5.500,-12.240,-8.220
620,63629.694000,-34.753,-13.154,-246.116,39.817,-352.164,-325.689,-2.500,-34.240,-0.220
621,63629.707000,-36.711,-16.190,-245.127,42.691,-351.227,-322.787,4.500,-6.240,-7.220
622,63629.726000,-32.795,-17.202,-244.139,43.740,-355.103,-324.770,-0.500,3.760,-10.220
623,63629.754000,-31.816,-15.178,-246.116,44.675,-352.211,-323.806,-7.500,-13.240,-19.220
624,63629.774000,-32.795,-16.190,-244.139,36.882,-354.073,-324.650,-6.500,-21.240,-19.220
625,63629.794000,-36.711,-15.178,-244.139,40.735,-353.145,-321.766,3.500,-20.240,-13.220
626,63629.816000,-36.711,-14.166,-243.151,45.670,-352.219,-324.808,7.500,2.760,-10.220
627,63629.836000,-30.837,-16.190,-242.162,46.631,-350.293,-324.827,13.500,22.760,-7.220
628,63629.864000,-30.837,-18.213,-242.162,47.663,-356.106,-324.839,3.500,-5.240,-5.220
629,63629.897000,-35.732,-19.225,-240.185,37.816,-351.181,-323.686,-4.500,-37.240,-5.220
630,63629.915000,-37.690,-17.202,-240.185,39.731,-354.105,-319.778,-7.500,-30.240,-12.220
631,63629.930000,-36.711,-17.202,-242.162,43.697,-354.138,-322.802,-6.500,-6.240,-11.220
632,63629.952000,-36.711,-18.213,-240.185,45.688,-352.218,-325.793,-10.500,11.760,-11.220
633,63629.959000,-33.774,-20.237,-241.174,45.654,-354.155,-322.836,-18.500,6.760,-14.220
634,63629.986000,-33.774,-17.202,-244.139,43.705,-355.105,-322.801,-23.500,-8.240,-23.220
635,63630.5000,-35.732,-17.202,-244.139,37.791,-354.086,-320.728,-31.500,-42.240,-25.220
636,63630.26000,-36.711,-16.190,-245.127,44.657,-352.212,-322.821,-23.500,-21.240,-18.220
637,63630.47000,-35.732,-14.166,-244.139,47.636,-353.204,-324.842,-3.500,34.760,-12.220
638,63630.75000,-31.816,-14.166,-244.139,45.661,-351.251,-324.809,10.500,46.760,-4.220
639,63630.90000,-28.880,-15.178,-242.162,44.648,-351.244,-322.822,9.500,10.760,0.780
640,63630.112000,-30.837,-15.178,-238.208,40.753,-355.079,-321.764,-0.500,-18.240,6.780
641,63630.135000,-33.774,-16.190,-239.197,41.792,-356.053,-324.735,-15.500,-28.240,3.780
642,63630.159000,-35.732,-14.166,-241.174,38.804,-352.157,-323.702,-24.500,-14.240,-6.220
643,63630.179000,-37.690,-16.190,-242.162,41.748,-351.216,-324.740,-23.500,-3.240,-10.220
644,63630.194000,-33.774,-13.154,-241.174,42.744,-355.095,-323.768,-20.500,19.760,-13.220
645,63630.211000,-31.816,-14.166,-242.162,44.692,-354.146,-323.804,-18.500,13.760,-7.220
646,63630.240000,-31.816,-15.178,-242.162,49.619,-352.252,-326.847,-21.500,-10.240,-2.220
647,63630.254000,-34.753,-16.190,-245.127,42.735,-354.128,-323.769,-23.500,-27.240,-2.220
648,63630.301000,-34.753,-16.190,-246.116,40.770,-353.143,-323.736,-21.500,-21.240,-8.220
649,63630.301000,-37.690,-14.166,-248.093,48.624,-354.180,-324.858,-14.500,-9.240,-16.220
650,63630.311000,-37.690,-13.154,-248.093,49.593,-351.286,-325.863,0.500,17.760,-15.220
651,63630.334000,-35.732,-14.166,-248.093,39.817,-354.100,-324.702,11.500,31.760,-16.220
652,63630.351000,-29.859,-14.166,-247.104,39.826,-353.132,-325.688,10.500,22.760,-15.220
653,63630.377000,-29.859,-15.178,-246.116,46.692,-353.193,-326.794,6.500,-23.240,-16.220
654,63630.395000,-31.816,-14.166,-245.127,43.713,-352.201,-324.773,2.500,-46.240,-17.220
655,63630.423000,-31.816,-13.154,-246.116,41.748,-353.151,-323.753,3.500,-51.240,-13.220
656,63630.443000,-32.795,-13.154,-244.139,50.590,-355.165,-324.891,8.500,-56.240,-7.220
657,63630.465000,-35.732,-14.166,-244.139,46.598,-356.102,-319.897,21.500,-18.240,-3.220
658,63630.490000,-34.753,-14.166,-243.151,40.787,-355.077,-323.734,30.500,11.760,3.780
659,63630.499000,-31.816,-17.202,-242.162,41.740,-354.120,-322.767,21.500,-13.240,-5.220
660,63630.521000,-33.774,-16.190,-240.185,48.641,-356.115,-324.856,13.500,-27.240,-8.220
661,63630.539000,-35.732,-15.178,-241.174,48.571,-352.247,-322.890,12.500,-22.240,-12.220
662,63630.567000,-34.753,-16.190,-239.197,45.654,-354.155,-322.836,11.500,-5.240,-7.220
663,63630.585000,-32.795,-16.190,-238.208,44.719,-357.048,-323.801,5.500,-15.240,-4.220
664,63630.607000,-33.774,-17.202,-240.185,43.697,-354.138,-322.802,-0.500,-29.240,-6.220
665,63630.630000,-33.774,-15.178,-240.185,44.658,-356.083,-320.848,-4.500,-36.240,-9.220
666,63630.639000,-34.753,-15.178,-242.162,45.610,-353.190,-320.868,-0.500,-14.240,-0.220
667,63630.671000,-35.732,-15.178,-242.162,47.646,-358.043,-322.867,5.500,8.760,5.780
668,63630.690000,-34.753,-16.190,-242.162,49.576,-355.158,-322.905,0.500,-5.240,0.780
669,63630.723000,-32.795,-17.202,-240.185,48.572,-356.119,-320.917,-12.500,-19.240,-6.220
670,63630.723000,-37.690,-16.190,-242.162,42.692,-353.162,-321.801,-15.500,-21.240,-5.220
671,63630.740000,-37.690,-15.178,-244.139,43.749,-356.070,-324.769,-9.500,9.760,-1.220
672,63630.767000,-29.859,-15.178,-243.151,45.637,-356.092,-320.865,-6.500,2.760,1.780
673,63630.787000,-33.774,-14.166,-243.151,45.662,-353.187,-323.822,-10.500,-38.240,1.780
674,63630.805000,-37.690,-14.166,-243.151,41.697,-357.026,-318.825,-11.500,-37.240,2.780
675,63630.830000,-36.711,-14.166,-244.139,44.658,-354.147,-321.834,-9.500,0.760,6.780
676,63630.850000,-32.795,-14.166,-241.174,45.637,-356.092,-320.865,-5.500,14.760,7.780
677,63630.872000,-32.795,-15.178,-243.151,42.667,-356.067,-318.844,-2.500,-2.240,11.780
678,63630.899000,-33.774,-14.166,-245.127,39.774,-355.070,-321.747,-2.500,-9.240,13.780
679,63630.916000,-36.711,-14.166,-242.162,41.740,-356.056,-321.780,-5.500,-7.240,11.780
680,63630.939000,-35.732,-14.166,-241.174,43.697,-354.138,-322.802,-0.500,-1.240,12.780
681,63630.959000,-35.732,-14.166,-243.151,47.602,-355.142,-321.885,-0.500,2.760,11.780
682,63630.962000,-37.690,-14.166,-241.174,41.722,-354.121,-321.782,3.500,13.760,16.780
683,63630.985000,-36.711,-13.154,-241.174,48.555,-356.120,-319.932,1.500,13.760,16.780
684,63631.7000,-35.732,-14.166,-243.151,45.697,-355.121,-324.805,-1.500,11.760,11.780
685,63631.30000,-35.732,-14.166,-243.151,41.766,-355.086,-323.751,-9.500,5.760,5.780
686,63631.59000,-37.690,-13.154,-244.139,41.706,-356.058,-319.811,-11.500,5.760,3.780
687,63631.86000,-37.690,-14.166,-244.139,44.710,-356.080,-323.802,-7.500,9.760,4.780
688,63631.100000,-33.774,-14.166,-243.151,46.649,-354.163,-323.838,-0.500,14.760,6.780
689,63631.117000,-34.753,-14.166,-245.127,39.756,-353.136,-321.749,-0.500,-9.240,9.780
690,63631.140000,-38.669,-14.166,-244.139,44.667,-355.115,-321.833,-9.500,-25.240,3.780
691,63631.160000,-36.711,-13.154,-245.127,41.714,-355.089,-320.797,-10.500,-12.240,-3.220
692,63631.185000,-36.711,-13.154,-244.139,48.650,-357.082,-324.855,-7.500,4.760,-11.220
693,63631.197000,-34.753,-13.154,-244.139,39.757,-355.071,-320.762,-3.500,3.760,-7.220
694,63631.220000,-33.774,-13.154,-243.151,45.662,-355.123,-322.835,1.500,-13.240,-2.220
695,63631.243000,-35.732,-13.154,-243.151,46.624,-357.068,-320.881,0.500,-20.240,-1.220
696,63631.265000,-35.732,-14.166,-243.151,38.813,-353.125,-323.701,-2.500,-21.240,-1.220
697,63631.282000,-34.753,-13.154,-240.185,40.753,-355.079,-321.764,-9.500,-11.240,-6.220
698,63631.310000,-32.795,-12.142,-242.162,42.719,-356.065,-321.798,-12.500,-3.240,-12.220
699,63631.321000,-30.837,-13.154,-241.174,39.722,-355.073,-318.793,-18.500,-14.240,-8.220
700,63631.342000,-35.732,-15.178,-243.151,43.705,-355.105,-322.801,-13.500,-30.240,5.780
701,63631.365000,-35.732,-15.178,-241.174,46.598,-356.102,-319.897,-4.500,-10.240,15.780
702,63631.382000,-37.690,-15.178,-244.139,47.611,-354.173,-322.871,0.500,-0.240,11.780
703,63631.414000,-35.732,-16.190,-244.139,44.649,-355.116,-320.849,-7.500,-12.240,-0.220
704,63631.432000,-37.690,-14.166,-243.151,43.741,-357.039,-323.784,-16.500,-15.240,-8.220
705,63631.448000,-36.711,-15.178,-243.151,37.808,-354.085,-321.713,-18.500,-8.240,-10.220
706,63631.466000,-36.711,-14.166,-244.139,45.689,-358.025,-322.833,-16.500,-2.240,-7.220
707,63631.494000,-35.732,-13.154,-244.139,43.732,-358.007,-322.798,-16.500,-6.240,-7.220
708,63631.509000,-35.732,-13.154,-244.139,40.753,-355.079,-321.764,-11.500,-10.240,-6.220
709,63631.526000,-35.732,-12.142,-244.139,41.723,-356.057,-320.796,-3.500,-0.240,-2.220
710,63631.549000,-34.753,-11.130,-244.139,43.731,-354.136,-324.771,1.500,7.760,1.780
711,63631.566000,-34.753,-11.130,-244.139,46.650,-358.035,-321.865,0.500,-1.240,9.780
712,63631.594000,-35.732,-12.142,-243.151,35.808,-355.038,-318.723,1.500,-3.240,8.780
713,63631.614000,-37.690,-13.154,-242.162,43.705,-355.105,-322.801,0.500,-1.240,6.780
714,63631.631000,-35.732,-14.166,-243.151,43.680,-356.074,-320.830,-2.500,-1.240,3.780
715,63631.654000,-35.732,-12.142,-242.162,41.653,-354.125,-317.843,-6.500,1.760,-3.220
716,63631.674000,-34.753,-12.142,-240.185,43.662,-356.075,-319.846,-6.500,9.760,-5.220
717,63631.691000,-34.753,-14.166,-243.151,36.839,-355.044,-321.695,-5.500,13.760,0.780
718,63631.705000,-33.774,-13.154,-242.162,39.757,-355.071,-320.762,-4.500,11.760,5.780
719,63631.733000,-33.774,-13.154,-242.162,35.860,-355.035,-321.678,-3.500,4.760,6.780
720,63631.755000,-35.732,-12.142,-243.151,37.791,-354.086,-320.728,-7.500,-0.240,4.780
721,63631.778000,-35.732,-13.154,-244.139,41.818,-357.019,-325.719,-9.500,3.760,2.780
722,63631.822000,-36.711,-12.142,-242.162,42.710,-355.097,-321.799,-7.500,11.760,-0.220
723,63631.837000,-35.732,-12.142,-242.162,40.726,-352.177,-321.767,-5.500,15.760,1.780
724,63631.837000,-35.732,-12.142,-242.162,37.860,-354.082,-324.668,-7.500,14.760,3.780
725,63631.854000,-34.753,-13.154,-245.127,41.775,-356.054,-323.750,-8.500,6.760,4.780
726,63631.876000,-35.732,-14.166,-245.127,42.718,-352.193,-323.771,-9.500,6.760,-2.220
727,63631.899000,-35.732,-12.142,-244.139,38.865,-355.058,-325.669,-3.500,10.760,-6.220
728,63631.921000,-35.732,-11.130,-244.139,36.882,-354.073,-324.650,-1.500,12.760,-4.220
729,63631.944000,-34.753,-13.154,-245.127,38.856,-354.090,-325.670,1.500,5.760,-1.220
730,63631.961000,-33.774,-13.154,-245.127,39.844,-357.002,-324.699,4.500,-0.240,-2.220
731,63631.984000,-36.711,-13.154,-244.139,40.796,-354.109,-324.719,12.500,16.760,-6.220
732,63632.1000,-33.774,-13.154,-244.139,45.645,-353.188,-322.837,13.500,23.760,-6.220
733,63632.18000,-31.816,-13.154,-243.151,46.667,-356.098,-323.837,13.500,7.760,-2.220
734,63632.35000,-31.816,-14.166,-243.151,39.765,-354.103,-321.748,6.500,-8.240,-1.220
735,63632.78000,-32.795,-14.166,-241.174,36.829,-350.205,-323.669,8.500,-6.240,-1.220
736,63632.96000,-32.795,-13.154,-243.151,42.665,-348.324,-322.790,7.500,1.760,-1.220
737,63632.114000,-33.774,-14.166,-243.151,40.752,-351.208,-323.738,8.500,3.760,1.780
738,63632.134000,-32.795,-13.154,-243.151,44.692,-352.210,-324.791,12.500,20.760,6.780
739,63632.149000,-31.816,-14.166,-243.151,40.787,-353.142,-324.720,14.500,24.760,9.780
740,63632.171000,-31.816,-16.190,-243.151,35.877,-353.098,-323.649,17.500,22.760,11.780
741,63632.185000,-34.753,-14.166,-243.151,36.856,-353.107,-323.666,15.500,6.760,10.780
742,63632.214000,-32.795,-13.154,-242.162,38.883,-356.992,-325.667,14.500,11.760,11.780
743,63632.236000,-30.837,-15.178,-242.162,50.606,-353.229,-326.863,7.500,9.760,12.780
744,63632.249000,-33.774,-13.154,-242.162,42.735,-352.192,-324.756,-6.500,-16.240,7.780
745,63632.271000,-36.711,-13.154,-243.151,44.701,-353.177,-324.790,-12.500,-36.240,3.780
746,63632.294000,-37.690,-13.154,-244.139,40.726,-350.241,-322.754,-3.500,-5.240,1.780
747,63632.316000,-33.774,-12.142,-242.162,40.820,-349.268,-328.663,9.500,29.760,5.780
748,63632.334000,-29.859,-14.166,-242.162,40.743,-350.240,-323.739,6.500,3.760,13.780
749,63632.357000,-32.795,-16.190,-244.139,47.592,-350.303,-323.860,-6.500,-19.240,7.780
750,63632.380000,-38.669,-14.166,-242.162,36.916,-352.136,-327.606,-11.500,-40.240,0.780
751,63632.398000,-38.669,-14.166,-244.139,38.813,-353.125,-323.701,-11.500,-17.240,-13.220
752,63632.420000,-34.753,-14.166,-243.151,39.817,-354.100,-324.702,-5.500,24.760,-19.220
753,63632.442000,-29.859,-14.166,-241.174,35.885,-352.130,-324.635,-1.500,29.760,-13.220
754,63632.457000,-30.837,-15.178,-241.174,43.688,-353.170,-322.803,-3.500,-9.240,-9.220
755,63632.480000,-33.774,-15.178,-242.162,40.813,-354.108,-325.704,-5.500,-22.240,-7.220
756,63632.500000,-33.774,-14.166,-244.139,39.834,-352.163,-326.674,-8.500,-6.240,-8.220
757,63632.522000,-33.774,-13.154,-244.139,40.804,-353.141,-325.705,-8.500,2.760,-13.220
758,63632.541000,-33.774,-13.154,-244.139,47.636,-353.204,-324.842,-6.500,2.760,-16.220
759,63632.570000,-33.774,-13.154,-245.127,38.786,-350.223,-323.704,1.500,8.760,-15.220
760,63632.585000,-30.837,-13.154,-244.139,43.783,-354.133,-327.726,3.500,8.760,-13.220
761,63632.608000,-32.795,-14.166,-245.127,42.691,-349.291,-323.774,1.500,-6.240,-11.220
762,63632.622000,-32.795,-14.166,-245.127,36.890,-353.105,-325.636,1.500,-13.240,-11.220
763,63632.645000,-32.795,-13.154,-244.139,39.791,-353.134,-323.718,2.500,-2.240,-13.220
764,63632.662000,-31.816,-14.166,-243.151,41.765,-351.215,-325.724,7.500,-0.240,-10.220
765,63632.694000,-31.816,-13.154,-244.139,42.726,-351.225,-324.757,8.500,-5.240,-3.220
766,63632.709000,-31.816,-15.178,-243.151,41.783,-353.149,-325.722,8.500,-11.240,-5.220
767,63632.726000,-32.795,-16.190,-245.127,42.778,-353.157,-326.725,7.500,-17.240,-8.220
768,63632.748000,-36.711,-15.178,-243.151,45.705,-354.152,-325.791,5.500,-13.240,-10.220
769,63632.764000,-33.774,-14.166,-244.139,40.708,-348.307,-322.756,9.500,8.760,-9.220
770,63632.794000,-31.816,-14.166,-243.151,42.787,-354.125,-326.724,10.500,8.760,-9.220
771,63632.811000,-29.859,-14.166,-241.174,44.709,-352.209,-325.775,10.500,-1.240,-6.220
772,63632.826000,-32.795,-14.166,-243.151,44.665,-347.372,-325.780,9.500,-8.240,-5.220
773,63632.849000,-32.795,-15.178,-242.162,41.765,-351.215,-325.724,9.500,-0.240,-2.220
774,63632.873000,-30.837,-15.178,-242.162,39.791,-351.198,-324.705,4.500,-14.240,-1.220
775,63632.895000,-29.859,-16.190,-243.151,43.740,-355.103,-324.770,-1.500,-18.240,-2.220
776,63632.912000,-33.774,-15.178,-243.151,41.757,-354.119,-323.752,-2.500,-18.240,-0.220
777,63632.932000,-33.774,-14.166,-241.174,46.684,-356.097,-324.821,4.500,1.760,0.780
778,63632.950000,-30.837,-15.178,-243.151,42.770,-352.190,-326.725,5.500,14.760,2.780
779,63632.977000,-30.837,-16.190,-241.174,46.684,-354.161,-325.808,-5.500,1.760,0.780
780,63633.5000,-30.837,-15.178,-243.151,40.768,-347.335,-326.696,-12.500,-16.240,-1.220
781,63633.5000,-34.753,-15.178,-243.151,41.774,-352.182,-325.723,-11.500,-9.240,-2.220
782,63633.36000,-33.774,-13.154,-242.162,40.734,-349.273,-323.740,-4.500,5.760,0.780
783,63633.58000,-29.859,-15.178,-242.162,46.693,-355.129,-325.807,-5.500,-11.240,8.780
784,63633.80000,-30.837,-15.178,-243.151,46.657,-351.259,-325.811,-13.500,-35.240,8.780
785,63633.100000,-32.795,-14.166,-244.139,42.734,-350.256,-325.743,-18.500,-42.240,-0.220
786,63633.120000,-36.711,-13.154,-243.151,45.723,-356.087,-325.789,-19.500,-27.240,-4.220
787,63633.137000,-35.732,-12.142,-244.139,44.683,-353.178,-323.805,-10.500,-4.240,-5.220
788,63633.157000,-35.732,-13.154,-246.116,41.783,-353.149,-325.722,-6.500,7.760,-3.220
789,63633.185000,-32.795,-13.154,-245.127,39.747,-348.297,-323.723,-1.500,-1.240,-3.220
790,63633.214000,-31.816,-13.154,-242.162,42.717,-350.257,-324.758,-0.500,-15.240,-3.220
791,63633.228000,-33.774,-14.166,-243.151,47.679,-352.234,-327.797,-2.500,-10.240,-0.220
792,63633.250000,-33.774,-16.190,-242.162,38.813,-353.125,-323.701,-5.500,4.760,-2.220
793,63633.265000,-31.816,-13.154,-242.162,41.756,-352.183,-324.739,-3.500,-13.240,-4.220
794,63633.287000,-32.795,-13.154,-242.162,48.589,-352.246,-323.875,-2.500,-14.240,-3.220
795,63633.302000,-34.753,-12.142,-243.151,46.596,-350.295,-322.858,-2.500,1.760,0.780
796,63633.322000,-31.816,-14.166,-242.162,38.760,-349.256,-322.720,-0.500,0.760,2.780
797,63633.346000,-32.795,-13.154,-242.162,43.732,-356.071,-323.785,1.500,-8.240,5.780
798,63633.365000,-34.753,-14.166,-244.139,46.649,-354.163,-323.838,-0.500,1.760,7.780
799,63633.383000,-33.774,-13.154,-242.162,40.742,-348.305,-324.725,-3.500,-1.240,3.780
800,63633.407000,-36.711,-14.166,-244.139,40.734,-349.273,-323.740,-6.500,-28.240,-2.220
801,63633.435000,-36.711,-14.166,-243.151,46.640,-353.196,-323.839,-4.500,-10.240,-2.220
802,63633.450000,-33.774,-15.178,-242.162,42.743,-351.224,-325.742,-1.500,8.760,-0.220
803,63633.475000,-31.816,-15.178,-241.174,49.532,-350.321,-322.910,-4.500,1.760,-0.220
804,63633.494000,-33.774,-14.166,-242.162,41.774,-354.118,-324.737,-11.500,-35.240,-4.220
805,63633.513000,-35.732,-13.154,-242.162,48.590,-356.118,-321.902,-15.500,-29.240,-4.220
806,63633.541000,-32.795,-13.154,-243.151,46.632,-354.164,-322.854,-15.500,3.760,-8.220
807,63633.559000,-31.816,-14.166,-243.151,41.757,-354.119,-323.752,-17.500,0.760,-11.220
808,63633.578000,-31.816,-13.154,-242.162,41.853,-357.017,-327.688,-13.500,-8.240,-6.220
809,63633.597000,-32.795,-15.178,-243.151,42.718,-354.129,-322.785,-9.500,-3.240,2.780
810,63633.612000,-32.795,-14.166,-242.162,38.821,-352.156,-324.687,-7.500,-7.240,5.780
811,63633.629000,-33.774,-13.154,-243.151,39.773,-351.199,-323.720,-10.500,-17.240,0.780
812,63633.655000,-34.753,-14.166,-242.162,37.886,-353.113,-326.638,-11.500,-11.240,-2.220
813,63633.670000,-32.795,-12.142,-243.151,43.723,-355.104,-323.786,-12.500,9.760,-1.220
814,63633.689000,-31.816,-13.154,-242.162,44.640,-350.277,-322.823,-12.500,7.760,1.780
815,63633.706000,-33.774,-13.154,-244.139,37.886,-353.113,-326.638,-12.500,-15.240,8.780
816,63633.734000,-35.732,-14.166,-245.127,37.860,-354.082,-324.668,-10.500,-18.240,8.780
817,63633.754000,-34.753,-14.166,-242.162,42.718,-352.193,-323.771,-5.500,3.760,5.780
818,63633.774000,-33.774,-13.154,-242.162,42.718,-352.193,-323.771,-6.500,4.760,4.780
819,63633.796000,-32.795,-13.154,-243.151,39.791,-353.134,-323.718,-12.500,1.760,4.780
820,63633.813000,-33.774,-12.142,-244.139,41.722,-354.121,-321.782,-13.500,-6.240,6.780
821,63633.859000,-32.795,-13.154,-246.116,43.774,-353.165,-327.727,-12.500,-11.240,5.780
822,63633.878000,-35.732,-12.142,-247.104,39.808,-351.197,-325.690,-6.500,-17.240,6.780
823,63633.880000,-36.711,-12.142,-247.104,41.800,-353.148,-326.707,1.500,2.760,7.780
824,63633.901000,-33.774,-14.166,-244.139,41.818,-355.083,-326.705,13.500,27.760,10.780
825,63633.924000,-32.795,-12.142,-245.127,43.722,-351.232,-325.759,15.500,19.760,12.780
826,63633.941000,-32.795,-13.154,-244.139,38.804,-354.093,-322.715,12.500,-9.240,14.780
827,63633.973000,-35.732,-14.166,-245.127,34.933,-353.087,-325.601,10.500,-9.240,16.780
828,63633.975000,-34.753,-13.154,-244.139,37.799,-353.118,-321.714,15.500,9.760,14.780
829,63633.993000,-32.795,-13.154,-242.162,38.786,-350.223,-323.704,14.500,2.760,13.780
830,63634.11000,-34.753,-14.166,-243.151,40.751,-349.272,-324.724,12.500,-1.240,11.780
831,63634.40000,-33.774,-14.166,-242.162,40.752,-353.144,-322.751,12.500,-8.240,6.780
832,63634.59000,-33.774,-14.166,-243.151,38.838,-352.155,-325.672,7.500,-8.240,-0.220
833,63634.81000,-32.795,-14.166,-242.162,36.846,-350.204,-324.654,3.500,-3.240,-3.220
834,63634.110000,-32.795,-12.142,-240.185,37.877,-352.146,-326.639,1.500,4.760,1.780
835,63634.126000,-31.816,-13.154,-242.162,36.864,-354.074,-323.665,2.500,4.760,11.780
836,63634.146000,-29.859,-13.154,-242.162,38.804,-352.157,-323.702,-1.500,-16.240,13.780
837,63634.164000,-32.795,-13.154,-243.151,37.790,-348.279,-323.689,-7.500,-25.240,8.780
838,63634.195000,-35.732,-13.154,-243.151,43.714,-356.072,-322.800,-2.500,4.760,5.780
839,63634.215000,-33.774,-13.154,-245.127,38.864,-353.122,-326.655,0.500,24.760,6.780
840,63634.232000,-30.837,-15.178,-243.151,36.864,-352.139,-324.652,3.500,33.760,11.780
841,63634.252000,-30.837,-13.154,-244.139,37.835,-355.052,-322.697,2.500,-8.240,13.780
842,63634.270000,-32.795,-13.154,-243.151,39.877,-351.193,-329.629,2.500,-31.240,11.780
843,63634.292000,-36.711,-14.166,-243.151,41.756,-352.183,-324.739,5.500,-3.240,11.780
844,63634.313000,-32.795,-15.178,-244.139,40.752,-351.208,-323.738,6.500,22.760,10.780
845,63634.335000,-29.859,-15.178,-243.151,34.907,-352.121,-324.618,1.500,-1.240,10.780
846,63634.349000,-32.795,-14.166,-242.162,36.908,-355.040,-325.634,3.500,-10.240,13.780
847,63634.366000,-34.753,-14.166,-241.174,44.675,-352.211,-323.806,7.500,12.760,18.780
848,63634.399000,-30.837,-15.178,-241.174,38.812,-351.189,-324.688,5.500,16.760,18.780
849,63634.425000,-28.880,-14.166,-241.174,35.894,-351.161,-325.621,-9.500,-10.240,11.780
850,63634.446000,-32.795,-13.154,-240.185,34.916,-353.088,-324.617,-20.500,-22.240,10.780
851,63634.459000,-34.753,-13.154,-242.162,36.847,-352.140,-323.667,-16.500,-2.240,12.780
852,63634.482000,-34.753,-11.130,-240.185,35.867,-348.259,-325.624,-16.500,7.760,14.780
853,63634.496000,-32.795,-13.154,-240.185,37.851,-351.179,-325.655,-20.500,-3.240,11.780
854,63634.519000,-33.774,-12.142,-241.174,40.813,-354.108,-325.704,-25.500,-10.240,6.780
855,63634.539000,-37.690,-12.142,-243.151,37.885,-351.177,-327.625,-28.500,6.760,-3.220
856,63634.556000,-35.732,-12.142,-245.127,33.955,-353.078,-325.584,-27.500,20.760,-8.220
857,63634.579000,-33.774,-12.142,-245.127,34.916,-353.088,-324.617,-26.500,10.760,-10.220
858,63634.599000,-33.774,-12.142,-244.139,32.959,-353.070,-324.582,-25.500,-5.240,-12.220
859,63634.625000,-34.753,-10.119,-246.116,34.898,-349.218,-325.605,-16.500,-8.240,-11.220
860,63634.645000,-32.795,-10.119,-245.127,34.967,-351.149,-328.558,-13.500,-5.240,-12.220
861,63634.671000,-30.837,-12.142,-247.104,32.985,-352.101,-326.552,-12.500,-10.240,-11.220
862,63634.678000,-31.816,-11.130,-244.139,37.869,-355.050,-324.667,-9.500,-6.240,-7.220
863,63634.700000,-33.774,-11.130,-245.127,34.933,-353.087,-325.601,-5.500,-2.240,-4.220
864,63634.720000,-32.795,-11.130,-245.127,31.963,-351.127,-324.567,-4.500,-11.240,-5.220
865,63634.745000,-31.816,-13.154,-245.127,31.936,-350.160,-323.583,0.500,-5.240,0.780
866,63634.762000,-30.837,-12.142,-244.139,43.730,-350.264,-326.745,3.500,6.760,0.780
867,63634.790000,-30.837,-11.130,-242.162,37.833,-349.244,-325.657,4.500,11.760,5.780
868,63634.833000,-30.837,-12.142,-242.162,38.829,-351.188,-325.673,2.500,-11.240,8.780
869,63634.833000,-32.795,-12.142,-242.162,37.816,-349.245,-324.672,-0.500,-22.240,9.780
870,63634.855000,-33.774,-13.154,-243.151,37.913,-356.015,-326.635,-2.500,-7.240,9.780
871,63634.859000,-32.795,-12.142,-243.151,33.946,-352.111,-325.585,-1.500,-0.240,7.780
872,63634.890000,-31.816,-13.154,-241.174,34.924,-352.120,-325.602,-0.500,8.760,7.780
873,63634.911000,-32.795,-12.142,-242.162,35.920,-350.192,-327.591,-0.500,8.760,9.780
874,63634.929000,-31.816,-13.154,-242.162,37.869,-353.114,-325.653,-7.500,-2.240,7.780
875,63634.946000,-32.795,-13.154,-241.174,32.941,-349.200,-325.571,-10.500,-3.240,7.780
876,63634.973000,-31.816,-12.142,-241.174,30.993,-350.149,-325.535,-12.500,9.760,6.780
877,63634.988000,-32.795,-10.119,-244.139,34.889,-350.186,-324.620,-11.500,16.760,5.780
878,63635.1000,-30.837,-13.154,-242.162,36.907,-351.168,-327.607,-10.500,6.760,11.780
879,63635.29000,-31.816,-13.154,-244.139,39.825,-351.196,-326.675,-14.500,-0.240,13.780
880,63635.46000,-33.774,-14.166,-245.127,33.019,-352.099,-328.522,-13.500,3.760,14.780
881,63635.74000,-30.837,-13.154,-247.104,33.011,-353.067,-327.536,-9.500,17.760,14.780
882,63635.99000,-30.837,-12.142,-245.127,31.988,-348.222,-327.524,-10.500,5.760,10.780
883,63635.114000,-30.837,-11.130,-245.127,35.928,-351.159,-327.590,-17.500,-2.240,10.780
884,63635.136000,-33.774,-10.119,-244.139,37.886,-353.113,-326.638,-17.500,-13.240,11.780
885,63635.154000,-33.774,-10.119,-244.139,36.881,-352.138,-325.637,-15.500,-8.240,17.780
886,63635.174000,-33.774,-11.130,-243.151,28.092,-350.121,-327.453,-3.500,5.760,18.780
887,63635.196000,-31.816,-11.130,-243.151,33.002,-352.100,-327.537,-0.500,7.760,16.780
888,63635.214000,-31.816,-12.142,-243.151,29.036,-352.067,-324.514,-7.500,-7.240,14.780
889,63635.238000,-34.753,-10.119,-245.127,31.988,-350.157,-326.537,-12.500,-4.240,9.780
890,63635.256000,-31.816,-10.119,-243.151,35.902,-348.257,-327.593,-7.500,15.760,6.780
891,63635.298000,-29.859,-10.119,-245.127,32.958,-351.135,-325.569,-2.500,12.760,12.780
892,63635.317000,-29.859,-10.119,-244.139,31.997,-351.125,-326.536,-4.500,4.760,14.780
893,63635.325000,-32.795,-10.119,-243.151,34.007,-353.075,-328.538,-5.500,-16.240,15.780
894,63635.348000,-34.753,-11.130,-242.162,34.933,-351.151,-326.588,-5.500,-7.240,12.780
895,63635.373000,-33.774,-8.095,-242.162,27.070,-349.146,-325.467,-1.500,11.760,9.780
896,63635.387000,-31.816,-9.107,-243.151,33.002,-352.100,-327.537,-4.500,8.760,9.780
897,63635.405000,-31.816,-10.119,-241.174,31.001,-351.117,-325.534,-7.500,-4.240,11.780
898,63635.430000,-33.774,-10.119,-243.151,25.157,-352.030,-326.414,-9.500,-3.240,12.780
899,63635.445000,-34.753,-11.130,-242.162,31.027,-350.147,-327.505,-8.500,14.760,11.780
900,63635.465000,-31.816,-11.130,-241.174,32.007,-354.028,-325.548,-11.500,19.760,6.780
901,63635.493000,-31.816,-11.130,-242.162,29.114,-351.095,-329.439,-18.500,12.760,1.780
902,63635.518000,-34.753,-11.130,-242.162,29.061,-349.162,-327.471,-19.500,9.760,0.780
903,63635.526000,-33.774,-10.119,-243.151,25.156,-348.158,-328.388,-17.500,25.760,-0.220
904,63635.549000,-31.816,-11.130,-244.139,32.109,-348.215,-334.417,-21.500,26.760,-5.220
905,63635.566000,-31.816,-8.095,-243.151,28.082,-345.282,-329.427,-24.500,12.760,-9.220
906,63635.589000,-29.859,-9.107,-243.151,26.186,-348.164,-331.359,-23.500,1.760,-12.220
907,63635.606000,-30.837,-9.107,-245.127,31.027,-348.212,-328.491,-20.500,-1.240,-9.220
908,63635.634000,-30.837,-9.107,-245.127,30.092,-351.104,-329.456,-15.500,3.760,-6.220
909,63635.648000,-28.880,-9.107,-246.116,34.958,-348.246,-329.545,-18.500,-12.240,-4.220
910,63635.676000,-29.859,-10.119,-245.127,33.063,-353.065,-330.491,-21.500,-17.240,-9.220
911,63635.699000,-33.774,-10.119,-247.104,29.043,-347.227,-327.473,-18.500,-18.240,-9.220
912,63635.721000,-32.795,-9.107,-246.116,32.084,-351.120,-331.460,-13.500,-1.240,-13.220
913,63635.730000,-29.859,-6.071,-248.093,28.092,-350.121,-327.453,-9.500,-0.240,-11.220
914,63635.756000,-28.880,-6.071,-246.116,28.100,-349.152,-328.438,-6.500,-10.240,-8.220
915,63635.774000,-30.837,-6.071,-246.116,31.061,-348.210,-330.461,1.500,-6.240,-5.220
916,63635.797000,-30.837,-7.083,-243.151,28.100,-347.217,-329.425,5.500,9.760,-4.220
917,63635.815000,-26.922,-8.095,-242.162,28.083,-349.153,-327.454,-3.500,-16.240,-3.220
918,63635.836000,-26.922,-8.095,-244.139,31.080,-352.080,-329.472,-12.500,-44.240,-1.220
919,63635.859000,-31.816,-9.107,-244.139,32.032,-351.123,-328.506,-11.500,-40.240,0.780
920,63635.876000,-32.795,-7.083,-245.127,28.091,-346.249,-329.426,-2.500,-8.240,1.780
921,63635.909000,-30.837,-9.107,-245.127,23.198,-346.205,-329.340,11.500,15.760,7.780
922,63635.928000,-29.859,-8.095,-244.139,26.108,-349.137,-326.434,12.500,8.760,6.780
923,63635.960000,-29.859,-10.119,-244.139,27.174,-351.076,-330.389,8.500,-3.240,4.780
924,63635.963000,-29.859,-11.130,-243.151,30.092,-349.168,-330.443,2.500,-0.240,5.780
925,63635.981000,-28.880,-11.130,-243.151,29.079,-351.097,-327.469,-1.500,-10.240,6.780
926,63635.995000,-29.859,-10.119,-242.162,36.906,-349.232,-328.594,-1.500,-8.240,6.780
927,63636.18000,-32.795,-8.095,-240.185,30.058,-351.106,-327.486,5.500,-4.240,11.780
928,63636.40000,-29.859,-11.130,-241.174,22.168,-348.135,-325.381,0.500,-10.240,14.780
929,63636.62000,-32.795,-11.130,-242.162,25.190,-348.156,-330.357,-13.500,-27.240,16.780
930,63636.85000,-34.753,-9.107,-242.162,29.070,-348.194,-328.457,-18.500,-28.240,10.780
931,63636.106000,-32.795,-8.095,-244.139,28.092,-350.121,-327.453,-10.500,-2.240,2.780
932,63636.124000,-28.880,-8.095,-244.139,27.104,-347.209,-328.423,-8.500,11.760,5.780
933,63636.151000,-29.859,-8.095,-243.151,31.062,-350.146,-329.474,-11.500,-4.240,12.780
934,63636.198000,-31.816,-8.095,-242.162,26.231,-353.001,-331.354,-13.500,-20.240,16.780
935,63636.198000,-31.816,-7.083,-242.162,28.048,-349.155,-325.484,-12.500,-5.240,18.780
936,63636.216000,-29.859,-8.095,-245.127,30.039,-347.235,-328.475,-22.500,-7.240,19.780
937,63636.226000,-31.816,-7.083,-247.104,23.217,-352.011,-327.364,-24.500,-20.240,18.780
938,63636.249000,-37.690,-5.059,-248.093,24.187,-351.053,-327.383,-20.500,-29.240,12.780
939,63636.276000,-35.732,-6.071,-249.081,26.161,-351.069,-328.402,-3.500,9.760,13.780
940,63636.291000,-27.901,-5.059,-248.093,22.220,-348.132,-328.336,8.500,31.760,12.780
941,63636.320000,-29.859,-3.036,-245.127,29.053,-352.066,-325.499,8.500,-3.240,9.780
942,63636.326000,-32.795,-4.047,-247.104,29.140,-352.062,-330.422,14.500,-15.240,17.780
943,63636.354000,-35.732,-7.083,-245.127,26.143,-349.135,-328.404,28.500,14.760,25.780
944,63636.376000,-32.795,-9.107,-242.162,22.290,-350.064,-331.288,35.500,33.760,20.780
945,63636.399000,-29.859,-10.119,-244.139,24.195,-350.084,-328.368,22.500,1.760,5.780
946,63636.419000,-34.753,-6.071,-245.127,27.166,-352.045,-329.403,14.500,-8.240,-3.220
947,63636.438000,-34.753,-10.119,-243.151,23.190,-349.109,-327.367,12.500,2.760,-5.220
948,63636.458000,-30.837,-9.107,-242.162,28.135,-351.086,-329.421,17.500,26.760,-5.220
949,63636.480000,-26.922,-11.130,-243.151,28.144,-350.118,-330.407,16.500,2.760,-2.220
950,63636.500000,-30.837,-7.083,-243.151,27.121,-347.208,-329.408,4.500,-36.240,-6.220
951,63636.520000,-36.711,-10.119,-246.116,24.150,-345.247,-328.373,7.500,-15.240,-8.220
952,63636.535000,-35.732,-7.083,-246.116,24.159,-344.279,-329.359,15.500,34.760,-14.220
953,63636.556000,-28.880,-9.107,-245.127,30.073,-345.298,-331.431,15.500,23.760,-15.220
954,63636.579000,-30.837,-9.107,-244.139,29.113,-349.159,-330.425,9.500,-21.240,-19.220
955,63636.596000,-34.753,-8.095,-245.127,25.191,-350.092,-329.370,9.500,-24.240,-19.220
956,63636.629000,-33.774,-10.119,-245.127,24.204,-351.052,-328.367,12.500,2.760,-24.220
957,63636.646000,-28.880,-9.107,-245.127,26.142,-345.263,-330.377,8.500,22.760,-23.220
958,63636.668000,-28.880,-9.107,-240.185,30.039,-347.235,-328.475,2.500,-4.240,-24.220
959,63636.685000,-29.859,-9.107,-241.174,31.009,-348.213,-327.507,1.500,-24.240,-21.220
960,63636.706000,-30.837,-10.119,-242.162,33.010,-349.196,-329.510,1.500,-11.240,-16.220
961,63636.725000,-28.880,-10.119,-242.162,30.092,-349.168,-330.443,-1.500,-7.240,-17.220
962,63636.744000,-30.837,-10.119,-240.185,27.138,-347.207,-330.393,-4.500,-9.240,-15.220
963,63636.761000,-29.859,-10.119,-241.174,36.905,-345.361,-330.568,-5.500,2.760,-13.220
964,63636.784000,-29.859,-9.107,-241.174,27.147,-346.238,-331.378,-5.500,3.760,-10.220
965,63636.801000,-28.880,-9.107,-244.139,32.022,-348.220,-329.493,-11.500,-13.240,-11.220
966,63636.824000,-33.774,-8.095,-242.162,33.979,-348.237,-329.528,-9.500,-7.240,-6.220
967,63636.846000,-29.859,-9.107,-244.139,28.056,-344.315,-328.443,-0.500,30.760,1.780
968,63636.869000,-29.859,-7.083,-242.162,28.109,-350.120,-328.437,4.500,31.760,8.780
969,63636.886000,-26.922,-10.119,-245.127,27.156,-347.206,-331.377,3.500,1.760,10.780
970,63636.904000,-34.753,-7.083,-250.069,29.129,-345.287,-333.383,8.500,22.760,5.780
971,63636.926000,-35.732,-9.107,-246.116,30.021,-343.365,-329.464,10.500,114.760,3.780
972,63636.944000,-23.006,-13.154,-242.162,31.104,-347.239,-333.416,-1.500,74.760,-3.220
973,63636.958000,-23.985,-9.107,-246.116,32.056,-344.346,-333.436,-4.500,16.760,-14.220
974,63636.995000,-30.837,-9.107,-246.116,27.181,-344.301,-334.335,-0.500,-7.240,-9.220
975,63637.10000,-28.880,-10.119,-247.104,33.035,-346.291,-332.467,2.500,23.760,-4.220
976,63637.33000,-24.964,-10.119,-245.127,31.060,-342.402,-333.421,-3.500,-8.240,-14.220
977,63637.65000,-28.880,-10.119,-247.104,33.978,-344.366,-331.501,-7.500,-19.240,-19.220
978,63637.85000,-30.837,-9.107,-245.127,28.134,-345.279,-332.381,1.500,11.760,-15.220
979,63637.104000,-27.901,-11.130,-245.127,28.177,-346.244,-334.350,8.500,10.760,-7.220
980,63637.123000,-26.922,-10.119,-245.127,29.095,-347.225,-330.427,-0.500,-30.240,-16.220
981,63637.131000,-28.880,-12.142,-245.127,33.035,-344.355,-333.454,-12.500,-44.240,-25.220
982,63637.163000,-31.816,-9.107,-244.139,30.100,-346.264,-332.415,-11.500,-32.240,-28.220
983,63637.183000,-30.837,-10.119,-244.139,30.100,-346.264,-332.415,0.500,20.760,-15.220
984,63637.205000,-27.901,-11.130,-240.185,33.061,-347.257,-333.451,15.500,41.760,1.780
985,63637.220000,-23.006,-11.130,-242.162,28.150,-343.342,-334.353,13.500,-1.240,2.780
986,63637.243000,-23.006,-11.130,-242.162,30.100,-346.264,-332.415,0.500,-53.240,-10.220
987,63637.258000,-28.880,-9.107,-239.197,28.142,-344.310,-333.367,-6.500,-14.240,-19.220
988,63637.275000,-28.880,-10.119,-241.174,32.999,-342.421,-332.471,-7.500,51.760,-9.220
989,63637.294000,-22.027,-11.130,-241.174,35.035,-345.338,-335.457,-10.500,36.760,12.780
990,63637.308000,-19.090,-12.142,-241.174,32.074,-346.281,-333.434,-11.500,-17.240,29.780
991,63637.350000,-23.985,-13.154,-242.162,28.151,-347.214,-332.379,-6.500,-32.240,36.780
992,63637.369000,-28.880,-13.154,-241.174,35.062,-348.240,-335.454,-7.500,-22.240,47.780
993,63637.383000,-30.837,-13.154,-242.162,24.228,-344.275,-333.298,-19.500,-18.240,49.780
994,63637.405000,-33.774,-13.154,-243.151,25.233,-347.186,-333.312,-36.500,-21.240,37.780
995,63637.425000,-32.795,-12.142,-247.104,30.100,-346.264,-332.415,-48.500,-10.240,17.780
996,63637.443000,-31.816,-12.142,-245.127,30.099,-344.328,-333.402,-51.500,-9.240,5.780
997,63637.465000,-32.795,-11.130,-247.104,23.267,-346.201,-333.279,-55.500,-26.240,1.780
998,63637.485000,-30.837,-9.107,-248.093,22.263,-345.225,-332.278,-59.500,-36.240,-4.220
999,63637.505000,-32.795,-9.107,-246.116,27.172,-345.269,-333.349,-52.500,-52.240,-10.220
1000,63637.528000,-32.795,-9.107,-245.127,26.169,-348.165,-330.374,-46.500,-48.240,-10.220
