Sample, Time, ACCX, ACCY, ACCZ, MAGX, MAGY, MAGZ, GYRX, GYRY, GYRZ
0,63793.861000,98.386,233.739,-35.583,-336.223,58.467,-292.936,-2.500,-12.240,11.780
1,63793.877000,99.365,232.727,-34.595,-331.270,57.458,-295.976,-2.500,-10.240,11.780
2,63793.898000,98.386,232.727,-35.583,-341.063,56.579,-294.817,-2.500,-13.240,14.780
3,63793.921000,97.407,232.727,-34.595,-339.088,54.626,-294.850,-2.500,-12.240,16.780
4,63793.943000,99.365,231.715,-35.583,-336.136,56.536,-296.873,-0.500,-13.240,13.780
5,63793.974000,99.365,231.715,-35.583,-339.106,56.561,-294.852,-1.500,-14.240,11.780
6,63793.978000,98.386,231.715,-35.583,-337.088,55.579,-297.840,-1.500,-14.240,11.780
7,63794.10000,98.386,231.715,-36.571,-336.145,55.568,-295.887,0.500,-17.240,14.780
8,63794.38000,102.302,229.692,-38.548,-335.148,53.624,-295.903,-1.500,-29.240,31.780
9,63794.45000,109.155,227.668,-41.514,-339.072,56.563,-296.821,-4.500,-46.240,63.780
10,63794.67000,116.987,229.692,-43.490,-338.093,56.554,-296.839,-14.500,-117.240,80.780
11,63794.87000,123.839,231.715,-44.479,-334.196,56.518,-295.923,-12.500,-243.240,111.780
12,63794.109000,124.818,228.680,-48.432,-337.097,54.611,-296.854,0.500,-330.240,149.780
13,63794.116000,121.881,224.632,-55.351,-337.019,55.583,-301.779,17.500,-282.240,207.780
14,63794.143000,126.776,220.585,-55.351,-338.992,51.728,-298.786,15.500,-211.240,262.780
15,63794.161000,151.250,213.502,-59.305,-335.061,49.758,-298.853,-4.500,-338.240,290.780
16,63794.181000,167.893,211.478,-61.282,-337.052,49.774,-296.849,-14.500,-656.240,290.780
17,63794.206000,165.935,210.466,-65.236,-340.941,50.778,-298.750,5.500,-810.240,330.780
18,63794.228000,168.872,214.514,-69.189,-335.034,44.920,-297.864,26.500,-801.240,390.780
19,63794.248000,189.430,214.514,-77.097,-334.003,44.914,-300.835,64.500,-800.240,530.780
20,63794.273000,224.673,208.443,-85.992,-330.919,38.120,-305.804,94.500,-1107.240,660.780
21,63794.295000,227.610,201.360,-104.772,-330.822,31.350,-307.767,159.500,-1620.240,744.780
22,63794.303000,210.967,211.478,-111.691,-332.716,22.660,-306.739,279.500,-1767.240,842.780
23,63794.325000,195.304,222.609,-114.656,-330.603,20.716,-314.649,466.500,-1603.240,926.780
24,63794.343000,192.367,223.621,-134.425,-328.498,17.802,-321.574,608.500,-1389.240,948.780
25,63794.366000,199.220,227.668,-152.216,-320.548,11.931,-325.646,723.500,-1261.240,992.780
26,63794.393000,202.157,238.798,-149.251,-308.640,6.994,-332.742,808.500,-1228.240,1088.780
27,63794.408000,199.220,250.941,-141.344,-299.565,5.961,-347.668,846.500,-1240.240,1156.780
28,63794.430000,187.472,252.964,-147.274,-298.456,3.056,-353.591,958.500,-1333.240,1290.780
29,63794.461000,179.641,240.822,-141.344,-286.541,1.023,-362.660,1054.500,-1417.240,1363.780
30,63794.480000,187.472,229.692,-152.216,-272.711,-3.934,-367.821,1082.500,-1622.240,1348.780
31,63794.497000,168.872,226.656,-165.066,-257.745,-16.634,-377.915,1069.500,-1922.240,1256.780
32,63794.513000,143.419,221.597,-167.042,-258.556,-27.262,-381.826,1066.500,-2091.240,1119.780
33,63794.541000,116.987,222.609,-166.054,-244.550,-45.760,-389.928,1130.500,-1959.240,955.780
34,63794.559000,116.987,208.443,-166.054,-238.477,-56.449,-395.930,1221.500,-1660.240,858.780
35,63794.579000,135.587,197.312,-170.996,-221.624,-69.171,-402.120,1226.500,-1548.240,807.780
36,63794.602000,131.671,198.324,-178.903,-205.808,-84.790,-403.366,1196.500,-1558.240,686.780
37,63794.620000,115.029,188.206,-184.834,-196.764,-101.311,-408.429,1209.500,-1705.240,595.780
38,63794.640000,97.407,177.075,-200.649,-180.878,-122.735,-410.654,1225.500,-1722.240,502.780
39,63794.659000,79.786,168.980,-201.637,-175.870,-133.420,-411.714,1289.500,-1663.240,439.780
40,63794.682000,69.996,168.980,-178.903,-160.019,-150.973,-413.943,1331.500,-1418.240,412.780
41,63794.699000,68.038,165.945,-165.066,-143.271,-157.894,-417.185,1368.500,-1161.240,402.780
42,63794.722000,64.122,153.802,-157.158,-125.516,-173.532,-417.480,1377.500,-1034.240,436.780
43,63794.742000,41.606,136.601,-149.251,-114.671,-188.144,-414.702,1364.500,-898.240,453.780
44,63794.751000,30.837,115.352,-146.286,-96.926,-195.072,-418.945,1346.500,-773.240,463.780
45,63794.780000,40.627,100.174,-152.216,-90.023,-200.939,-419.061,1262.500,-568.240,437.780
46,63794.812000,32.795,94.103,-132.448,-80.273,-202.965,-416.277,1182.500,-507.240,398.780
47,63794.835000,14.195,77.913,-114.656,-66.468,-212.763,-417.495,1075.500,-485.240,344.780
48,63794.843000,10.279,60.711,-113.668,-59.531,-216.692,-420.566,936.500,-384.240,343.780
49,63794.868000,18.111,47.557,-119.598,-48.766,-220.662,-418.783,794.500,-409.240,329.780
50,63794.886000,23.985,34.403,-127.506,-48.774,-225.501,-415.824,606.500,-601.240,282.780
51,63794.906000,14.195,23.273,-143.320,-47.792,-237.125,-409.921,407.500,-766.240,196.780
52,63794.922000,2.447,24.285,-164.077,-43.867,-247.807,-405.056,298.500,-789.240,130.780
53,63794.945000,-7.342,25.296,-174.950,-37.977,-253.667,-403.184,267.500,-650.240,107.780
54,63794.958000,-8.321,21.249,-180.880,-39.977,-256.555,-399.207,222.500,-355.240,90.780
55,63794.986000,9.300,16.190,-190.764,-36.079,-258.527,-397.305,175.500,-115.240,91.780
56,63795.8000,28.880,11.130,-201.637,-28.208,-259.564,-399.412,120.500,-117.240,60.780
57,63795.26000,29.859,10.119,-213.498,-37.005,-262.387,-398.269,50.500,-252.240,38.780
58,63795.46000,15.174,11.130,-223.382,-33.117,-263.392,-396.367,19.500,-280.240,47.780
59,63795.66000,4.405,11.130,-227.336,-37.065,-263.358,-394.329,29.500,-130.240,85.780
60,63795.95000,7.342,12.142,-227.336,-32.164,-264.370,-394.414,50.500,32.760,87.780
61,63795.123000,12.237,9.107,-231.290,-29.185,-265.362,-396.435,53.500,77.760,75.780
62,63795.138000,19.090,3.036,-241.174,-37.091,-264.328,-392.358,24.500,88.760,47.780
63,63795.156000,23.985,2.024,-246.116,-35.982,-267.233,-398.281,0.500,4.760,34.780
64,63795.177000,19.090,2.024,-247.104,-34.113,-261.448,-396.352,-4.500,-119.240,43.780
65,63795.196000,16.153,5.059,-253.035,-32.146,-266.305,-394.412,0.500,-161.240,35.780
66,63795.217000,13.216,9.107,-250.069,-33.133,-269.200,-392.423,9.500,-125.240,14.780
67,63795.242000,11.258,7.083,-256.000,-30.241,-268.262,-390.506,23.500,-55.240,6.780
68,63795.257000,15.174,5.059,-259.954,-34.085,-268.222,-394.376,36.500,0.760,2.780
69,63795.280000,21.048,5.059,-253.035,-35.106,-271.119,-390.417,38.500,-51.240,-4.220
70,63795.302000,19.090,7.083,-250.069,-38.977,-272.049,-392.316,42.500,-92.240,-1.220
71,63795.324000,10.279,6.071,-247.104,-30.275,-268.264,-388.536,62.500,-124.240,12.780
72,63795.342000,9.300,6.071,-243.151,-31.192,-273.091,-389.499,81.500,-60.240,27.780
73,63795.359000,12.237,7.083,-241.174,-32.214,-272.116,-387.513,83.500,-40.240,29.780
74,63795.377000,14.195,4.047,-238.208,-31.218,-272.124,-388.515,57.500,-62.240,3.780
75,63795.395000,12.237,6.071,-237.220,-28.248,-274.085,-389.550,35.500,-38.240,-15.220
76,63795.413000,13.216,8.095,-234.255,-29.235,-271.173,-390.520,18.500,20.760,-30.220
77,63795.442000,16.153,5.059,-234.255,-32.222,-273.085,-386.527,11.500,46.760,-15.220
78,63795.480000,23.985,3.036,-237.220,-28.222,-271.180,-392.507,4.500,30.760,9.780
79,63795.488000,25.943,4.047,-240.185,-26.291,-272.167,-390.571,4.500,-60.240,25.780
80,63795.506000,20.069,3.036,-244.139,-31.200,-274.059,-388.513,1.500,-107.240,48.780
81,63795.528000,12.237,2.024,-244.139,-34.127,-275.000,-388.460,4.500,-75.240,49.780
82,63795.547000,10.279,3.036,-245.127,-31.226,-275.028,-386.543,4.500,-26.240,35.780
83,63795.568000,10.279,4.047,-245.127,-32.188,-271.147,-389.484,6.500,11.760,19.780
84,63795.583000,11.258,3.036,-247.104,-31.174,-275.026,-389.497,0.500,27.760,11.780
85,63795.600000,16.153,4.047,-248.093,-27.277,-275.062,-388.582,1.500,11.760,0.780
86,63795.618000,14.195,4.047,-247.104,-26.273,-276.037,-389.583,6.500,2.760,-0.220
87,63795.641000,14.195,5.059,-248.093,-32.162,-272.113,-390.467,9.500,6.760,1.780
88,63795.668000,15.174,5.059,-246.116,-33.167,-271.138,-389.466,18.500,-0.240,21.780
89,63795.683000,12.237,5.059,-244.139,-25.382,-272.180,-386.650,28.500,-17.240,30.780
90,63795.706000,15.174,3.036,-242.162,-26.264,-275.069,-390.568,29.500,-5.240,32.780
91,63795.728000,16.153,2.024,-242.162,-31.175,-273.090,-390.484,15.500,5.760,20.780
92,63795.751000,17.132,2.024,-244.139,-31.201,-272.123,-389.500,-4.500,-24.240,14.780
93,63795.768000,14.195,1.012,-247.104,-30.222,-274.068,-388.531,-13.500,-75.240,19.780
94,63795.788000,12.237,3.036,-246.116,-33.156,-277.913,-386.505,-5.500,-77.240,17.780
95,63795.817000,10.279,4.047,-249.081,-33.218,-273.077,-385.525,14.500,-34.240,19.780
96,63795.848000,10.279,5.059,-249.081,-26.229,-278.939,-390.564,26.500,9.760,21.780
97,63795.867000,19.090,3.036,-248.093,-28.204,-276.986,-390.532,42.500,101.760,36.780
98,63795.879000,23.985,3.036,-244.139,-26.307,-276.039,-387.613,34.500,71.760,40.780
99,63795.904000,16.153,4.047,-241.174,-32.171,-271.146,-390.468,12.500,-43.240,33.780
100,63795.915000,11.258,4.047,-242.162,-32.179,-274.050,-388.496,-1.500,-85.240,24.780
101,63795.937000,10.279,4.047,-243.151,-34.171,-272.099,-387.479,-1.500,-43.240,23.780
102,63795.957000,11.258,3.036,-243.151,-31.227,-273.093,-387.529,1.500,-8.240,25.780
103,63795.981000,12.237,4.047,-241.174,-30.248,-275.037,-386.560,-2.500,-4.240,24.780
104,63796.7000,11.258,2.024,-245.127,-30.221,-277.940,-386.557,-5.500,-19.240,22.780
105,63796.11000,10.279,2.024,-244.139,-33.140,-274.040,-389.463,-9.500,-40.240,20.780
106,63796.41000,11.258,3.036,-244.139,-36.136,-274.985,-385.472,-10.500,-42.240,18.780
107,63796.55000,10.279,6.071,-247.104,-33.148,-276.944,-387.491,-5.500,-19.240,10.780
108,63796.71000,11.258,4.047,-247.104,-32.222,-273.085,-386.527,-3.500,-0.240,8.780
109,63796.88000,12.237,3.036,-247.104,-29.243,-276.013,-387.561,-6.500,3.760,5.780
110,63796.116000,13.216,2.024,-247.104,-36.093,-274.015,-388.427,-7.500,1.760,2.780
111,63796.141000,13.216,3.036,-245.127,-35.123,-274.992,-387.458,1.500,12.760,7.780
112,63796.162000,13.216,4.047,-247.104,-30.274,-272.135,-386.563,12.500,17.760,18.780
113,63796.184000,19.090,1.012,-249.081,-27.313,-273.128,-387.599,14.500,9.760,26.780
114,63796.205000,46.501,-177.075,-128.494,-51.784,-270.003,-388.154,-1667.500,3050.760,-745.220
115,63796.222000,-22.027,-100.174,-215.475,-49.800,-276.794,-386.212,-871.500,-728.240,310.780
116,63796.240000,-123.839,88.032,-272.803,-48.881,-277.774,-382.289,99.500,-469.240,-298.220
117,63796.262000,-19.090,46.545,-267.861,-39.981,-274.945,-389.341,437.500,871.760,140.780
118,63796.276000,78.807,-22.261,-251.058,-44.859,-263.285,-396.160,447.500,704.760,141.780
119,63796.303000,83.702,-12.142,-243.151,-37.066,-261.423,-395.315,16.500,-282.240,-19.220
120,63796.326000,2.447,25.296,-267.861,-39.064,-270.118,-388.379,-148.500,-510.240,-92.220
121,63796.341000,-11.258,26.308,-284.664,-45.834,-274.891,-390.222,17.500,-310.240,1.780
122,63796.370000,12.237,8.095,-278.734,-41.912,-273.958,-391.277,42.500,32.760,9.780
123,63796.388000,12.237,17.202,-263.907,-39.972,-273.977,-390.327,57.500,84.760,9.780
124,63796.408000,23.006,11.130,-256.000,-34.171,-270.163,-388.465,96.500,62.760,10.780
125,63796.433000,21.048,6.071,-250.069,-38.968,-273.017,-392.315,95.500,-27.240,-0.220
126,63796.452000,17.132,8.095,-245.127,-36.075,-274.014,-389.412,96.500,-63.240,3.780
127,63796.468000,13.216,7.083,-241.174,-31.175,-271.154,-391.470,80.500,-86.240,-7.220
128,63796.491000,8.321,7.083,-240.185,-34.180,-271.131,-387.480,73.500,-15.240,-20.220
129,63796.516000,14.195,6.071,-237.220,-40.007,-272.043,-389.344,61.500,1.760,-20.220
130,63796.538000,17.132,5.059,-232.278,-32.196,-275.987,-386.525,50.500,-12.240,-21.220
131,63796.557000,19.090,3.036,-230.301,-33.201,-273.076,-386.510,24.500,-76.240,-29.220
132,63796.603000,15.174,3.036,-235.243,-30.178,-276.969,-389.512,2.500,-126.240,-34.220
133,63796.607000,12.237,4.047,-240.185,-34.118,-277.903,-387.473,0.500,-97.240,-27.220
134,63796.627000,10.279,3.036,-239.197,-32.204,-276.955,-385.539,-1.500,-33.240,-16.220
135,63796.641000,14.195,3.036,-238.208,-32.212,-277.924,-384.553,-2.500,-8.240,-10.220
136,63796.658000,16.153,4.047,-243.151,-36.101,-274.983,-387.441,-2.500,-50.240,-7.220
137,63796.678000,14.195,3.036,-247.104,-30.162,-271.161,-393.457,-681.500,362.760,-97.220
138,63796.694000,187.472,-4.047,-254.023,-48.957,-286.490,-373.418,-896.500,-2343.240,647.780
139,63796.715000,62.164,-63.747,-170.996,-52.049,-318.413,-347.730,-1086.500,-2327.240,83.780
140,63796.741000,-278.516,58.688,-287.629,-54.006,-318.395,-347.695,126.500,-942.240,-498.220
141,63796.755000,-100.344,53.628,-289.606,-51.889,-300.014,-366.459,385.500,1526.760,213.780
142,63796.775000,27.901,-18.213,-255.012,-45.908,-289.414,-378.391,390.500,1598.760,18.780
143,63796.794000,66.080,-12.142,-250.069,-47.860,-276.813,-385.262,194.500,717.760,-59.220
144,63796.814000,36.711,3.036,-255.012,-42.976,-275.890,-385.349,-80.500,216.760,-177.220
145,63796.841000,11.258,31.368,-273.792,-41.955,-274.929,-388.322,38.500,126.760,-41.220
146,63796.863000,39.648,4.047,-274.780,-40.015,-276.883,-386.385,13.500,-159.240,-27.220
147,63796.903000,17.132,11.130,-264.896,-32.220,-280.828,-382.581,9.500,-211.240,-5.220
148,63796.922000,3.426,18.213,-255.012,-42.041,-274.934,-383.398,60.500,-50.240,2.780
149,63796.928000,15.174,10.119,-249.081,-40.023,-279.787,-384.413,76.500,-0.240,-3.220
150,63796.951000,15.174,9.107,-242.162,-37.148,-276.914,-382.498,64.500,-13.240,-8.220
151,63796.966000,17.132,8.095,-239.197,-42.023,-278.804,-382.410,48.500,-73.240,-9.220
152,63796.988000,11.258,7.083,-240.185,-39.053,-280.765,-383.444,38.500,-55.240,-10.220
153,63797.6000,16.153,6.071,-231.290,-40.031,-280.756,-383.427,25.500,-61.240,2.780
154,63797.28000,11.258,8.095,-232.278,-37.097,-276.911,-385.452,6.500,-71.240,3.780
155,63797.46000,10.279,6.071,-234.255,-37.140,-277.881,-382.497,2.500,-57.240,16.780
156,63797.60000,7.342,5.059,-238.208,-38.099,-285.614,-379.518,0.500,-43.240,15.780
157,63797.87000,302.011,512.000,-25.699,-49.845,-270.021,-387.204,-8.500,-1.240,20.780
158,63797.106000,107.197,-120.411,-198.672,-53.771,-289.345,-376.283,377.500,-1733.240,848.780
159,63797.130000,-165.935,38.451,-248.093,-63.802,-309.596,-351.470,-951.500,-1912.240,-106.220
160,63797.162000,-166.914,54.640,-305.421,-54.898,-316.445,-353.589,261.500,-502.240,-367.220
161,63797.166000,-24.964,17.202,-284.664,-47.976,-298.113,-367.515,491.500,1475.760,71.780
162,63797.196000,57.270,-11.130,-256.988,-46.864,-276.821,-386.264,494.500,1634.760,84.780
163,63797.211000,40.627,37.439,-249.081,-42.960,-273.953,-387.321,-43.500,875.760,-105.220
164,63797.238000,23.985,25.296,-273.792,-46.840,-268.108,-392.181,119.500,493.760,-57.220
165,63797.253000,63.143,2.024,-273.792,-40.027,-262.365,-393.293,134.500,407.760,-11.220
166,63797.276000,39.648,14.166,-268.849,-45.889,-265.215,-392.202,85.500,-85.240,15.780
167,63797.293000,7.342,15.178,-259.954,-39.965,-269.137,-393.286,86.500,-315.240,50.780
168,63797.316000,9.300,10.119,-245.127,-36.076,-270.142,-391.385,120.500,-107.240,50.780
169,63797.343000,19.090,5.059,-235.243,-33.176,-268.235,-390.454,128.500,23.760,33.780
170,63797.372000,20.069,3.036,-230.301,-38.968,-271.081,-393.302,104.500,-15.240,15.780
171,63797.400000,16.153,2.024,-229.313,-38.033,-272.060,-390.364,60.500,-87.240,-1.220
172,63797.402000,16.153,4.047,-232.278,-34.136,-274.032,-388.461,25.500,-105.240,-23.220
173,63797.410000,15.174,3.036,-229.313,-32.178,-277.922,-386.523,11.500,-115.240,-27.220
174,63797.437000,13.216,3.036,-231.290,-39.055,-271.086,-388.378,-12.500,-116.240,-30.220
175,63797.455000,12.237,5.059,-232.278,-38.084,-273.999,-386.423,-25.500,-92.240,-27.220
176,63797.477000,12.237,4.047,-240.185,-38.049,-275.933,-387.405,-30.500,-57.240,-20.220
177,63797.495000,17.132,4.047,-245.127,-38.058,-274.965,-387.406,-34.500,-26.240,-11.220
178,63797.516000,331.380,446.229,-229.313,-51.760,-263.226,-393.084,-2380.500,3086.760,-1105.220
179,63797.545000,82.723,-117.375,-161.112,-62.514,-267.967,-390.920,-1073.500,-442.240,466.780
180,63797.563000,-128.734,70.830,-273.792,-53.739,-277.728,-384.172,484.500,-605.240,-600.220
181,63797.583000,-48.459,28.332,-339.027,-51.740,-272.904,-389.136,1195.500,548.760,190.780
182,63797.603000,155.166,-73.866,-239.197,-49.777,-264.210,-394.103,460.500,797.760,618.780
183,63797.626000,23.985,81.960,-246.116,-46.892,-268.111,-389.227,-150.500,-413.240,-340.220
184,63797.658000,-27.901,47.557,-283.676,-47.886,-275.847,-384.278,-54.500,-473.240,-33.220
185,63797.676000,2.447,-4.047,-294.548,-37.098,-271.104,-388.412,56.500,82.760,-44.220
186,63797.695000,31.816,14.166,-282.687,-47.836,-270.036,-390.193,82.500,180.760,-10.220
187,63797.703000,14.195,19.225,-269.838,-44.918,-270.064,-389.260,139.500,103.760,36.780
188,63797.726000,13.216,14.166,-258.965,-44.883,-270.062,-391.229,174.500,213.760,18.780
189,63797.748000,37.690,8.095,-248.093,-39.030,-266.245,-392.322,161.500,65.760,15.780
190,63797.768000,24.964,3.036,-242.162,-39.038,-269.149,-390.349,128.500,-33.240,24.780
191,63797.801000,15.174,4.047,-239.197,-35.107,-269.184,-391.403,124.500,-75.240,17.780
192,63797.816000,26.922,5.059,-238.208,-31.210,-271.156,-389.501,116.500,-97.240,12.780
193,63797.824000,26.922,6.071,-232.278,-39.990,-272.042,-390.329,91.500,-123.240,17.780
194,63797.852000,30.837,3.036,-228.324,-24.316,-276.055,-389.617,66.500,-114.240,39.780
195,63797.881000,49.438,2.024,-223.382,-33.149,-273.073,-389.464,38.500,-70.240,77.780
196,63797.885000,82.723,1.012,-207.568,-31.244,-273.094,-386.545,-26.500,-126.240,116.780
197,63797.921000,96.428,-9.107,-188.788,-39.080,-273.991,-385.421,-139.500,-193.240,154.780
198,63797.953000,94.470,-18.213,-166.054,-43.919,-279.751,-385.328,-248.500,7.760,260.780
199,63797.967000,111.113,-4.047,-122.564,-44.882,-273.934,-389.256,-302.500,230.760,502.780
200,63797.971000,130.692,14.166,-74.131,-59.605,-265.092,-390.975,-426.500,655.760,683.780
201,63797.998000,149.293,13.154,-65.236,-80.201,-246.517,-397.523,-600.500,897.760,1027.780
202,63798.18000,133.629,14.166,-99.830,-85.148,-236.797,-399.416,-748.500,1118.760,1353.780
203,63798.41000,100.344,5.059,-148.263,-111.705,-206.559,-406.857,-777.500,1551.760,1637.780
204,63798.56000,122.860,4.047,-147.274,-127.451,-189.000,-410.537,-851.500,1852.760,1804.780
205,63798.65000,171.809,15.178,-131.459,-156.970,-157.769,-416.942,-1065.500,1522.760,1822.780
206,63798.97000,191.388,48.569,-135.413,-165.978,-147.053,-410.889,-1314.500,956.760,1788.780
207,63798.115000,172.788,78.925,-162.100,-197.554,-129.361,-404.444,-1549.500,649.760,1802.780
208,63798.137000,149.293,90.055,-208.556,-230.222,-104.891,-395.035,-1646.500,565.760,1828.780
209,63798.156000,154.187,78.925,-235.243,-243.168,-100.917,-383.981,-1848.500,252.760,1823.780
210,63798.178000,157.124,108.269,-240.185,-273.936,-92.922,-362.773,-2010.500,-337.240,1703.780
211,63798.198000,116.008,151.779,-265.884,-295.679,-91.771,-350.576,-1974.500,-902.240,1591.780
212,63798.219000,48.459,175.051,-307.398,-320.549,-86.732,-329.468,-1754.500,-873.240,1517.780
213,63798.241000,7.342,185.170,-315.305,-322.758,-83.824,-316.635,-1528.500,-427.240,1492.780
214,63798.263000,-2.447,197.312,-330.131,-343.673,-70.108,-302.498,-1333.500,-121.240,1403.780
215,63798.281000,10.279,218.561,-353.853,-352.864,-56.498,-287.585,-1080.500,-198.240,1338.780
216,63798.303000,-4.405,219.573,-366.703,-359.808,-59.345,-280.567,-817.500,-395.240,1170.780
217,63798.326000,-98.386,214.514,-414.147,-372.798,-50.534,-269.519,-668.500,-747.240,1020.780
218,63798.343000,-149.293,226.656,-430.950,-368.849,-54.439,-269.584,-281.500,-789.240,654.780
219,63798.366000,-159.082,233.739,-435.892,-372.736,-57.305,-269.512,147.500,-607.240,259.780
220,63798.388000,-123.839,237.787,-438.857,-366.778,-61.226,-272.566,547.500,-402.240,-51.220
221,63798.416000,-92.512,243.858,-421.066,-358.671,-69.024,-284.514,862.500,-524.240,-378.220
222,63798.443000,-80.765,245.881,-403.274,-354.591,-75.826,-290.485,1083.500,-916.240,-779.220
223,63798.462000,-87.618,243.858,-382.517,-339.510,-99.166,-301.554,1271.500,-1165.240,-1205.220
224,63798.466000,-83.702,244.870,-363.737,-320.392,-126.407,-317.611,1445.500,-1093.240,-1586.220
225,63798.497000,-59.228,246.893,-342.981,-299.615,-142.067,-322.883,1529.500,-968.240,-1758.220
226,63798.511000,-29.859,239.810,-314.317,-269.742,-172.310,-337.158,1659.500,-772.240,-2072.220
227,63798.531000,-9.300,228.680,-294.548,-257.781,-184.987,-343.262,1726.500,-716.240,-2429.220
228,63798.547000,15.174,213.502,-273.792,-216.166,-217.273,-356.758,1745.500,-605.240,-2778.220
229,63798.574000,59.228,206.419,-265.884,-196.359,-231.956,-362.998,1742.500,-448.240,-3023.220
230,63798.596000,112.092,195.289,-256.988,-150.953,-254.605,-374.604,1755.500,-512.240,-3092.220
231,63798.619000,137.545,163.921,-242.162,-93.025,-282.220,-372.643,1738.500,-947.240,-3059.220
232,63798.637000,150.272,136.601,-227.336,-67.502,-296.965,-370.124,1548.500,-1430.240,-3060.220
233,63798.658000,127.755,121.423,-230.301,-14.648,-327.450,-356.257,1373.500,-1826.240,-3150.220
234,63798.680000,78.807,120.411,-229.313,7.765,-338.307,-345.811,1331.500,-1842.240,-3170.220
235,63798.688000,47.480,108.269,-205.591,67.336,-354.342,-332.080,1384.500,-1405.240,-3084.220
236,63798.708000,46.501,77.913,-208.556,93.626,-357.494,-323.681,1490.500,-870.240,-2945.220
237,63798.731000,58.249,64.759,-192.741,151.114,-352.225,-313.876,1559.500,-486.240,-2933.220
238,63798.753000,66.080,46.545,-174.950,204.600,-343.054,-301.050,1602.500,-347.240,-2934.220
239,63798.781000,86.639,38.451,-134.425,228.012,-333.592,-302.460,1567.500,-45.240,-2884.220
240,63798.796000,101.323,7.083,-115.645,274.584,-311.780,-292.481,1553.500,380.760,-2593.220
241,63798.818000,142.440,-33.391,-98.842,296.878,-296.510,-288.955,1446.500,683.760,-2273.220
242,63798.841000,195.304,-60.711,-64.247,334.705,-273.646,-282.760,1223.500,424.760,-1972.220
243,63798.870000,233.484,-87.020,-41.514,354.134,-264.153,-280.161,1082.500,160.760,-1833.220
244,63798.872000,220.757,-110.292,-41.514,373.266,-246.933,-264.769,787.500,-349.240,-1480.220
245,63798.905000,210.967,-135.589,-37.560,377.067,-242.136,-260.904,583.500,-340.240,-1041.220
246,63798.925000,215.862,-161.897,-34.595,389.639,-239.356,-254.238,400.500,-93.240,-604.220
247,63798.947000,228.589,-182.134,-34.595,393.474,-234.556,-252.343,185.500,49.760,-197.220
248,63798.964000,223.694,-189.217,-37.560,392.583,-238.414,-255.276,-46.500,55.760,212.780
249,63798.992000,209.010,-185.170,-40.525,385.795,-241.252,-257.121,-307.500,87.760,577.780
250,63799.11000,199.220,-167.968,-41.514,374.219,-245.976,-263.802,-543.500,192.760,921.780
251,63799.30000,196.283,-150.767,-35.583,353.907,-256.422,-271.306,-654.500,256.760,1245.780
252,63799.43000,192.367,-125.470,-32.618,346.358,-266.014,-281.991,-905.500,325.760,1390.780
253,63799.57000,178.662,-100.174,-38.548,318.340,-278.319,-295.263,-1175.500,329.760,1677.780
254,63799.80000,161.040,-77.913,-56.340,277.644,-291.473,-310.279,-1418.500,337.760,1939.780
255,63799.105000,158.103,-45.534,-66.224,253.461,-300.914,-320.669,-1621.500,331.760,2167.780
256,63799.127000,160.061,-3.036,-72.154,204.002,-309.147,-340.458,-1804.500,358.760,2395.780
257,63799.145000,145.377,31.368,-101.807,182.562,-310.882,-344.014,-1925.500,404.760,2571.780
258,63799.162000,99.365,67.794,-153.205,127.066,-314.231,-356.811,-1890.500,694.760,2653.780
259,63799.185000,83.702,77.913,-157.158,94.974,-311.022,-369.044,-1938.500,1350.760,2646.780
260,63799.210000,118.945,97.138,-156.170,39.281,-291.152,-382.849,-2028.500,1549.760,2629.780
261,63799.238000,136.566,124.459,-213.498,13.966,-274.460,-398.172,-2217.500,1392.760,2543.780
262,63799.253000,111.113,150.767,-237.220,-48.739,-259.376,-400.034,-2257.500,1371.760,2403.780
263,63799.271000,96.428,189.217,-198.672,-100.808,-221.168,-407.033,-2378.500,2025.760,2398.780
264,63799.298000,140.482,213.502,-203.614,-129.328,-199.624,-409.507,-2661.500,2202.760,2342.780
265,63799.313000,176.704,215.526,-289.606,-186.555,-170.098,-396.715,-2770.500,1242.760,2222.780
266,63799.331000,170.830,212.490,-284.664,-205.347,-163.165,-388.515,-2875.500,332.760,2102.780
267,63799.351000,142.440,258.024,-250.069,-254.925,-144.366,-360.095,-2984.500,-112.240,2058.780
268,63799.373000,116.008,321.771,-282.687,-282.609,-139.294,-345.829,-2819.500,-579.240,2088.780
269,63799.396000,46.501,336.949,-376.587,-323.405,-127.353,-312.634,-2628.500,-722.240,2083.780
270,63799.413000,-6.363,328.854,-401.297,-355.353,-110.649,-284.524,-2220.500,-675.240,2106.780
271,63799.442000,-52.375,340.996,-383.506,-353.692,-101.005,-272.751,-1795.500,-331.240,2044.780
272,63799.458000,-94.470,343.020,-404.263,-378.601,-80.481,-257.568,-1319.500,16.760,1807.780
273,63799.481000,-142.440,316.711,-450.718,-381.720,-71.754,-251.616,-850.500,252.760,1382.780
274,63799.526000,-172.788,271.178,-479.382,-386.841,-58.172,-245.635,-402.500,396.760,896.780
275,63799.526000,-163.977,252.964,-480.371,-388.860,-53.318,-244.620,-1.500,178.760,385.780
276,63799.543000,-163.977,250.941,-462.579,-382.893,-56.270,-248.660,379.500,-73.240,-102.220
277,63799.566000,-149.293,244.870,-445.776,-374.829,-65.039,-257.653,556.500,-178.240,-353.220
278,63799.583000,-142.440,257.012,-442.811,-372.699,-66.982,-266.548,914.500,-207.240,-825.220
279,63799.601000,-110.134,264.095,-434.903,-355.567,-85.496,-285.534,1266.500,-85.240,-1188.220
280,63799.621000,-13.216,283.320,-414.147,-352.439,-93.255,-292.472,1586.500,-193.240,-1488.220
281,63799.643000,-15.174,292.427,-386.471,-322.516,-115.752,-313.648,1904.500,-507.240,-1742.220
282,63799.666000,-8.321,291.415,-353.853,-306.494,-129.424,-327.698,2212.500,-450.240,-1979.220
283,63799.686000,32.795,288.379,-328.154,-265.756,-152.016,-352.019,2430.500,-167.240,-2179.220
284,63799.703000,77.828,284.332,-298.502,-244.814,-166.699,-367.139,2523.500,-195.240,-2356.220
285,63799.717000,100.344,269.154,-266.873,-196.361,-188.400,-385.691,2529.500,-549.240,-2493.220
286,63799.740000,86.639,250.941,-241.174,-144.097,-212.079,-397.417,2516.500,-758.240,-2561.220
287,63799.767000,81.744,234.751,-217.452,-119.441,-225.841,-401.775,2506.500,-773.240,-2666.220
288,63799.787000,116.008,215.526,-191.753,-64.400,-239.876,-409.624,2499.500,-526.240,-2701.220
289,63799.805000,148.314,185.170,-194.718,-31.077,-249.855,-408.233,2433.500,-590.240,-2690.220
290,63799.827000,159.082,148.743,-193.730,29.655,-268.793,-403.378,2315.500,-1121.240,-2701.220
291,63799.849000,130.692,129.518,-178.903,52.110,-276.743,-396.875,2191.500,-1541.240,-2704.220
292,63799.868000,102.302,106.245,-171.985,112.530,-293.763,-375.282,2116.500,-1485.240,-2663.220
293,63799.891000,109.155,82.972,-162.100,169.959,-295.273,-358.576,2082.500,-1069.240,-2590.220
294,63799.908000,122.860,58.688,-151.228,195.245,-299.385,-348.190,2061.500,-725.240,-2477.220
295,63799.926000,118.945,27.320,-157.158,251.554,-291.215,-328.522,2041.500,-639.240,-2406.220
296,63799.948000,119.924,6.071,-135.413,280.672,-280.848,-321.174,2061.500,-405.240,-2257.220
297,63799.991000,86.639,5.059,-117.622,323.228,-262.877,-303.243,2162.500,128.760,-1981.220
298,63800.10000,121.881,-17.202,-67.212,340.587,-248.533,-296.676,2361.500,1134.760,-1640.220
299,63800.12000,221.736,-58.688,5.931,380.194,-214.082,-286.588,2315.500,1728.760,-1284.220
300,63800.37000,260.895,-133.565,35.583,407.959,-191.145,-264.463,1896.500,1090.760,-997.220
301,63800.60000,229.568,-163.921,18.780,423.431,-182.586,-258.840,1406.500,235.760,-850.220
302,63800.76000,197.262,-184.158,22.734,438.808,-175.001,-247.308,1078.500,98.760,-576.220
303,63800.97000,204.115,-204.395,36.571,437.682,-172.097,-240.400,909.500,147.760,-364.220
304,63800.113000,203.136,-211.478,53.375,444.426,-168.294,-236.586,565.500,196.760,-267.220
305,63800.140000,211.946,-229.692,64.247,446.296,-164.445,-233.670,215.500,263.760,-49.220
306,63800.157000,231.526,-226.656,68.201,442.503,-166.338,-239.508,-232.500,183.760,161.780
307,63800.180000,218.799,-206.419,59.305,441.657,-175.033,-242.436,-642.500,-5.240,409.780
308,63800.200000,199.220,-194.277,55.351,429.240,-177.804,-257.964,-963.500,118.760,702.780
309,63800.217000,203.136,-179.099,58.317,404.269,-189.161,-278.183,-1304.500,365.760,986.780
310,63800.245000,213.904,-145.708,53.375,385.965,-193.815,-291.636,-1668.500,356.760,1224.780
311,63800.260000,217.820,-111.304,39.537,351.279,-207.015,-314.634,-2047.500,154.760,1422.780
312,63800.292000,198.241,-69.818,4.942,334.949,-215.558,-327.133,-2226.500,47.760,1516.780
313,63800.311000,157.124,-25.296,-37.560,291.545,-232.544,-352.925,-2436.500,106.760,1694.780
314,63800.331000,171.809,6.071,-48.432,255.635,-234.134,-368.039,-2553.500,623.760,1856.780
315,63800.343000,189.430,50.593,-54.363,204.207,-233.639,-391.741,-2716.500,976.760,1945.780
316,63800.361000,199.220,97.138,-85.004,143.920,-227.258,-415.293,-2919.500,1041.760,2005.780
317,63800.375000,169.851,136.601,-145.297,111.724,-222.120,-422.605,-2929.500,1112.760,2131.780
318,63800.396000,172.788,153.802,-152.216,48.256,-206.047,-437.252,-2960.500,1374.760,2230.780
319,63800.418000,220.757,183.146,-123.552,15.964,-198.011,-440.628,-3221.500,1276.760,2229.780
320,63800.450000,226.631,247.905,-136.402,-52.682,-179.006,-440.421,-3438.500,1041.760,2239.780
321,63800.468000,139.503,296.474,-219.429,-89.045,-167.071,-436.838,-3389.500,745.760,2276.780
322,63800.482000,136.566,260.047,-232.278,-148.123,-145.264,-425.974,-3256.500,1036.760,2341.780
323,63800.500000,209.989,260.047,-234.255,-177.881,-123.726,-413.659,-3484.500,770.760,2225.780
324,63800.525000,194.325,336.949,-266.873,-235.163,-116.464,-386.074,-3556.500,37.760,2053.780
325,63800.545000,104.260,381.470,-300.479,-284.793,-99.605,-353.713,-3323.500,-61.240,2135.780
326,63800.567000,82.723,366.293,-345.946,-308.677,-89.735,-335.582,-3075.500,44.760,2196.780
327,63800.588000,99.365,362.245,-389.436,-347.570,-70.071,-303.414,-2799.500,-390.240,2206.780
328,63800.620000,56.291,379.447,-420.077,-362.595,-64.150,-286.419,-2307.500,-837.240,2174.780
329,63800.648000,-26.922,381.470,-449.730,-382.835,-45.619,-257.534,-2015.500,-884.240,2124.780
330,63800.657000,-116.987,357.186,-480.371,-386.889,-39.784,-252.547,-1355.500,-774.240,1825.780
331,63800.677000,-175.725,310.640,-480.371,-390.147,-29.129,-239.703,-722.500,-474.240,1305.780
332,63800.697000,-193.346,271.178,-480.371,-396.071,-27.142,-237.632,-192.500,-189.240,665.780
333,63800.715000,-197.262,268.142,-480.371,-397.041,-24.229,-239.587,317.500,-60.240,90.780
334,63800.732000,-175.725,273.202,-480.371,-383.126,-27.245,-250.659,802.500,-6.240,-356.220
335,63800.755000,-129.713,270.166,-463.568,-379.063,-32.112,-256.632,1191.500,-114.240,-784.220
336,63800.777000,-87.618,272.190,-420.077,-363.854,-48.670,-278.539,1494.500,-241.240,-1189.220
337,63800.797000,-54.333,271.178,-392.402,-360.596,-59.326,-291.383,1750.500,-283.240,-1547.220
338,63800.817000,-33.774,278.261,-374.610,-328.733,-81.841,-311.609,1875.500,-251.240,-1701.220
339,63800.836000,6.363,283.320,-356.819,-301.633,-107.208,-337.655,2091.500,-252.240,-1949.220
340,63800.861000,54.333,287.368,-342.981,-287.654,-118.932,-347.733,2276.500,-519.240,-2143.220
341,63800.883000,65.101,288.379,-315.305,-245.963,-144.438,-369.114,2404.500,-654.240,-2309.220
342,63800.906000,69.996,283.320,-298.502,-221.177,-159.161,-380.364,2496.500,-571.240,-2471.220
343,63800.921000,85.660,273.202,-286.641,-169.744,-185.726,-398.963,2544.500,-418.240,-2598.220
344,63800.943000,131.671,251.953,-236.232,-147.011,-195.596,-407.230,2583.500,-512.240,-2663.220
345,63800.963000,142.440,228.680,-217.452,-85.057,-218.401,-414.206,2561.500,-692.240,-2670.220
346,63800.981000,136.566,198.324,-212.510,-59.485,-227.336,-417.601,2536.500,-812.240,-2654.220
347,63801.13000,136.566,171.004,-201.637,0.321,-246.263,-415.684,2477.500,-1002.240,-2660.220
348,63801.32000,133.629,152.791,-193.730,56.055,-261.291,-406.808,2406.500,-1090.240,-2667.220
349,63801.46000,134.608,124.459,-184.834,85.368,-268.335,-401.411,2350.500,-1158.240,-2659.220
350,63801.73000,139.503,96.126,-162.100,143.742,-273.728,-380.780,2274.500,-1119.240,-2641.220
351,63801.88000,140.482,70.830,-141.344,171.071,-275.916,-376.339,2152.500,-1010.240,-2585.220
352,63801.106000,157.124,37.439,-113.668,225.451,-276.438,-353.673,2040.500,-981.240,-2503.220
353,63801.128000,150.272,16.190,-85.992,255.532,-269.953,-343.384,1902.500,-907.240,-2384.220
354,63801.143000,120.902,-2.024,-75.120,301.995,-260.729,-320.590,1834.500,-473.240,-2193.220
355,63801.163000,135.587,-35.415,-57.328,341.649,-236.923,-307.537,1833.500,-32.240,-2054.220
356,63801.191000,202.157,-66.783,-16.803,352.184,-223.483,-301.832,1737.500,855.760,-1766.220
357,63801.211000,251.105,-109.281,12.849,391.897,-196.769,-293.706,1546.500,980.760,-1567.220
358,63801.228000,258.937,-147.731,25.699,402.406,-184.298,-286.031,1237.500,512.760,-1434.220
359,63801.251000,231.526,-171.004,26.687,419.738,-168.988,-278.480,904.500,275.760,-1127.220
360,63801.273000,222.715,-195.289,27.676,424.455,-159.363,-273.653,625.500,416.760,-666.220
361,63801.288000,237.400,-202.372,33.606,433.183,-154.608,-271.844,305.500,413.760,-215.220
362,63801.312000,256.979,-200.348,43.490,426.289,-149.709,-271.727,-88.500,28.760,150.780
363,63801.328000,242.294,-193.265,39.537,419.554,-158.351,-273.567,-517.500,-262.240,460.780
364,63801.341000,190.409,-181.123,15.815,405.167,-176.592,-280.182,-680.500,-635.240,609.780
365,63801.378000,156.145,-165.945,-4.942,400.432,-182.346,-285.999,-905.500,-373.240,876.780
366,63801.393000,162.998,-154.814,-3.954,378.327,-191.798,-303.317,-1074.500,251.760,1117.780
367,63801.416000,195.304,-129.518,8.896,362.914,-197.449,-313.866,-1331.500,581.760,1318.780
368,63801.433000,192.367,-98.150,-0.988,330.124,-207.766,-334.932,-1657.500,399.760,1502.780
369,63801.453000,162.019,-65.771,-40.525,315.655,-211.493,-344.516,-1935.500,262.760,1685.780
370,63801.471000,148.314,-43.510,-64.247,270.215,-225.562,-367.323,-2049.500,523.760,1830.780
371,63801.497000,169.851,-11.130,-54.363,222.711,-228.005,-390.106,-2209.500,906.760,1925.780
372,63801.515000,197.262,26.308,-50.409,191.554,-225.776,-399.402,-2328.500,1024.760,1986.780
373,63801.542000,174.746,68.806,-100.819,134.125,-222.330,-417.095,-2514.500,960.760,2096.780
374,63801.565000,173.767,94.103,-116.633,106.864,-216.266,-427.448,-2589.500,1167.760,2205.780
375,63801.577000,221.736,129.518,-96.865,41.370,-196.308,-440.095,-2846.500,1386.760,2237.780
376,63801.598000,245.231,208.443,-126.517,15.980,-192.202,-444.573,-3129.500,1005.760,2190.780
377,63801.628000,204.115,259.036,-154.193,-47.772,-179.050,-441.492,-3233.500,560.760,2236.780
378,63801.631000,158.103,260.047,-202.625,-110.728,-164.948,-428.581,-3229.500,435.760,2238.780
379,63801.657000,161.040,266.119,-244.139,-151.083,-152.014,-420.991,-3241.500,680.760,2197.780
380,63801.683000,144.398,306.593,-264.896,-203.461,-123.502,-405.331,-3128.500,1121.760,2110.780
381,63801.712000,128.734,323.794,-275.768,-223.320,-106.886,-397.123,-3046.500,1377.760,2072.780
382,63801.726000,167.893,328.854,-273.792,-265.170,-69.775,-372.799,-2993.500,1648.760,1971.780
383,63801.748000,209.010,349.091,-295.537,-292.917,-57.930,-358.540,-3033.500,1060.760,1890.780
384,63801.766000,175.725,356.174,-322.224,-334.780,-36.306,-325.338,-2951.500,23.760,1856.780
385,63801.789000,122.860,344.032,-365.714,-347.830,-34.273,-307.389,-2706.500,-719.240,1866.780
386,63801.803000,57.270,367.304,-373.622,-372.979,-21.507,-274.472,-2293.500,-768.240,1839.780
387,63801.828000,-17.132,363.257,-379.552,-391.237,-2.025,-247.592,-1789.500,-331.240,1735.780
388,63801.842000,-65.101,315.700,-435.892,-391.367,0.872,-241.686,-1367.500,-137.240,1415.780
389,63801.873000,-75.870,252.964,-474.440,-401.483,8.685,-226.749,-1217.500,-253.240,806.780
390,63801.876000,-120.902,216.538,-480.371,-401.543,5.778,-221.823,-927.500,-751.240,437.780
391,63801.902000,-190.409,236.775,-480.371,-411.387,2.960,-216.723,-418.500,-603.240,-248.220
392,63801.930000,-191.388,292.427,-480.371,-408.373,-1.902,-218.739,307.500,237.760,-613.220
393,63801.967000,-119.924,313.676,-456.649,-397.280,-3.917,-236.653,1041.500,776.760,-769.220
394,63801.981000,-23.985,289.391,-419.089,-381.154,-15.648,-257.599,1505.500,361.760,-1002.220
395,63801.985000,-1.468,289.391,-401.297,-372.103,-25.393,-266.607,1766.500,-210.240,-1346.220
396,63802.13000,-8.321,305.581,-372.633,-356.719,-47.748,-295.402,2018.500,-263.240,-1635.220
397,63802.31000,14.195,316.711,-329.143,-342.724,-55.600,-308.439,2266.500,-197.240,-1817.220
398,63802.51000,51.396,313.676,-292.571,-310.680,-81.008,-337.525,2358.500,-259.240,-1898.220
399,63802.73000,72.933,308.617,-262.919,-293.722,-93.724,-349.624,2462.500,-507.240,-2094.220
400,63802.91000,87.618,302.545,-256.000,-253.917,-125.016,-371.949,2458.500,-724.240,-2351.220
401,63802.118000,92.512,303.557,-256.988,-234.984,-139.684,-384.081,2469.500,-854.240,-2561.220
402,63802.133000,101.323,289.391,-249.081,-189.552,-165.235,-395.684,2513.500,-761.240,-2669.220
403,63802.155000,97.407,280.285,-247.104,-124.473,-188.056,-413.544,2642.500,-477.240,-2685.220
404,63802.176000,113.071,260.047,-230.301,-104.745,-195.968,-418.806,2761.500,-291.240,-2642.220
405,63802.198000,142.440,219.573,-255.012,-40.906,-211.052,-425.825,2811.500,-542.240,-2653.220
406,63802.221000,174.746,184.158,-260.942,-14.442,-218.065,-425.300,2789.500,-709.240,-2732.220
407,63802.243000,170.830,184.158,-244.139,57.979,-233.241,-419.672,2737.500,-1010.240,-2757.220
408,63802.257000,167.893,183.146,-218.440,82.409,-241.209,-414.189,2661.500,-1063.240,-2701.220
409,63802.275000,199.220,153.802,-188.788,140.897,-257.241,-394.531,2503.500,-1433.240,-2568.220
410,63802.296000,176.704,113.328,-130.471,201.229,-268.459,-370.974,2293.500,-1938.240,-2475.220
411,63802.317000,110.134,104.221,-99.830,230.325,-272.612,-354.748,2153.500,-1714.240,-2343.220
412,63802.340000,105.239,69.818,-49.421,278.763,-263.405,-332.974,2174.500,-578.240,-2087.220
413,63802.362000,180.620,22.261,-6.919,297.083,-252.943,-323.466,2100.500,630.760,-1807.220
414,63802.390000,237.400,-62.735,12.849,335.810,-227.188,-314.336,1843.500,635.760,-1583.220
415,63802.408000,226.631,-134.577,21.745,355.171,-221.571,-305.825,1656.500,299.760,-1500.220
416,63802.437000,181.598,-147.731,26.687,386.064,-208.328,-289.652,1276.500,-263.240,-1319.220
417,63802.440000,170.830,-135.589,33.606,387.863,-202.547,-283.784,923.500,-162.240,-1072.220
418,63802.456000,208.031,-147.731,34.595,399.368,-190.085,-277.111,629.500,250.760,-797.220
419,63802.486000,265.790,-186.182,33.606,408.061,-183.396,-274.319,319.500,402.760,-378.220
420,63802.501000,282.432,-197.312,6.919,406.191,-187.245,-277.235,-106.500,64.760,46.780
421,63802.523000,224.673,-180.111,-13.838,396.520,-191.989,-280.996,-448.500,-285.240,437.780
422,63802.541000,190.409,-175.051,-11.861,393.594,-194.865,-279.956,-668.500,74.760,841.780
423,63802.563000,210.967,-154.814,-5.931,376.408,-205.328,-298.344,-918.500,360.760,1219.780
424,63802.584000,240.337,-127.494,1.977,360.961,-212.917,-305.938,-1056.500,552.760,1402.780
425,63802.601000,220.757,-90.055,-13.838,328.163,-224.203,-326.018,-1391.500,215.760,1728.780
426,63802.623000,162.019,-59.700,-51.398,285.608,-246.045,-341.975,-1656.500,-142.240,1967.780
427,63802.646000,137.545,-23.273,-73.143,269.227,-256.527,-350.533,-1820.500,90.760,2122.780
428,63802.665000,144.398,11.130,-72.154,219.732,-262.825,-369.339,-1959.500,645.760,2253.780
429,63802.678000,137.545,53.628,-89.946,195.469,-261.624,-380.725,-2087.500,1037.760,2343.780
430,63802.707000,139.503,79.937,-100.819,134.150,-253.302,-402.292,-2162.500,1405.760,2402.780
431,63802.725000,161.040,97.138,-132.448,109.791,-247.266,-410.728,-2329.500,1509.760,2442.780
432,63802.747000,187.472,122.435,-140.355,53.172,-229.320,-426.483,-2434.500,1428.760,2418.780
433,63802.765000,166.914,176.063,-159.135,27.675,-211.670,-431.959,-2687.500,1212.760,2349.780
434,63802.787000,130.692,208.443,-188.788,-39.887,-202.347,-432.744,-2800.500,1220.760,2298.780
435,63802.817000,138.524,214.514,-207.568,-95.929,-168.946,-433.760,-2868.500,1570.760,2257.780
436,63802.835000,203.136,233.739,-190.764,-129.461,-151.237,-427.281,-3091.500,1664.760,2152.780
437,63802.860000,226.631,277.249,-199.660,-186.695,-128.486,-410.544,-3325.500,960.760,2026.780
438,63802.884000,177.683,320.759,-251.058,-210.485,-113.771,-400.296,-3344.500,413.760,1956.780
439,63802.891000,124.818,314.688,-275.768,-261.034,-92.060,-373.831,-3180.500,576.760,2028.780
440,63802.921000,161.040,310.640,-294.548,-289.794,-82.144,-356.598,-3151.500,666.760,2008.780
441,63802.937000,163.977,347.067,-337.050,-330.697,-56.658,-324.402,-3098.500,274.760,1981.780
442,63802.952000,102.302,363.257,-360.772,-359.847,-41.925,-287.478,-2826.500,-424.240,1965.780
443,63802.972000,41.606,380.459,-378.564,-375.850,-34.059,-271.453,-2461.500,-532.240,1991.780
444,63802.998000,-35.732,383.494,-435.892,-394.100,-13.609,-245.558,-1980.500,-329.240,1874.780
445,63803.21000,-100.344,314.688,-480.371,-399.227,-8.738,-234.644,-1414.500,-68.240,1497.780
446,63803.38000,-137.545,265.107,-480.371,-401.491,5.781,-224.777,-854.500,171.760,857.780
447,63803.56000,-149.293,271.178,-480.371,-412.333,8.778,-221.635,-279.500,435.760,271.780
448,63803.77000,-118.945,306.593,-480.371,-409.338,15.530,-228.587,343.500,551.760,-83.220
449,63803.97000,-56.291,310.640,-480.371,-404.264,12.592,-237.534,655.500,467.760,-205.220
450,63803.126000,-32.795,292.427,-448.741,-395.327,9.616,-243.595,1167.500,41.760,-499.220
451,63803.164000,-22.027,285.344,-415.135,-382.023,-4.986,-269.409,1544.500,-178.240,-904.220
452,63803.164000,-8.321,299.510,-387.459,-371.950,-15.705,-280.404,1887.500,-134.240,-1338.220
453,63803.177000,28.880,315.700,-346.934,-343.891,-31.404,-310.415,2213.500,60.760,-1602.220
454,63803.191000,72.933,322.783,-311.351,-326.909,-37.343,-327.445,2497.500,51.760,-1740.220
455,63803.218000,107.197,324.806,-299.490,-298.796,-60.781,-356.464,2732.500,-161.240,-1864.220
456,63803.238000,130.692,325.818,-287.629,-274.973,-67.751,-372.628,2928.500,-424.240,-2005.220
457,63803.261000,132.650,324.806,-271.815,-223.427,-93.342,-398.122,3097.500,-358.240,-2101.220
458,63803.278000,122.860,325.818,-252.046,-177.895,-103.401,-423.527,3190.500,-168.240,-2111.220
459,63803.301000,142.440,308.617,-227.336,-151.198,-107.497,-437.777,3377.500,228.760,-2045.220
460,63803.317000,189.430,281.296,-191.753,-90.123,-116.737,-457.551,3417.500,161.760,-1955.220
461,63803.335000,230.547,233.739,-193.730,-55.779,-123.818,-460.119,3338.500,-614.240,-1947.220
462,63803.365000,233.484,196.300,-195.707,2.218,-149.493,-463.084,3195.500,-1348.240,-1991.220
463,63803.387000,202.157,187.194,-190.764,37.473,-162.395,-458.771,3069.500,-1461.240,-1990.220
464,63803.410000,195.304,174.040,-173.961,97.044,-178.431,-445.039,2987.500,-1268.240,-1886.220
465,63803.427000,197.262,146.719,-145.297,160.493,-190.632,-431.381,2919.500,-1218.240,-1754.220
466,63803.445000,191.388,109.281,-120.587,183.779,-195.697,-418.004,2887.500,-1198.240,-1651.220
467,63803.470000,189.430,69.818,-90.934,235.207,-198.128,-393.316,2777.500,-1172.240,-1612.220
468,63803.487000,175.725,43.510,-68.201,269.230,-200.388,-380.133,2691.500,-1033.240,-1529.220
469,63803.515000,154.187,11.130,-30.641,316.717,-199.882,-355.378,2566.500,-644.240,-1454.220
470,63803.532000,147.335,-30.356,3.954,338.944,-194.295,-342.979,2311.500,-234.240,-1377.220
471,63803.560000,156.145,-76.901,11.861,377.528,-183.067,-318.079,2045.500,-91.240,-1284.220
472,63803.602000,165.935,-126.482,9.884,384.832,-165.746,-297.555,1789.500,-179.240,-1190.220
473,63803.602000,176.704,-161.897,37.560,414.878,-157.327,-286.283,1490.500,-89.240,-1139.220
474,63803.620000,179.641,-157.850,81.050,432.141,-145.892,-272.820,1169.500,398.760,-1040.220
475,63803.638000,236.421,-197.312,114.656,439.741,-132.425,-267.063,982.500,750.760,-942.220
476,63803.655000,283.411,-227.668,120.587,446.395,-111.204,-267.206,557.500,1289.760,-582.220
477,63803.675000,279.495,-236.775,123.552,452.299,-105.448,-272.239,46.500,1056.760,-92.220
478,63803.696000,248.168,-214.514,122.564,433.881,-107.205,-280.772,-535.500,313.760,314.780
479,63803.718000,232.505,-189.217,106.749,433.060,-112.995,-286.657,-1071.500,-193.240,617.780
480,63803.741000,212.925,-158.862,85.992,412.030,-129.226,-305.955,-1495.500,-369.240,889.780
481,63803.763000,185.514,-125.470,44.479,384.194,-144.424,-328.087,-1823.500,-244.240,1128.780
482,63803.778000,150.272,-91.067,5.931,358.020,-153.849,-336.473,-1997.500,121.760,1326.780
483,63803.803000,144.398,-68.806,5.931,322.423,-163.164,-365.366,-2130.500,403.760,1472.780
484,63803.818000,175.725,-44.522,9.884,300.203,-161.976,-381.710,-2259.500,951.760,1500.780
485,63803.850000,199.220,-4.047,-17.792,253.738,-165.392,-407.464,-2576.500,989.760,1466.780
486,63803.858000,175.725,45.534,-62.270,225.594,-160.281,-422.723,-2819.500,739.760,1446.780
487,63803.881000,161.040,80.949,-94.888,174.980,-154.964,-439.554,-2883.500,924.760,1503.780
488,63803.901000,182.577,114.340,-89.946,118.466,-138.948,-460.231,-2957.500,1492.760,1578.780
489,63803.923000,233.484,152.791,-85.992,77.383,-125.023,-467.396,-3189.500,1783.760,1608.780
490,63803.940000,252.084,194.277,-120.587,17.628,-100.286,-475.228,-3359.500,1465.760,1583.780
491,63803.961000,233.484,212.490,-154.193,-8.846,-88.434,-477.727,-3423.500,1188.760,1601.780
492,63803.991000,227.610,223.621,-161.112,-71.829,-67.559,-466.792,-3470.500,1201.760,1610.780
493,63803.994000,242.294,264.095,-156.170,-98.442,-55.715,-461.413,-3628.500,1398.760,1603.780
494,63804.40000,243.273,305.581,-174.950,-165.532,-27.072,-443.524,-3707.500,1453.760,1540.780
495,63804.44000,235.442,323.794,-197.683,-199.150,-11.303,-431.134,-3682.500,1422.760,1494.780
496,63804.63000,255.021,318.735,-210.533,-248.886,15.230,-397.798,-3718.500,1187.760,1470.780
497,63804.90000,264.811,331.889,-258.965,-297.527,27.242,-363.480,-3806.500,241.760,1359.780
498,63804.107000,205.094,372.364,-323.212,-316.482,27.390,-342.472,-3671.500,-851.240,1310.780
499,63804.132000,122.860,399.684,-375.598,-350.408,25.720,-303.476,-3292.500,-1154.240,1372.780
500,63804.147000,38.669,417.897,-431.938,-369.355,30.708,-285.426,-2674.500,-670.240,1438.780
501,63804.175000,-0.489,373.376,-480.371,-382.684,44.340,-257.642,-2287.500,-325.240,1433.780
502,63804.197000,-2.447,314.688,-480.371,-388.756,51.158,-249.667,-1575.500,-46.240,1283.780
503,63804.220000,-19.090,283.320,-480.371,-394.905,55.067,-235.780,-885.500,-458.240,931.780
504,63804.233000,-69.017,273.202,-480.371,-393.848,54.095,-239.735,-141.500,-859.240,415.780
505,63804.250000,-109.155,288.379,-480.371,-396.688,51.223,-243.620,587.500,-608.240,-117.220
506,63804.271000,-78.807,295.462,-480.371,-388.495,45.365,-261.478,1234.500,63.760,-563.220
507,63804.291000,7.342,294.451,-436.880,-379.498,43.360,-271.479,1696.500,255.760,-889.220
508,63804.313000,67.059,296.474,-380.541,-358.288,27.724,-301.370,1996.500,-155.240,-1161.220
509,63804.337000,93.491,306.593,-336.062,-342.362,18.886,-312.470,2119.500,-411.240,-1399.220
510,63804.358000,93.491,311.652,-300.479,-321.071,-7.393,-341.365,2365.500,-719.240,-1496.220
511,63804.391000,106.218,305.581,-285.652,-309.531,-33.580,-372.057,2580.500,-806.240,-1694.220
512,63804.420000,112.092,305.581,-275.768,-272.069,-45.518,-382.550,2776.500,-794.240,-1907.220
513,63804.433000,116.008,306.593,-252.046,-228.361,-66.198,-409.880,2956.500,-491.240,-2088.220
514,63804.452000,142.440,296.474,-229.313,-193.808,-79.075,-421.305,3085.500,-140.240,-2195.220
515,63804.458000,183.556,276.237,-227.336,-140.465,-89.206,-445.864,3151.500,-178.240,-2220.220
516,63804.481000,215.862,248.917,-227.336,-120.747,-96.151,-451.127,3193.500,-559.240,-2221.220
517,63804.501000,209.010,229.692,-212.510,-58.725,-117.016,-463.029,3205.500,-734.240,-2207.220
518,63804.518000,189.430,218.561,-183.846,-25.377,-122.154,-465.582,3208.500,-676.240,-2163.220
519,63804.541000,184.535,195.289,-168.031,37.353,-132.396,-467.664,3221.500,-408.240,-2026.220
520,63804.568000,210.967,162.909,-156.170,97.881,-131.020,-461.845,3175.500,-409.240,-1872.220
521,63804.580000,219.778,126.482,-144.309,131.178,-140.032,-459.470,3058.500,-828.240,-1790.220
522,63804.603000,196.283,98.150,-137.390,189.639,-151.227,-440.803,3000.500,-1142.240,-1784.220
523,63804.623000,159.082,88.032,-102.795,217.798,-148.594,-430.475,2934.500,-818.240,-1749.220
524,63804.632000,134.608,71.842,-73.143,269.154,-139.414,-407.767,2910.500,-99.240,-1641.220
525,63804.651000,152.229,49.581,-34.595,299.216,-129.059,-398.467,2790.500,422.760,-1451.220
526,63804.677000,178.662,1.012,-14.826,344.552,-113.059,-370.738,2604.500,462.760,-1242.220
527,63804.700000,193.346,-60.711,0.000,384.077,-92.163,-348.820,2504.500,358.760,-1165.220
528,63804.723000,206.073,-105.233,39.537,391.600,-85.476,-335.178,2179.500,280.760,-1038.220
529,63804.745000,217.820,-121.423,82.039,419.515,-75.113,-315.011,1770.500,81.760,-957.220
530,63804.772000,239.358,-129.518,104.772,430.044,-68.449,-305.360,1321.500,-172.240,-842.220
531,63804.801000,230.547,-137.613,101.807,446.347,-58.940,-291.878,949.500,-171.240,-616.220
532,63804.812000,208.031,-153.802,108.726,446.260,-58.945,-286.954,550.500,229.760,-290.220
533,63804.841000,209.989,-178.087,116.633,448.111,-51.226,-285.027,101.500,403.760,23.780
534,63804.855000,220.757,-196.300,125.529,443.254,-51.179,-286.910,-403.500,149.760,265.780
535,63804.872000,226.631,-203.383,129.483,432.795,-59.775,-299.513,-668.500,-80.240,365.780
536,63804.897000,206.073,-190.229,112.680,420.424,-73.190,-312.076,-1144.500,-480.240,518.780
537,63804.906000,188.451,-165.945,89.946,409.992,-82.753,-325.662,-1551.500,-556.240,643.780
538,63804.923000,146.356,-112.316,27.676,381.099,-95.043,-344.826,-1830.500,-265.240,779.780
539,63804.946000,143.419,-93.091,20.757,361.833,-97.752,-360.233,-1976.500,383.760,905.780
540,63804.966000,177.683,-65.771,18.780,325.133,-93.515,-389.122,-2157.500,1067.760,977.780
541,63804.993000,213.904,-38.451,2.965,307.692,-85.602,-402.605,-2370.500,1323.760,1031.780
542,63805.16000,223.694,-7.083,-32.618,264.082,-80.338,-428.420,-2611.500,1119.760,1082.780
543,63805.53000,212.925,29.344,-57.328,217.468,-75.051,-450.244,-2810.500,972.760,1118.780
544,63805.62000,198.241,76.901,-69.189,195.152,-70.964,-462.652,-2883.500,1007.760,1122.780
545,63805.81000,192.367,109.281,-77.097,134.524,-52.020,-473.415,-3013.500,1354.760,1119.780
546,63805.101000,219.778,128.506,-105.761,111.089,-38.253,-482.861,-3177.500,1744.760,1081.780
547,63805.119000,253.063,148.743,-122.564,45.438,-18.304,-486.645,-3304.500,1589.760,987.780
548,63805.141000,241.315,185.170,-130.471,18.902,-1.616,-488.164,-3385.500,1115.760,849.780
549,63805.172000,231.526,215.526,-136.402,-40.051,6.647,-477.286,-3454.500,951.760,709.780
550,63805.190000,238.379,252.964,-148.263,-96.151,27.462,-468.442,-3553.500,1139.760,599.780
551,63805.210000,243.273,288.379,-159.135,-129.690,38.396,-458.017,-3646.500,1280.760,546.780
552,63805.225000,229.568,295.462,-175.938,-186.058,60.164,-434.403,-3582.500,1253.760,589.780
553,63805.241000,250.126,275.225,-165.066,-209.916,69.067,-417.255,-3559.500,1075.760,618.780
554,63805.263000,281.453,304.569,-191.753,-256.416,72.360,-388.872,-3688.500,541.760,598.780
555,63805.283000,251.105,347.067,-241.174,-281.207,72.564,-369.729,-3766.500,-475.240,598.780
556,63805.298000,168.872,377.423,-318.270,-322.732,53.556,-334.516,-3595.500,-1414.240,643.780
557,63805.312000,71.954,361.233,-351.876,-344.544,54.703,-318.380,-3173.500,-1547.240,808.780
558,63805.340000,55.312,347.067,-379.552,-367.602,49.069,-283.510,-2765.500,-1026.240,771.780
559,63805.382000,52.375,311.652,-449.730,-380.708,36.580,-254.714,-2225.500,-1179.240,526.780
560,63805.401000,-0.489,290.403,-480.371,-392.595,29.904,-242.683,-1690.500,-1731.240,194.780
561,63805.407000,-52.375,295.462,-480.371,-400.550,19.321,-229.732,-1390.500,-1886.240,41.780
562,63805.425000,-111.113,301.534,-480.371,-409.285,7.790,-227.595,-617.500,-1757.240,-214.220
563,63805.442000,-92.512,302.545,-480.371,-405.176,-7.721,-230.603,223.500,-929.240,-419.220
564,63805.465000,-39.648,305.581,-446.764,-401.089,-9.683,-239.533,948.500,-203.240,-635.220
565,63805.495000,1.468,310.640,-414.147,-388.938,-20.413,-257.455,1469.500,13.760,-917.220
566,63805.510000,31.816,318.735,-384.494,-369.867,-33.138,-278.451,1861.500,31.760,-1149.220
567,63805.531000,62.164,327.842,-351.876,-354.833,-40.027,-295.445,2195.500,-43.240,-1304.220
568,63805.553000,96.428,345.043,-320.247,-324.774,-54.773,-328.446,2497.500,-242.240,-1358.220
569,63805.571000,100.344,351.115,-289.606,-311.714,-65.516,-342.447,2794.500,-328.240,-1368.220
570,63805.598000,100.344,354.150,-254.023,-267.982,-79.420,-374.707,2923.500,-233.240,-1387.220
571,63805.605000,113.071,336.949,-232.278,-248.100,-83.452,-390.806,3163.500,61.760,-1446.220
572,63805.635000,130.692,318.735,-215.475,-198.602,-93.544,-419.234,3355.500,306.760,-1559.220
573,63805.648000,142.440,297.486,-189.776,-171.741,-92.791,-445.306,3472.500,414.760,-1661.220
574,63805.671000,159.082,273.202,-153.205,-111.880,-93.324,-456.209,3490.500,458.760,-1690.220
575,63805.698000,174.746,235.763,-139.367,-49.006,-94.847,-471.102,3403.500,248.760,-1669.220
576,63805.716000,182.577,199.336,-152.216,-18.603,-95.119,-475.578,3267.500,-289.240,-1724.220
577,63805.732000,200.199,144.696,-186.811,45.133,-114.080,-474.714,3148.500,-1003.240,-1889.220
578,63805.754000,201.178,113.328,-189.776,73.511,-122.081,-471.269,3059.500,-1315.240,-2010.220
579,63805.791000,190.409,114.340,-169.019,135.084,-144.908,-456.580,2844.500,-1677.240,-2222.220
580,63805.817000,166.914,125.470,-164.077,157.488,-152.861,-447.123,2689.500,-1736.240,-2282.220
581,63805.823000,158.103,109.281,-170.996,213.905,-164.043,-423.497,2658.500,-1616.240,-2271.220
582,63805.832000,131.671,113.328,-143.320,273.143,-162.675,-399.935,2676.500,-1158.240,-2177.220
583,63805.855000,120.902,103.209,-100.819,297.309,-155.171,-387.573,2714.500,-119.240,-1915.220
584,63805.877000,147.335,83.984,-51.398,344.573,-126.609,-364.816,2737.500,807.760,-1559.220
585,63805.895000,180.620,39.462,11.861,366.764,-115.216,-353.409,2638.500,1171.760,-1192.220
586,63805.917000,206.073,-29.344,46.456,405.188,-88.511,-327.540,2344.500,1012.760,-956.220
587,63805.935000,217.820,-102.198,60.293,416.624,-76.052,-316.927,2145.500,863.760,-865.220
588,63805.948000,208.031,-134.577,73.143,439.531,-56.940,-294.713,1747.500,559.760,-717.220
589,63805.967000,223.694,-151.779,95.876,462.650,-49.431,-278.395,1294.500,254.760,-662.220
590,63806.1000,221.736,-171.004,117.622,464.389,-42.686,-269.573,878.500,140.760,-542.220
591,63806.21000,213.904,-190.229,129.483,468.180,-34.985,-266.696,412.500,375.760,-330.220
592,63806.44000,224.673,-189.217,127.506,470.154,-33.066,-268.702,-64.500,551.760,-39.220
593,63806.76000,236.421,-189.217,126.517,454.609,-30.014,-276.306,-554.500,409.760,223.780
594,63806.80000,242.294,-184.158,128.494,455.762,-33.884,-284.198,-1074.500,68.760,456.780
595,63806.98000,240.337,-161.897,127.506,433.735,-44.300,-305.454,-1319.500,-91.240,671.780
596,63806.118000,223.694,-129.518,114.656,420.351,-55.772,-317.017,-1764.500,-250.240,785.780
597,63806.157000,191.388,-89.043,92.911,392.583,-67.095,-345.062,-2105.500,-76.240,1011.780
598,63806.175000,169.851,-60.711,72.154,355.047,-74.456,-375.892,-2417.500,346.760,1187.780
599,63806.200000,180.620,-37.439,55.351,328.004,-77.090,-394.115,-2783.500,565.760,1279.780
600,63806.229000,205.094,-7.083,43.490,270.915,-84.273,-425.583,-3167.500,349.760,1298.780
601,63806.242000,213.904,35.415,32.618,247.667,-90.821,-435.009,-3496.500,14.760,1303.780
602,63806.257000,123.839,150.767,-74.131,182.655,-98.905,-460.429,-3543.500,248.760,1352.780
603,63806.275000,132.650,164.933,-84.015,145.514,-91.790,-465.687,-3428.500,1313.760,1308.780
604,63806.307000,235.442,180.111,-74.131,81.922,-64.109,-479.361,-3485.500,1813.760,1219.780
605,63806.311000,305.927,238.798,-124.541,20.185,-42.260,-484.201,-3773.500,1851.760,960.780
606,63806.336000,255.021,271.178,-162.100,-18.064,-34.175,-482.550,-3802.500,856.760,853.780
607,63806.357000,236.421,301.534,-158.147,-84.881,-25.842,-469.564,-3790.500,469.760,938.780
608,63806.372000,265.790,368.316,-149.251,-116.393,-18.794,-461.139,-3985.500,618.760,1083.780
609,63806.395000,252.084,398.672,-204.602,-176.489,-11.499,-440.395,-4014.500,262.760,1291.780
610,63806.412000,236.421,375.399,-223.382,-211.058,-6.366,-424.038,-3911.500,-280.240,1491.780
611,63806.432000,245.231,397.660,-234.255,-263.558,-5.930,-386.685,-3901.500,-859.240,1562.780
612,63806.455000,222.715,440.158,-287.629,-285.343,-11.556,-368.573,-3743.500,-1192.240,1646.780
613,63806.480000,100.344,431.051,-354.842,-326.039,-19.935,-330.434,-3479.500,-2005.240,1721.780
614,63806.488000,-14.195,430.040,-380.541,-357.012,-17.760,-294.448,-2875.500,-1846.240,1888.780
615,63806.520000,-50.417,398.672,-412.170,-373.987,-5.045,-281.365,-2210.500,-545.240,1984.780
616,63806.542000,7.342,338.972,-454.672,-378.495,14.315,-257.681,-1671.500,366.760,1852.780
617,63806.560000,24.964,305.581,-479.382,-394.299,19.289,-251.500,-1245.500,-338.240,1472.780
618,63806.582000,-35.732,298.498,-480.371,-401.400,22.241,-238.580,-826.500,-1584.240,996.780
619,63806.600000,-139.503,311.652,-480.371,-397.493,17.365,-235.690,-250.500,-1894.240,493.780
620,63806.608000,-203.136,301.534,-471.475,-397.282,3.826,-240.600,417.500,-1134.240,-63.220
621,63806.630000,-162.019,293.439,-429.961,-388.162,-3.979,-254.535,724.500,-540.240,-351.220
622,63806.661000,-65.101,294.451,-388.448,-388.006,-5.906,-262.411,1214.500,324.760,-859.220
623,63806.678000,11.258,307.605,-351.876,-367.974,-20.577,-281.453,1518.500,381.760,-1295.220
624,63806.696000,52.375,317.723,-328.154,-352.966,-26.499,-297.463,1731.500,-35.240,-1625.220
625,63806.718000,66.080,330.877,-325.189,-332.776,-52.776,-319.447,1947.500,-397.240,-1838.220
626,63806.741000,65.101,338.972,-304.432,-323.551,-66.383,-336.330,2257.500,-472.240,-2027.220
627,63806.764000,65.101,331.889,-288.618,-288.728,-86.020,-359.566,2573.500,-126.240,-2208.220
628,63806.782000,94.470,332.901,-289.606,-239.141,-103.850,-388.971,2867.500,365.760,-2341.220
629,63806.813000,138.524,332.901,-274.780,-214.358,-105.022,-407.129,3124.500,542.760,-2400.220
630,63806.828000,160.061,330.877,-251.058,-160.011,-116.128,-432.688,3233.500,481.760,-2418.220
631,63806.856000,155.166,318.735,-223.382,-124.621,-117.407,-442.173,3461.500,404.760,-2389.220
632,63806.870000,167.893,299.510,-187.799,-54.855,-114.151,-462.116,3612.500,689.760,-2247.220
633,63806.898000,195.304,264.095,-170.008,-26.411,-106.662,-470.504,3706.500,856.760,-2040.220
634,63806.917000,209.010,219.573,-170.008,47.856,-96.697,-471.829,3768.500,586.760,-1870.220
635,63806.932000,220.757,174.040,-156.170,85.039,-95.099,-473.473,3726.500,124.760,-1802.220
636,63806.950000,222.715,154.814,-121.575,150.380,-88.932,-465.777,3573.500,-236.240,-1798.220
637,63806.977000,203.136,144.696,-102.795,215.575,-89.548,-446.256,3445.500,-381.240,-1754.220
638,63806.995000,166.914,128.506,-100.819,244.616,-80.154,-433.983,3397.500,-303.240,-1624.220
639,63807.15000,176.704,96.126,-77.097,298.864,-70.036,-409.359,3307.500,4.760,-1547.220
640,63807.36000,194.325,70.830,-46.456,326.909,-60.634,-396.083,3130.500,27.760,-1341.220
641,63807.52000,185.514,41.486,-23.722,376.074,-50.482,-360.540,2974.500,-62.240,-1127.220
642,63807.75000,155.166,15.178,-0.988,393.312,-40.016,-345.106,2842.500,149.760,-879.220
643,63807.92000,137.545,-18.213,23.722,430.708,-22.984,-311.332,2670.500,680.760,-682.220
644,63807.112000,166.914,-62.735,51.398,462.162,-2.031,-275.488,2436.500,962.760,-591.220
645,63807.137000,211.946,-110.292,84.015,464.794,2.765,-260.774,2077.500,758.760,-554.220
646,63807.160000,205.094,-140.648,105.761,485.693,19.956,-234.583,1745.500,669.760,-451.220
647,63807.180000,204.115,-161.897,136.402,494.265,22.766,-222.925,1505.500,745.760,-406.220
648,63807.217000,220.757,-169.992,154.193,506.637,32.310,-208.388,982.500,669.760,-311.220
649,63807.237000,226.631,-183.146,153.205,500.661,36.229,-204.349,460.500,286.760,-158.220
650,63807.246000,214.883,-192.253,153.205,501.692,34.287,-206.334,-41.500,-51.240,52.780
651,63807.262000,209.989,-195.289,159.135,504.680,32.328,-208.354,-538.500,-276.240,261.780
652,63807.277000,209.010,-186.182,152.216,491.382,20.860,-224.841,-1007.500,-466.240,430.780
653,63807.296000,199.220,-157.850,142.332,484.086,6.443,-247.337,-1423.500,-531.240,566.780
654,63807.318000,195.304,-139.636,122.564,473.643,1.719,-262.898,-1847.500,-494.240,645.780
655,63807.338000,188.451,-117.375,96.865,449.913,-17.375,-293.958,-2172.500,-462.240,723.780
656,63807.361000,166.914,-88.032,62.270,430.742,-22.982,-313.302,-2276.500,-211.240,769.780
657,63807.381000,152.229,-61.723,48.432,396.098,-29.405,-342.215,-2392.500,384.760,861.780
658,63807.404000,177.683,-38.451,66.224,379.826,-27.297,-363.587,-2673.500,966.760,934.780
659,63807.420000,220.757,-3.036,40.525,330.469,-27.781,-393.232,-2998.500,935.760,968.780
660,63807.442000,220.757,24.285,-10.873,278.305,-29.198,-429.716,-3176.500,660.760,980.780
661,63807.459000,209.010,50.593,-45.467,248.178,-23.103,-443.957,-3311.500,758.760,937.780
662,63807.488000,202.157,110.292,-63.259,196.549,-10.036,-462.748,-3263.500,1427.760,944.780
663,63807.506000,191.388,169.992,-55.351,166.281,3.794,-473.058,-3221.500,2347.760,957.780
664,63807.523000,201.178,182.134,-56.340,112.342,40.089,-483.959,-3335.500,2656.760,912.780
665,63807.547000,301.033,181.123,-66.224,76.982,58.792,-485.324,-3699.500,2214.760,691.780
666,63807.562000,293.201,266.119,-78.085,10.374,65.201,-483.169,-4042.500,570.760,491.780
667,63807.581000,188.451,323.794,-86.981,-63.072,61.025,-475.958,-4191.500,-247.240,501.780
668,63807.611000,223.694,318.735,-154.193,-98.498,66.174,-466.477,-4229.500,405.760,717.780
669,63807.625000,333.338,300.522,-183.846,-163.556,73.509,-441.708,-4248.500,494.760,762.780
670,63807.646000,308.864,354.150,-182.857,-187.211,67.906,-428.485,-4357.500,-734.240,710.780
671,63807.688000,185.514,401.708,-231.290,-249.206,50.056,-397.833,-4253.500,-1666.240,826.780
672,63807.702000,117.966,418.909,-319.259,-278.809,39.662,-377.608,-3923.500,-1241.240,1119.780
673,63807.716000,156.145,392.601,-379.552,-320.580,38.062,-337.489,-3681.500,-953.240,1221.780
674,63807.728000,144.398,372.364,-447.753,-332.590,37.186,-321.525,-3224.500,-1118.240,1354.780
675,63807.751000,40.627,371.352,-480.371,-365.407,34.546,-289.438,-2644.500,-1776.240,1400.780
676,63807.768000,-44.543,328.854,-480.371,-381.374,32.735,-270.449,-1868.500,-1765.240,1401.780
677,63807.798000,-75.870,294.451,-480.371,-380.473,29.818,-264.555,-1093.500,-1130.240,1090.780
678,63807.825000,-74.891,281.296,-480.371,-385.461,32.761,-260.532,-363.500,-636.240,648.780
679,63807.840000,-69.017,277.249,-480.371,-380.534,30.783,-261.602,294.500,-418.240,157.780
680,63807.860000,-47.480,278.261,-468.510,-379.277,26.918,-275.402,882.500,-177.240,-235.220
681,63807.882000,-16.153,287.368,-409.205,-367.440,25.849,-280.532,1137.500,-52.240,-525.220
682,63807.897000,17.132,289.391,-354.842,-358.208,19.017,-301.361,1592.500,146.760,-643.220
683,63807.920000,56.291,284.332,-317.282,-333.226,14.952,-329.363,1944.500,212.760,-798.220
684,63807.932000,88.597,278.261,-292.571,-312.478,11.873,-339.571,2206.500,106.760,-905.220
685,63807.946000,116.008,276.237,-280.710,-289.380,-1.849,-366.544,2405.500,-177.240,-1024.220
686,63807.973000,116.987,274.213,-266.873,-276.338,-8.722,-381.533,2601.500,-452.240,-1215.220
687,63807.987000,114.050,277.249,-258.965,-241.551,-24.489,-404.773,2769.500,-382.240,-1419.220
688,63808.12000,133.629,272.190,-258.965,-212.931,-28.605,-417.088,2917.500,-90.240,-1567.220
689,63808.40000,188.451,258.024,-258.965,-167.372,-43.502,-441.503,3044.500,-166.240,-1686.220
690,63808.54000,209.010,249.929,-245.127,-142.647,-55.324,-450.787,3096.500,-380.240,-1747.220
691,63808.72000,183.556,242.846,-230.301,-90.430,-66.423,-466.465,3183.500,-661.240,-1856.220
692,63808.95000,183.556,213.502,-233.266,-32.480,-75.647,-475.355,3285.500,-402.240,-1897.220
693,63808.143000,228.589,187.194,-220.417,-0.138,-75.937,-478.880,3368.500,-211.240,-1902.220
694,63808.162000,263.832,177.075,-183.846,67.415,-86.228,-477.110,3359.500,-531.240,-1871.220
695,63808.171000,265.790,154.814,-165.066,95.802,-93.261,-474.650,3231.500,-1244.240,-1808.220
696,63808.193000,246.210,131.542,-147.274,156.336,-117.050,-456.005,3039.500,-1879.240,-1761.220
697,63808.208000,219.778,119.399,-137.390,183.649,-126.983,-446.632,2855.500,-2188.240,-1729.220
698,63808.226000,166.914,125.470,-126.517,234.242,-146.820,-420.923,2842.500,-1893.240,-1677.220
699,63808.248000,108.176,114.340,-110.703,300.226,-149.392,-389.601,2911.500,-1448.240,-1619.220
700,63808.266000,94.470,94.103,-76.108,326.375,-140.936,-379.244,3044.500,-92.240,-1424.220
701,63808.280000,123.839,61.723,-21.745,372.592,-114.304,-351.544,3126.500,1083.760,-1154.220
702,63808.307000,148.314,8.095,25.699,396.635,-100.999,-335.249,3042.500,1580.760,-862.220
703,63808.330000,181.598,-63.747,59.305,428.088,-72.303,-303.352,2710.500,1457.760,-699.220
704,63808.345000,218.799,-119.399,80.062,442.373,-61.812,-286.882,2284.500,800.760,-705.220
705,63808.362000,218.799,-141.660,108.726,468.200,-46.599,-261.761,1855.500,92.760,-812.220
706,63808.390000,189.430,-147.731,141.344,481.316,-34.173,-235.427,1426.500,66.760,-836.220
707,63808.412000,176.704,-163.921,155.181,491.887,-24.603,-229.719,1237.500,279.760,-764.220
708,63808.432000,192.367,-197.312,164.077,497.461,-13.058,-219.002,830.500,825.760,-475.220
709,63808.462000,228.589,-210.466,170.996,493.476,-7.219,-217.954,337.500,913.760,-130.220
710,63808.472000,244.252,-223.621,183.846,498.499,-8.224,-224.932,-206.500,497.760,193.780
711,63808.495000,247.189,-222.609,181.869,487.839,-10.056,-229.664,-822.500,29.760,399.780
712,63808.517000,241.315,-199.336,166.054,478.560,-23.490,-251.142,-1336.500,-281.240,563.780
713,63808.532000,211.946,-173.028,154.193,465.147,-28.188,-264.682,-1769.500,-278.240,713.780
714,63808.550000,190.409,-142.672,135.413,437.493,-42.408,-297.647,-2195.500,-112.240,839.780
715,63808.572000,189.430,-106.245,109.714,403.907,-57.546,-326.569,-2557.500,-26.240,973.780
716,63808.603000,188.451,-68.806,82.039,386.693,-61.235,-346.933,-2702.500,2.760,1027.780
717,63808.617000,184.535,-29.344,63.259,341.442,-71.422,-382.546,-2946.500,145.760,1129.780
718,63808.655000,182.577,14.166,50.409,316.366,-76.978,-399.816,-3162.500,476.760,1212.780
719,63808.668000,190.409,61.723,14.826,261.242,-81.274,-433.291,-3336.500,784.760,1247.780
720,63808.682000,194.325,99.162,-12.849,230.076,-74.205,-444.561,-3467.500,1055.760,1242.780
721,63808.705000,207.052,123.447,-43.490,160.858,-58.073,-465.998,-3631.500,1212.760,1213.780
722,63808.711000,242.294,138.625,-74.131,99.462,-48.787,-483.627,-3838.500,1044.760,1076.780
723,63808.733000,279.495,172.016,-94.888,61.309,-45.536,-484.925,-4039.500,561.760,983.780
724,63808.751000,284.390,232.727,-120.587,-12.139,-41.968,-481.661,-4087.500,293.760,1024.780
725,63808.787000,238.379,288.379,-167.042,-51.348,-41.616,-477.030,-4022.500,158.760,1128.780
726,63808.805000,226.631,305.581,-176.927,-120.182,-34.237,-460.069,-4070.500,390.760,1358.780
727,63808.827000,282.432,329.866,-164.077,-154.655,-30.067,-448.635,-4283.500,1.760,1459.780
728,63808.848000,307.885,391.589,-153.205,-214.808,-37.294,-417.044,-4330.500,-1016.240,1648.780
729,63808.870000,224.673,442.182,-197.683,-244.465,-41.883,-396.825,-3985.500,-1419.240,1996.780
730,63808.905000,98.386,399.684,-309.375,-295.027,-35.659,-361.482,-3683.500,-748.240,2251.780
731,63808.918000,116.987,415.874,-387.459,-338.922,-24.668,-318.387,-3403.500,-628.240,2234.780
732,63808.932000,48.459,397.660,-403.274,-355.966,-13.893,-300.378,-2842.500,-1305.240,2137.780
733,63808.945000,-50.417,379.447,-428.973,-383.018,-8.849,-266.434,-2547.500,-1455.240,2068.780
734,63808.967000,-143.419,358.198,-480.371,-388.153,-4.947,-254.534,-1914.500,-1142.240,1819.780
735,63808.990000,-146.356,324.806,-480.371,-396.365,8.653,-239.638,-1262.500,-395.240,1385.780
736,63809.8000,-80.765,301.534,-480.371,-406.299,15.509,-234.548,-669.500,-146.240,911.780
737,63809.31000,-71.954,300.522,-480.371,-396.566,13.482,-230.780,-153.500,-858.240,405.780
738,63809.53000,-124.818,306.593,-480.371,-402.217,-0.971,-235.585,379.500,-1441.240,-80.220
739,63809.71000,-162.998,310.640,-474.440,-396.093,-9.721,-245.528,978.500,-971.240,-558.220
740,63809.93000,-103.281,302.545,-414.147,-385.899,-18.498,-264.402,1555.500,65.760,-1008.220
741,63809.115000,-11.258,293.439,-363.737,-369.947,-26.367,-277.473,1773.500,416.760,-1374.220
742,63809.142000,52.375,292.427,-331.120,-345.862,-41.066,-304.462,2059.500,455.760,-1530.220
743,63809.157000,86.639,298.498,-308.386,-338.647,-50.786,-320.330,2215.500,-89.240,-1806.220
744,63809.174000,78.807,306.593,-285.652,-307.667,-78.127,-343.489,2322.500,-702.240,-2052.220
745,63809.190000,58.249,307.605,-276.757,-283.457,-108.305,-369.477,2444.500,-766.240,-2257.220
746,63809.211000,71.954,307.605,-280.710,-240.063,-121.260,-383.028,2635.500,-288.240,-2425.220
747,63809.231000,111.113,301.534,-268.849,-197.431,-135.162,-408.377,2879.500,160.760,-2526.220
748,63809.250000,156.145,286.356,-240.185,-167.859,-140.256,-418.739,3081.500,220.760,-2546.220
749,63809.268000,176.704,263.083,-226.347,-107.762,-149.487,-438.496,3146.500,-88.240,-2548.220
750,63809.296000,166.914,239.810,-202.625,-76.318,-160.411,-441.009,3143.500,-233.240,-2540.220
751,63809.313000,162.998,217.549,-181.869,-13.511,-167.745,-449.002,3066.500,-350.240,-2524.220
752,63809.339000,184.535,187.194,-163.089,21.803,-175.804,-450.602,2950.500,-490.240,-2524.220
753,63809.367000,200.199,148.743,-151.228,85.365,-188.967,-442.851,2752.500,-985.240,-2546.220
754,63809.375000,184.535,110.292,-147.274,142.927,-203.052,-427.117,2543.500,-1645.240,-2624.220
755,63809.396000,151.250,97.138,-138.378,164.335,-212.934,-415.671,2373.500,-1819.240,-2694.220
756,63809.412000,122.860,87.020,-142.332,226.562,-219.333,-391.169,2322.500,-1435.240,-2670.220
757,63809.438000,129.713,73.866,-125.529,255.699,-212.837,-382.832,2375.500,-629.240,-2522.220
758,63809.447000,162.019,48.569,-82.039,303.078,-194.915,-361.049,2405.500,-273.240,-2222.220
759,63809.480000,190.409,14.166,-49.421,328.230,-182.579,-351.664,2372.500,248.760,-2036.220
760,63809.497000,211.946,-25.296,-18.780,370.663,-158.808,-329.800,2257.500,547.760,-1667.220
761,63809.518000,225.652,-65.771,15.815,403.337,-133.979,-309.733,2046.500,576.760,-1342.220
762,63809.547000,231.526,-105.233,57.328,412.843,-124.404,-299.084,1731.500,403.760,-1109.220
763,63809.561000,237.400,-147.731,91.923,431.994,-111.055,-282.703,1315.500,268.760,-936.220
764,63809.580000,227.610,-187.194,104.772,442.556,-102.453,-276.008,900.500,258.760,-759.220
765,63809.608000,205.094,-193.265,107.737,458.989,-91.969,-270.405,512.500,620.760,-502.220
766,63809.631000,202.157,-185.170,112.680,454.960,-81.293,-269.361,111.500,1081.760,-136.220
767,63809.653000,226.631,-183.146,118.610,453.123,-75.461,-279.180,-132.500,1195.760,52.780
768,63809.666000,248.168,-176.063,106.749,448.325,-74.443,-285.003,-652.500,980.760,379.780
769,63809.686000,246.210,-155.826,90.934,425.213,-75.177,-305.267,-1182.500,469.760,633.780
770,63809.708000,223.694,-128.506,70.178,401.273,-86.540,-328.457,-1623.500,122.760,857.780
771,63809.731000,182.577,-101.186,41.514,386.891,-90.261,-342.965,-1926.500,218.760,1051.780
772,63809.743000,160.061,-72.854,26.687,352.168,-95.720,-367.940,-2155.500,714.760,1190.780
773,63809.782000,186.493,-46.545,24.710,326.025,-93.528,-384.216,-2425.500,1077.760,1307.780
774,63809.792000,231.526,-16.190,10.873,278.599,-94.999,-411.924,-2790.500,909.760,1405.780
775,63809.815000,226.631,33.391,-36.571,256.379,-95.746,-427.281,-2905.500,678.760,1496.780
776,63809.837000,188.451,57.676,-63.259,203.912,-92.341,-449.000,-2930.500,813.760,1527.780
777,63809.867000,179.641,75.889,-63.259,143.457,-73.387,-469.610,-3015.500,1488.760,1492.780
778,63809.880000,224.673,115.352,-62.270,112.186,-62.453,-476.945,-3270.500,1949.760,1348.780
779,63809.900000,267.748,146.719,-91.923,44.638,-39.579,-485.622,-3490.500,1612.760,1201.780
780,63809.916000,271.663,186.182,-108.726,13.238,-29.621,-485.078,-3692.500,1104.760,1095.780
781,63809.923000,256.979,222.609,-135.413,-52.540,-18.390,-477.036,-3857.500,724.760,1022.780
782,63809.965000,256.979,256.000,-166.054,-80.026,-12.338,-474.588,-3914.500,548.760,899.780
783,63809.969000,248.168,302.545,-157.158,-142.105,-5.995,-451.839,-3921.500,555.760,836.780
784,63809.995000,227.610,344.032,-168.031,-177.906,9.780,-426.613,-3920.500,583.760,882.780
785,63810.17000,257.958,342.008,-218.440,-232.996,12.197,-409.889,-3981.500,286.760,923.780
786,63810.36000,271.663,369.328,-261.931,-286.386,4.903,-373.496,-3886.500,-658.240,1074.780
787,63810.61000,201.178,403.731,-229.313,-305.333,7.956,-354.460,-3623.500,-1030.240,1365.780
788,63810.76000,122.860,418.909,-247.104,-339.295,12.091,-316.454,-3237.500,-768.240,1526.780
789,63810.110000,109.155,399.684,-321.236,-358.190,17.082,-301.359,-2856.500,-772.240,1504.780
790,63810.128000,78.807,366.293,-380.541,-382.271,18.230,-267.463,-2404.500,-1131.240,1315.780
791,63810.161000,18.111,337.960,-386.471,-390.333,19.256,-254.524,-1936.500,-960.240,1069.780
792,63810.175000,-18.111,320.759,-395.367,-398.525,23.178,-235.679,-1445.500,-678.240,778.780
793,63810.178000,-29.859,308.617,-438.857,-412.466,23.289,-221.650,-1169.500,-709.240,645.780
794,63810.201000,-69.017,272.190,-480.371,-405.589,14.517,-218.808,-611.500,-960.240,347.780
795,63810.223000,-99.365,275.225,-480.371,-407.466,9.700,-220.738,28.500,-1199.240,3.780
796,63810.238000,-127.755,306.593,-455.660,-402.337,-2.914,-227.705,680.500,-957.240,-386.220
797,63810.257000,-78.807,328.854,-414.147,-389.270,-4.946,-246.638,1364.500,194.760,-683.220
798,63810.282000,31.816,323.794,-377.575,-384.162,-4.010,-259.528,1981.500,1196.760,-845.220
799,63810.303000,112.092,313.676,-336.062,-358.202,-4.212,-289.521,2376.500,1060.760,-927.220
800,63810.326000,138.524,313.676,-314.317,-338.995,-11.122,-321.355,2616.500,225.760,-983.220
801,63810.343000,116.008,317.723,-293.560,-320.099,-16.113,-336.450,2825.500,-349.240,-1027.220
802,63810.366000,112.092,308.617,-273.792,-280.281,-29.982,-368.641,2927.500,-370.240,-1052.220
803,63810.388000,132.650,295.462,-262.919,-264.287,-33.009,-386.640,3099.500,-151.240,-1140.220
804,63810.408000,163.977,266.119,-243.151,-221.604,-43.036,-416.917,3217.500,-84.240,-1351.220
805,63810.431000,193.346,236.775,-236.232,-191.979,-51.999,-428.260,3232.500,-253.240,-1631.220
806,63810.461000,194.325,228.680,-226.347,-134.703,-71.843,-448.939,3219.500,-574.240,-1898.220
807,63810.471000,192.367,231.715,-204.602,-114.949,-78.786,-456.172,3189.500,-644.240,-2027.220
808,63810.498000,199.220,217.549,-200.649,-54.973,-91.896,-467.062,3192.500,-683.240,-2040.220
809,63810.508000,207.052,200.348,-180.880,5.914,-108.889,-472.057,3196.500,-704.240,-2003.220
810,63810.536000,200.199,186.182,-164.077,44.069,-116.012,-468.786,3189.500,-736.240,-1934.220
811,63810.555000,185.514,168.980,-149.251,99.775,-122.330,-462.873,3173.500,-714.240,-1865.220
812,63810.573000,187.472,139.636,-132.448,131.018,-124.555,-458.501,3134.500,-547.240,-1679.220
813,63810.601000,200.199,103.209,-112.680,187.511,-127.021,-443.747,3038.500,-623.240,-1523.220
814,63810.616000,180.620,79.937,-90.934,221.594,-126.374,-435.490,2914.500,-822.240,-1455.220
815,63810.631000,145.377,63.747,-70.178,267.115,-124.883,-410.702,2815.500,-607.240,-1390.220
816,63810.648000,126.776,43.510,-54.363,311.673,-113.703,-391.814,2766.500,104.760,-1214.220
817,63810.671000,138.524,-7.083,-39.537,341.658,-104.319,-377.589,2756.500,734.760,-992.220
818,63810.693000,184.535,-60.711,4.942,384.967,-82.498,-348.847,2549.500,818.760,-844.220
819,63810.715000,209.010,-89.043,41.514,394.490,-76.795,-337.209,2383.500,603.760,-801.220
820,63810.730000,208.031,-104.221,61.282,421.332,-65.460,-312.101,2008.500,30.760,-777.220
821,63810.755000,185.514,-118.387,84.015,432.796,-61.711,-298.526,1659.500,-272.240,-750.220
822,63810.781000,162.019,-134.577,97.853,450.035,-55.117,-281.118,1301.500,-73.240,-643.220
823,63810.802000,154.187,-153.802,122.564,459.505,-43.609,-269.486,937.500,422.760,-491.220
824,63810.820000,182.577,-175.051,145.297,466.223,-34.967,-266.662,505.500,743.760,-325.220
825,63810.836000,208.031,-186.182,152.216,467.078,-25.304,-264.719,39.500,646.760,-143.220
826,63810.862000,211.946,-182.134,155.181,461.372,-28.145,-272.490,-481.500,370.760,92.780
827,63810.880000,188.451,-177.075,131.459,447.846,-26.075,-283.083,-960.500,137.760,265.780
828,63810.902000,179.641,-165.945,104.772,449.094,-32.844,-294.910,-1173.500,115.760,342.780
829,63810.925000,163.977,-147.731,81.050,421.125,-33.531,-317.057,-1514.500,307.760,486.780
830,63810.940000,175.725,-128.506,76.108,406.680,-32.416,-330.585,-1809.500,650.760,574.780
831,63810.960000,204.115,-98.150,83.027,382.747,-35.068,-358.708,-2137.500,717.760,613.780
832,63810.992000,216.841,-59.700,72.154,339.261,-39.476,-386.482,-2552.500,428.760,649.780
833,63811.2000,190.409,-12.142,38.548,316.001,-35.379,-400.842,-2838.500,356.760,753.780
834,63811.30000,174.746,15.178,11.861,267.655,-31.997,-434.447,-3005.500,806.760,865.780
835,63811.57000,177.683,42.498,-1.977,245.305,-27.912,-444.885,-3156.500,1383.760,873.780
836,63811.86000,206.073,76.901,-10.873,188.824,-9.959,-468.518,-3265.500,1580.760,810.780
837,63811.89000,234.463,116.364,-23.722,153.526,3.908,-470.863,-3448.500,1677.760,770.780
838,63811.109000,252.084,150.767,-37.560,97.807,24.744,-483.684,-3644.500,1461.760,646.780
839,63811.134000,280.474,173.028,-54.363,25.395,38.953,-489.311,-3928.500,1080.760,438.780
840,63811.153000,287.327,211.478,-92.911,-8.982,40.225,-481.813,-4139.500,691.760,236.780
841,63811.176000,258.937,264.095,-110.703,-77.791,54.381,-469.783,-4155.500,797.760,109.780
842,63811.191000,225.652,307.605,-85.004,-115.254,68.254,-460.276,-4168.500,1449.760,96.780
843,63811.207000,298.096,320.759,-85.004,-182.436,84.309,-430.557,-4405.500,1190.760,104.780
844,63811.235000,369.560,358.198,-152.216,-213.029,86.506,-416.236,-4482.500,-350.240,189.780
845,63811.250000,318.654,397.660,-189.776,-271.213,64.744,-377.772,-4435.500,-1065.240,299.780
846,63811.267000,201.178,442.182,-222.394,-297.248,56.230,-338.908,-4177.500,-1500.240,623.780
847,63811.290000,134.608,461.407,-294.548,-334.707,54.617,-321.508,-3730.500,-875.240,967.780
848,63811.312000,129.713,429.028,-353.853,-365.725,59.694,-284.540,-3243.500,-509.240,1090.780
849,63811.330000,122.860,378.435,-396.355,-379.735,59.801,-266.572,-2813.500,-692.240,995.780
850,63811.357000,87.618,362.245,-414.147,-397.911,62.833,-235.736,-2295.500,-769.240,837.780
851,63811.375000,45.522,348.079,-422.054,-398.076,63.792,-226.874,-1687.500,-544.240,700.780
852,63811.407000,31.816,312.664,-456.649,-409.116,63.874,-210.928,-1075.500,-522.240,504.780
853,63811.421000,38.669,271.178,-477.405,-418.009,63.949,-205.848,-482.500,-643.240,217.780
854,63811.442000,26.922,263.083,-469.498,-413.937,52.308,-208.860,-159.500,-914.240,67.780
855,63811.461000,-6.363,269.154,-445.776,-409.893,53.247,-216.808,529.500,-729.240,-203.220
856,63811.483000,24.964,300.522,-364.726,-405.692,48.388,-230.659,1180.500,-27.240,-388.220
857,63811.506000,89.576,302.545,-352.865,-389.664,45.363,-250.628,1703.500,371.760,-498.220
858,63811.521000,130.692,305.581,-341.992,-383.550,43.388,-263.532,2059.500,103.760,-574.220
859,63811.541000,144.398,323.794,-329.143,-360.419,33.539,-294.448,2310.500,-502.240,-660.220
860,63811.560000,135.587,346.055,-319.259,-350.269,25.728,-311.354,2626.500,-861.240,-739.220
861,63811.574000,131.671,360.221,-300.479,-318.245,11.932,-345.376,3037.500,-650.240,-753.220
862,63811.601000,164.956,359.210,-270.826,-276.489,5.788,-380.563,3240.500,-383.240,-721.220
863,63811.621000,224.673,339.984,-243.151,-249.723,1.696,-398.752,3526.500,-10.240,-605.220
864,63811.638000,272.642,311.652,-210.533,-197.281,-5.518,-429.205,3651.500,-250.240,-552.220
865,63811.662000,268.727,272.190,-183.846,-173.493,-14.425,-442.414,3636.500,-935.240,-684.220
866,63811.679000,223.694,232.727,-177.915,-119.176,-39.084,-459.097,3589.500,-1403.240,-907.220
867,63811.701000,196.283,203.383,-175.938,-84.657,-53.899,-467.566,3564.500,-1237.240,-1091.220
868,63811.723000,191.388,182.134,-155.181,-25.659,-66.999,-478.439,3616.500,-730.240,-1177.220
869,63811.751000,214.883,145.708,-131.459,16.495,-72.217,-481.148,3624.500,-407.240,-1206.220
870,63811.771000,250.126,120.411,-102.795,75.189,-78.559,-478.241,3497.500,-572.240,-1252.220
871,63811.788000,257.958,89.043,-72.154,134.863,-92.653,-471.404,3403.500,-830.240,-1270.220
872,63811.809000,232.505,66.783,-68.201,162.072,-98.720,-458.096,3131.500,-1381.240,-1333.220
873,63811.826000,197.262,49.581,-65.236,216.699,-114.715,-441.324,2914.500,-1579.240,-1358.220
874,63811.848000,181.598,31.368,-53.375,243.864,-119.816,-426.047,2765.500,-1364.240,-1299.220
875,63811.871000,178.662,8.095,-21.745,293.388,-126.099,-402.305,2632.500,-961.240,-1171.220
876,63811.895000,167.893,-10.119,16.803,307.824,-130.118,-386.804,2466.500,-661.240,-1016.220
877,63811.910000,161.040,-44.522,41.514,350.435,-125.695,-364.921,2201.500,-475.240,-897.220
878,63811.931000,161.040,-100.174,51.398,380.335,-122.123,-342.812,1863.500,-516.240,-836.220
879,63811.949000,163.977,-150.767,63.259,388.882,-122.218,-328.196,1661.500,-597.240,-847.220
880,63811.971000,154.187,-174.040,72.154,406.113,-118.528,-308.816,1236.500,-766.240,-901.220
881,63811.991000,138.524,-178.087,83.027,414.781,-116.680,-302.081,876.500,-619.240,-878.220
882,63812.8000,144.398,-174.040,92.911,429.248,-107.146,-295.456,529.500,-149.240,-732.220
883,63812.31000,163.977,-186.182,88.958,428.234,-105.204,-294.456,176.500,178.760,-515.220
884,63812.51000,192.367,-196.300,82.039,424.248,-93.557,-296.368,-205.500,184.760,-287.220
885,63812.76000,199.220,-190.229,76.108,416.585,-94.445,-305.092,-597.500,54.760,-19.220
886,63812.113000,194.325,-181.123,68.201,414.801,-94.417,-314.905,-959.500,82.760,258.780
887,63812.133000,185.514,-159.874,49.421,396.567,-102.939,-330.323,-1240.500,331.760,521.780
888,63812.144000,194.325,-140.648,37.560,383.084,-101.834,-342.884,-1361.500,500.760,648.780
889,63812.170000,218.799,-126.482,31.629,355.097,-102.522,-364.046,-1645.500,692.760,878.780
890,63812.173000,238.379,-110.292,14.826,337.692,-104.286,-374.565,-2020.500,519.760,1024.780
891,63812.201000,234.463,-78.925,-17.792,295.169,-114.512,-398.412,-2358.500,149.760,1101.780
892,63812.223000,213.904,-54.640,-36.571,274.882,-122.054,-408.873,-2538.500,134.760,1187.780
893,63812.232000,215.862,-17.202,-38.548,229.361,-123.545,-433.662,-2759.500,443.760,1315.780
894,63812.260000,229.568,36.427,-53.375,171.958,-123.001,-451.352,-2975.500,619.760,1448.780
895,63812.277000,233.484,82.972,-66.224,139.797,-117.861,-460.633,-3145.500,628.760,1620.780
896,63812.300000,208.031,133.565,-95.876,75.388,-113.392,-471.312,-3136.500,667.760,1822.780
897,63812.320000,185.514,153.802,-90.934,50.941,-105.426,-475.811,-3132.500,1084.760,1901.780
898,63812.337000,212.925,165.945,-92.911,-12.866,-80.662,-475.696,-3281.500,1438.760,1895.780
899,63812.360000,240.337,195.289,-119.598,-42.238,-78.460,-475.179,-3482.500,1231.760,1748.780
900,63812.382000,223.694,241.834,-150.239,-109.172,-51.744,-465.166,-3547.500,985.760,1619.780
901,63812.405000,184.535,275.225,-165.066,-166.528,-23.192,-444.495,-3482.500,1233.760,1528.780
902,63812.445000,187.472,296.474,-159.135,-191.332,-8.471,-432.260,-3537.500,1681.760,1421.780
903,63812.459000,240.337,315.700,-212.510,-239.024,18.049,-403.883,-3577.500,1315.760,1275.780
904,63812.477000,256.000,335.937,-260.942,-265.765,25.046,-388.651,-3465.500,555.760,1215.780
905,63812.502000,207.052,362.245,-253.035,-304.692,40.837,-352.541,-3382.500,375.760,1211.780
906,63812.504000,167.893,376.411,-262.919,-322.714,51.621,-334.514,-3166.500,536.760,1220.780
907,63812.531000,180.620,358.198,-320.247,-358.731,68.351,-297.472,-2919.500,539.760,1200.780
908,63812.543000,178.662,331.889,-339.027,-361.979,72.232,-281.668,-2654.500,193.760,1187.780
909,63812.570000,144.398,330.877,-336.062,-381.170,84.950,-253.778,-2299.500,75.760,1181.780
910,63812.590000,98.386,314.688,-344.958,-396.474,100.534,-225.961,-1878.500,245.760,1139.780
911,63812.610000,118.945,274.213,-405.251,-395.714,107.288,-217.122,-1502.500,-209.240,946.780
912,63812.627000,125.797,258.024,-441.822,-400.778,103.452,-205.215,-1000.500,-1187.240,652.780
913,63812.650000,57.270,244.870,-468.510,-412.467,97.754,-205.001,-332.500,-1497.240,292.780
914,63812.670000,-37.690,233.739,-467.521,-408.448,93.853,-209.006,0.500,-1147.240,98.780
915,63812.712000,-55.312,246.893,-443.799,-405.365,92.866,-216.935,652.500,-17.240,-278.220
916,63812.721000,23.006,257.012,-413.158,-396.298,88.929,-229.888,1175.500,433.760,-563.220
917,63812.740000,89.576,259.036,-380.541,-385.005,78.214,-254.687,1505.500,3.760,-765.220
918,63812.760000,127.755,269.154,-349.900,-385.800,73.394,-262.543,1739.500,-648.240,-917.220
919,63812.782000,123.839,295.462,-344.958,-354.752,51.865,-292.601,2085.500,-998.240,-1052.220
920,63812.805000,98.386,321.771,-316.293,-349.433,41.197,-311.387,2520.500,-722.240,-1176.220
921,63812.820000,128.734,313.676,-309.375,-318.395,26.443,-344.406,2911.500,-191.240,-1273.220
922,63812.842000,191.388,307.605,-283.676,-296.565,21.424,-359.553,3052.500,-20.240,-1310.220
923,63812.855000,220.757,304.569,-249.081,-253.671,1.730,-396.713,3239.500,-213.240,-1417.220
924,63812.877000,202.157,301.534,-217.452,-208.985,-20.896,-423.073,3361.500,-738.240,-1579.220
925,63812.891000,167.893,293.439,-207.568,-187.171,-27.850,-436.249,3467.500,-811.240,-1735.220
926,63812.914000,184.535,275.225,-178.903,-129.922,-38.985,-459.891,3601.500,-326.240,-1780.220
927,63812.941000,234.463,250.941,-153.205,-95.484,-43.158,-469.356,3653.500,-62.240,-1773.220
928,63812.974000,249.147,215.526,-131.459,-29.619,-56.319,-481.335,3585.500,-501.240,-1802.220
929,63813.2000,234.463,184.158,-106.749,2.725,-64.353,-480.913,3439.500,-975.240,-1857.220
930,63813.5000,208.031,163.921,-98.842,61.490,-78.435,-477.999,3277.500,-1155.240,-1898.220
931,63813.23000,217.820,130.530,-78.085,91.834,-85.485,-475.574,3200.500,-1121.240,-1888.220
932,63813.44000,231.526,98.150,-76.108,149.491,-100.533,-464.763,2990.500,-1202.240,-1870.220
933,63813.66000,236.421,60.711,-54.363,206.966,-114.623,-444.105,2769.500,-1559.240,-1865.220
934,63813.86000,233.484,26.308,-48.432,232.305,-122.603,-434.700,2452.500,-1957.240,-1890.220
935,63813.103000,199.220,8.095,-49.421,269.206,-141.347,-409.735,2180.500,-2076.240,-1881.220
936,63813.121000,170.830,-15.178,-29.653,288.561,-144.441,-396.291,2024.500,-1627.240,-1791.220
937,63813.146000,194.325,-44.522,12.849,325.249,-139.967,-371.350,1786.500,-902.240,-1646.220
938,63813.175000,250.126,-95.115,28.664,343.641,-139.180,-360.847,1425.500,-787.240,-1412.220
939,63813.177000,256.000,-139.636,28.664,368.718,-137.496,-341.604,1258.500,-1005.240,-1226.220
940,63813.224000,214.883,-156.838,30.641,391.917,-140.629,-324.290,899.500,-1371.240,-1162.220
941,63813.237000,197.262,-172.016,32.618,386.964,-139.620,-321.251,554.500,-1130.240,-999.220
942,63813.251000,207.052,-190.229,26.687,391.717,-133.865,-316.419,237.500,-488.240,-726.220
943,63813.274000,216.841,-196.300,22.734,399.519,-134.906,-314.587,-39.500,-8.240,-362.220
944,63813.293000,224.673,-179.099,16.803,391.777,-132.894,-320.359,-332.500,192.760,47.780
945,63813.314000,224.673,-168.980,1.977,384.080,-137.655,-325.140,-624.500,185.760,470.780
946,63813.331000,219.778,-163.921,-25.699,373.587,-146.253,-335.773,-921.500,58.760,825.780
947,63813.353000,207.052,-147.731,-50.409,356.357,-155.750,-352.193,-1150.500,11.760,1088.780
948,63813.371000,191.388,-132.553,-68.201,334.918,-159.421,-354.762,-1234.500,34.760,1202.780
949,63813.393000,175.725,-110.292,-86.981,303.107,-171.683,-374.859,-1388.500,175.760,1391.780
950,63813.416000,174.746,-83.984,-94.888,290.543,-175.430,-381.523,-1506.500,425.760,1538.780
951,63813.433000,182.577,-57.676,-111.691,254.730,-183.790,-398.600,-1659.500,554.760,1639.780
952,63813.451000,175.725,-28.332,-121.575,231.332,-181.636,-404.095,-1759.500,659.760,1712.780
953,63813.476000,167.893,-1.012,-122.564,188.624,-179.289,-424.016,-1821.500,951.760,1783.780
954,63813.496000,179.641,21.249,-101.807,173.089,-175.269,-432.606,-1964.500,1212.760,1855.780
955,63813.518000,217.820,51.605,-90.934,125.365,-167.077,-448.507,-2282.500,1018.760,1892.780
956,63813.547000,222.715,86.008,-109.714,73.556,-160.795,-453.504,-2561.500,741.760,1890.780
957,63813.561000,203.136,123.447,-135.413,40.322,-160.491,-454.886,-2639.500,343.760,1903.780
958,63813.594000,178.662,151.779,-151.228,-14.536,-153.221,-453.924,-2675.500,521.760,1937.780
959,63813.612000,181.598,184.158,-159.135,-37.114,-141.405,-455.507,-2710.500,1085.760,1985.780
960,63813.621000,195.304,213.502,-158.147,-95.137,-114.763,-451.558,-2771.500,1413.760,2042.780
961,63813.641000,240.337,232.727,-175.938,-118.727,-104.877,-450.168,-2913.500,1043.760,2027.780
962,63813.658000,224.673,265.107,-199.660,-172.089,-85.068,-429.558,-2945.500,455.760,1980.780
963,63813.681000,163.977,291.415,-227.336,-219.545,-69.182,-409.048,-2885.500,431.760,2008.780
964,63813.712000,143.419,312.664,-260.942,-239.456,-54.504,-396.899,-2773.500,635.760,2034.780
965,63813.726000,144.398,324.806,-278.734,-284.012,-36.711,-375.458,-2707.500,516.760,2035.780
966,63813.749000,128.734,325.818,-303.444,-292.197,-27.949,-359.572,-2578.500,-58.240,1957.780
967,63813.766000,82.723,325.818,-343.969,-324.046,-21.887,-331.451,-2355.500,-703.240,1837.780
968,63813.789000,24.964,327.842,-370.656,-338.923,-20.797,-320.360,-2028.500,-917.240,1691.780
969,63813.810000,-33.774,303.557,-388.448,-357.966,-12.910,-298.375,-1637.500,-877.240,1459.780
970,63813.830000,-61.185,262.071,-433.915,-366.911,-12.838,-290.341,-1277.500,-1094.240,1080.780
971,63813.847000,-85.660,245.881,-462.579,-376.928,-19.537,-273.420,-889.500,-1394.240,658.780
972,63813.856000,-140.482,257.012,-472.463,-378.857,-26.293,-271.409,-335.500,-1212.240,316.780
973,63813.883000,-177.683,258.024,-441.822,-372.941,-33.119,-270.521,241.500,-671.240,-25.220
974,63813.906000,-159.082,250.941,-422.054,-364.904,-38.986,-279.517,491.500,-428.240,-202.220
975,63813.926000,-118.945,239.810,-395.367,-367.682,-46.694,-284.381,861.500,-245.240,-621.220
976,63813.946000,-75.870,235.763,-367.691,-355.573,-60.331,-298.361,1069.500,-345.240,-1023.220
977,63813.966000,-55.312,240.822,-347.923,-339.733,-71.110,-303.551,1181.500,-557.240,-1397.220
978,63813.988000,-25.943,249.929,-342.981,-329.448,-97.304,-318.469,1308.500,-894.240,-1733.220
979,63814.16000,-4.405,262.071,-329.143,-303.489,-129.447,-331.689,1485.500,-1088.240,-2001.220
980,63814.34000,8.321,269.154,-315.305,-285.594,-150.885,-336.903,1653.500,-1045.240,-2214.220
981,63814.47000,5.384,268.142,-311.351,-248.855,-177.317,-354.258,1789.500,-752.240,-2414.220
982,63814.61000,23.006,267.130,-305.421,-236.972,-189.031,-356.423,1834.500,-627.240,-2502.220
983,63814.86000,64.122,261.059,-266.873,-190.466,-215.554,-372.966,1900.500,-531.240,-2705.220
984,63814.109000,71.954,247.905,-253.035,-161.861,-229.349,-379.363,1946.500,-548.240,-2842.220
985,63814.133000,76.849,237.787,-243.151,-114.569,-248.148,-389.038,1966.500,-406.240,-2914.220
986,63814.151000,112.092,214.514,-233.266,-90.009,-257.077,-390.446,1998.500,-280.240,-2894.220
987,63814.174000,141.461,175.051,-235.243,-38.033,-270.124,-391.350,1958.500,-673.240,-2911.220
988,63814.196000,120.902,148.743,-242.162,22.656,-293.904,-381.567,1826.500,-1270.240,-3032.220
989,63814.205000,77.828,146.719,-244.139,50.056,-299.961,-379.092,1753.500,-1214.240,-3143.220
990,63814.232000,88.597,140.648,-237.220,105.674,-302.413,-370.228,1814.500,-618.240,-3162.220
991,63814.250000,133.629,118.387,-217.452,140.787,-301.771,-364.943,1869.500,-355.240,-3092.220
992,63814.272000,156.145,79.937,-204.602,198.179,-293.604,-351.202,1950.500,-432.240,-2876.220
993,63814.295000,135.587,60.711,-184.834,219.479,-288.005,-341.741,1946.500,-696.240,-2650.220
994,63814.312000,126.776,45.534,-170.008,270.896,-279.791,-321.986,1924.500,-617.240,-2414.220
995,63814.335000,126.776,46.545,-131.459,314.421,-260.861,-304.074,1984.500,-89.240,-2180.220
996,63814.357000,128.734,21.249,-80.062,342.535,-247.584,-296.711,2085.500,586.760,-1818.220
997,63814.375000,137.545,-43.510,-17.792,374.307,-219.837,-282.539,2055.500,1216.760,-1339.220
998,63814.402000,199.220,-107.257,-5.931,387.805,-211.262,-275.897,1725.500,1192.760,-986.220
999,63814.422000,243.273,-144.696,3.954,414.790,-187.337,-265.573,1294.500,791.760,-995.220
1000,63814.455000,210.967,-162.909,19.768,420.452,-183.530,-255.833,1077.500,-263.240,-1024.220
