Sample, Time, ACCX, ACCY, ACCZ, MAGX, MAGY, MAGZ, GYRX, GYRY, GYRZ
0,63897.752000,-27.901,-13.154,-244.139,35.979,-347.285,-332.518,-0.500,-9.240,-40.220
1,63897.779000,-30.837,-12.142,-244.139,35.945,-347.287,-330.548,-5.500,-32.240,-47.220
2,63897.797000,-32.795,-12.142,-244.139,32.082,-345.312,-334.420,-4.500,-11.240,-52.220
3,63897.817000,-30.837,-12.142,-242.162,31.052,-345.307,-331.449,-5.500,9.760,-53.220
4,63897.850000,-29.859,-14.166,-241.174,35.962,-347.286,-331.533,-6.500,15.760,-52.220
5,63897.873000,-27.901,-12.142,-241.174,37.927,-344.399,-333.540,-6.500,20.760,-55.220
6,63897.891000,-27.901,-13.154,-241.174,40.906,-347.327,-334.574,-8.500,9.760,-58.220
7,63897.905000,-26.922,-11.130,-242.162,33.018,-346.292,-331.482,-9.500,8.760,-56.220
8,63897.927000,-24.964,-12.142,-242.162,43.799,-348.324,-331.671,-9.500,15.760,-46.220
9,63897.947000,-23.985,-10.119,-241.174,35.979,-345.349,-333.505,-11.500,4.760,-39.220
10,63897.967000,-24.964,-10.119,-242.162,37.945,-346.334,-333.538,-10.500,-6.240,-24.220
11,63897.985000,-24.964,-12.142,-241.174,37.910,-346.336,-331.569,-3.500,15.760,-7.220
12,63898.2000,-23.985,-12.142,-243.151,37.970,-345.365,-335.509,-2.500,9.760,2.780
13,63898.21000,-25.943,-13.154,-244.139,35.963,-349.222,-330.546,-3.500,-3.240,8.780
14,63898.35000,-25.943,-12.142,-245.127,33.087,-346.288,-335.421,-3.500,-17.240,10.780
15,63898.67000,-27.901,-12.142,-243.151,37.996,-344.396,-337.479,-4.500,-16.240,13.780
16,63898.83000,-26.922,-13.154,-245.127,38.914,-343.440,-334.543,-2.500,0.760,20.780
17,63898.110000,-24.964,-13.154,-243.151,36.992,-345.356,-335.491,-4.500,12.760,27.780
18,63898.134000,-23.985,-14.166,-244.139,32.065,-345.313,-333.435,-2.500,-14.240,35.780
19,63898.150000,-26.922,-12.142,-243.151,31.069,-345.306,-332.433,-0.500,-34.240,38.780
20,63898.170000,-29.859,-12.142,-242.162,30.090,-343.361,-333.403,2.500,-26.240,44.780
21,63898.197000,-28.880,-12.142,-243.151,33.043,-343.387,-334.439,4.500,-19.240,47.780
22,63898.215000,-29.859,-11.130,-243.151,32.082,-343.377,-335.407,5.500,-19.240,48.780
23,63898.237000,-30.837,-12.142,-243.151,35.027,-348.242,-333.484,4.500,-16.240,45.780
24,63898.255000,-30.837,-14.166,-243.151,35.971,-346.317,-332.519,2.500,-17.240,41.780
25,63898.272000,-32.795,-11.130,-241.174,31.096,-348.208,-332.430,4.500,-9.240,38.780
26,63898.295000,-31.816,-11.130,-242.162,28.116,-345.280,-331.397,6.500,2.760,40.780
27,63898.315000,-28.880,-10.119,-240.185,37.945,-348.270,-332.551,5.500,6.760,42.780
28,63898.347000,-28.880,-12.142,-240.185,32.057,-348.218,-331.463,-2.500,-26.240,47.780
29,63898.366000,-28.880,-11.130,-240.185,35.980,-351.156,-330.544,-18.500,-42.240,40.780
30,63898.395000,-32.795,-11.130,-240.185,28.126,-348.183,-330.409,-22.500,-43.240,39.780
31,63898.398000,-32.795,-11.130,-242.162,30.082,-346.265,-331.430,-22.500,-17.240,35.780
32,63898.422000,-31.816,-10.119,-242.162,28.117,-349.151,-329.423,-14.500,10.760,38.780
33,63898.445000,-26.922,-9.107,-241.174,30.117,-346.263,-333.400,-5.500,9.760,50.780
34,63898.462000,-26.922,-10.119,-244.139,29.104,-348.192,-330.426,-7.500,-19.240,57.780
35,63898.485000,-29.859,-9.107,-244.139,28.135,-351.086,-329.421,-2.500,-26.240,65.780
36,63898.505000,-29.859,-8.095,-246.116,26.125,-347.200,-328.406,6.500,-4.240,74.780
37,63898.522000,-29.859,-8.095,-243.151,26.212,-347.195,-333.330,10.500,3.760,80.780
38,63898.550000,-30.837,-8.095,-245.127,23.251,-348.138,-331.307,12.500,-0.240,84.780
39,63898.570000,-28.880,-8.095,-245.127,27.191,-351.075,-331.373,19.500,-14.240,85.780
40,63898.585000,-30.837,-9.107,-243.151,20.342,-351.013,-331.252,28.500,-24.240,86.780
41,63898.604000,-33.774,-9.107,-244.139,25.165,-351.061,-327.400,33.500,-17.240,88.780
42,63898.622000,-35.732,-10.119,-245.127,26.213,-351.066,-331.356,38.500,-6.240,87.780
43,63898.645000,-31.816,-11.130,-244.139,23.207,-347.172,-329.339,33.500,-16.240,79.780
44,63898.667000,-32.795,-10.119,-241.174,19.293,-347.137,-329.269,24.500,-38.240,63.780
45,63898.676000,-35.732,-10.119,-241.174,30.031,-348.204,-327.489,13.500,-34.240,46.780
46,63898.705000,-36.711,-11.130,-240.185,26.125,-347.200,-328.406,5.500,-18.240,29.780
47,63898.737000,-37.690,-9.107,-240.185,27.173,-349.141,-331.375,2.500,-6.240,25.780
48,63898.754000,-35.732,-9.107,-240.185,20.289,-347.144,-330.271,-1.500,11.760,19.780
49,63898.775000,-34.753,-10.119,-238.208,18.367,-349.060,-331.220,-4.500,14.760,16.780
50,63898.787000,-31.816,-11.130,-240.185,21.311,-350.055,-331.271,-2.500,15.760,18.780
51,63898.810000,-29.859,-11.130,-238.208,17.319,-347.120,-328.250,-5.500,-14.240,24.780
52,63898.835000,-29.859,-10.119,-240.185,23.251,-348.138,-331.307,-13.500,-50.240,23.780
53,63898.852000,-35.732,-10.119,-242.162,21.320,-351.022,-331.270,-10.500,-36.240,16.780
54,63898.870000,-32.795,-11.130,-242.162,25.234,-351.058,-331.339,-6.500,-18.240,15.780
55,63898.895000,-34.753,-8.095,-244.139,18.316,-350.999,-327.279,-2.500,-4.240,12.780
56,63898.917000,-33.774,-10.119,-245.127,19.311,-349.071,-329.267,-3.500,14.760,10.780
57,63898.946000,-30.837,-8.095,-245.127,22.290,-351.999,-330.301,-10.500,2.760,4.780
58,63898.956000,-34.753,-9.107,-246.116,23.216,-350.075,-328.351,-9.500,-17.240,2.780
59,63898.996000,-31.816,-11.130,-246.116,17.380,-350.020,-330.217,1.500,-4.240,7.780
60,63899.14000,-31.816,-12.142,-246.116,22.264,-349.097,-330.304,9.500,5.760,9.780
61,63899.14000,-30.837,-10.119,-244.139,21.260,-350.058,-328.316,12.500,7.760,9.780
62,63899.33000,-31.816,-12.142,-243.151,23.286,-352.007,-331.303,22.500,18.760,13.780
63,63899.53000,-28.880,-11.130,-238.208,20.281,-348.113,-329.286,23.500,26.760,15.780
64,63899.81000,-28.880,-11.130,-240.185,19.311,-349.071,-329.267,18.500,17.760,18.780
65,63899.96000,-28.880,-11.130,-238.208,22.298,-349.095,-332.274,11.500,5.760,23.780
66,63899.118000,-29.859,-11.130,-239.197,18.375,-348.092,-332.205,1.500,-6.240,34.780
67,63899.141000,-28.880,-10.119,-240.185,16.401,-348.075,-331.186,-4.500,-8.240,37.780
68,63899.163000,-29.859,-11.130,-240.185,20.342,-351.013,-331.252,0.500,-17.240,43.780
69,63899.182000,-30.837,-9.107,-240.185,21.259,-348.122,-329.303,-0.500,-0.240,42.780
70,63899.205000,-31.816,-10.119,-242.162,20.385,-350.043,-334.208,1.500,1.760,49.780
71,63899.225000,-32.795,-11.130,-244.139,15.414,-349.035,-330.183,-1.500,-15.240,43.780
72,63899.252000,-33.774,-10.119,-247.104,16.393,-349.044,-330.200,-4.500,-25.240,42.780
73,63899.271000,-34.753,-11.130,-249.081,17.371,-349.053,-330.218,-3.500,-28.240,38.780
74,63899.300000,-32.795,-9.107,-247.104,12.479,-349.008,-330.131,1.500,-21.240,32.780
75,63899.303000,-32.795,-11.130,-244.139,18.342,-351.966,-328.262,9.500,-16.240,33.780
76,63899.320000,-32.795,-10.119,-245.127,17.380,-350.020,-330.217,8.500,-16.240,23.780
77,63899.347000,-34.753,-9.107,-247.104,15.388,-348.068,-329.199,16.500,-11.240,22.780
78,63899.353000,-31.816,-10.119,-247.104,16.402,-350.011,-330.199,28.500,2.760,29.780
79,63899.381000,-29.859,-9.107,-248.093,13.440,-349.018,-329.164,38.500,3.760,34.780
80,63899.408000,-28.880,-11.130,-246.116,16.402,-350.011,-330.199,41.500,-17.240,42.780
81,63899.426000,-29.859,-11.130,-245.127,16.367,-350.013,-328.230,42.500,-28.240,44.780
82,63899.443000,-30.837,-11.130,-245.127,16.368,-351.949,-327.243,50.500,-33.240,48.780
83,63899.466000,-32.795,-10.119,-244.139,14.427,-349.994,-329.180,59.500,-24.240,53.780
84,63899.488000,-31.816,-11.130,-246.116,20.290,-351.016,-328.298,65.500,-11.240,58.780
85,63899.513000,-29.859,-11.130,-244.139,14.437,-352.897,-328.192,72.500,-6.240,58.780
86,63899.536000,-32.795,-11.130,-243.151,16.447,-356.784,-329.208,81.500,-10.240,63.780
87,63899.551000,-33.774,-12.142,-242.162,15.363,-350.973,-326.242,80.500,0.760,66.780
88,63899.573000,-31.816,-14.166,-241.174,17.364,-353.893,-327.258,78.500,10.760,67.780
89,63899.596000,-33.774,-14.166,-240.185,14.393,-351.932,-326.224,73.500,-1.240,61.780
90,63899.613000,-34.753,-16.190,-238.208,12.523,-351.909,-331.113,67.500,-3.240,59.780
91,63899.635000,-34.753,-17.202,-238.208,16.358,-349.046,-328.231,49.500,-6.240,47.780
92,63899.651000,-137.545,-45.534,-269.838,6.778,-337.330,-345.795,-106.500,150.760,-23.220
93,63899.679000,31.816,-90.055,-172.973,1.665,-354.720,-324.026,-395.500,-1929.240,798.780
94,63899.701000,-161.040,-50.593,-221.405,3.606,-358.611,-321.103,-229.500,-377.240,-216.220
95,63899.723000,-128.734,-8.095,-280.710,12.515,-354.813,-329.141,585.500,538.760,-99.220
96,63899.743000,-28.880,-56.664,-280.710,12.513,-347.070,-333.087,641.500,898.760,177.780
97,63899.758000,64.122,-70.830,-234.255,9.636,-338.329,-340.922,-354.500,319.760,-83.220
98,63899.786000,-22.027,63.747,-251.058,18.425,-340.346,-339.107,-137.500,-92.240,-89.220
99,63899.801000,-43.564,5.059,-268.849,14.520,-339.342,-340.023,33.500,-36.240,-1.220
100,63899.821000,-14.195,-28.332,-266.873,16.512,-341.294,-341.040,48.500,44.760,1.780
101,63899.837000,-23.006,-5.059,-266.873,7.670,-339.280,-339.902,66.500,-12.240,18.780
102,63899.857000,-26.922,-10.119,-255.012,10.580,-340.276,-337.983,122.500,78.760,59.780
103,63899.883000,-11.258,-15.178,-242.162,13.540,-335.462,-341.979,121.500,59.760,54.780
104,63899.906000,-7.342,-16.190,-232.278,14.511,-340.310,-339.037,85.500,-66.240,57.780
105,63899.938000,-16.153,-20.237,-231.290,14.546,-340.309,-341.007,52.500,-160.240,57.780
106,63899.953000,-26.922,-21.249,-231.290,17.438,-341.306,-338.104,23.500,-161.240,35.780
107,63899.971000,-30.837,-22.261,-233.266,18.401,-347.123,-334.176,6.500,-140.240,23.780
108,63899.980000,-34.753,-22.261,-234.255,11.577,-344.155,-337.012,-21.500,-70.240,-6.220
109,63899.998000,-32.795,-19.225,-237.220,15.509,-346.126,-337.079,-24.500,-0.240,-27.220
110,63900.12000,-30.837,-16.190,-239.197,16.477,-341.296,-339.071,-22.500,47.760,-29.220
111,63900.45000,-24.964,-17.202,-241.174,18.417,-343.250,-337.134,-18.500,51.760,-16.220
112,63900.62000,-22.027,-15.178,-244.139,11.533,-343.190,-335.043,-19.500,3.760,4.780
113,63900.90000,-20.069,-17.202,-248.093,8.792,-324.762,-355.690,-2097.500,3063.760,-628.220
114,63900.105000,-1.468,-192.253,-133.436,-7.024,-339.147,-338.658,-1087.500,-1032.240,470.780
115,63900.127000,-157.124,-161.897,-256.000,-3.237,-349.837,-325.914,271.500,-668.240,-406.220
116,63900.145000,-187.472,28.332,-312.340,3.713,-340.215,-336.878,510.500,371.760,-137.220
117,63900.167000,-12.237,40.474,-276.757,7.678,-334.440,-342.861,647.500,1069.760,220.780
118,63900.201000,82.723,-31.368,-231.290,8.666,-339.288,-340.904,-59.500,175.760,-13.220
119,63900.216000,-52.375,-4.047,-268.849,14.519,-337.406,-341.010,-135.500,-378.240,-106.220
120,63900.235000,-30.837,-10.119,-269.838,5.652,-336.362,-337.901,-51.500,-157.240,-80.220
121,63900.257000,-32.795,-7.083,-266.873,9.618,-338.330,-339.938,-13.500,-78.240,-42.220
122,63900.272000,-43.564,-2.024,-257.977,14.442,-338.379,-336.085,26.500,6.760,-19.220
123,63900.290000,-15.174,-9.107,-246.116,11.507,-340.288,-335.046,70.500,131.760,-14.220
124,63900.312000,-11.258,-13.154,-241.174,8.614,-337.355,-338.936,64.500,76.760,-32.220
125,63900.331000,-22.027,-9.107,-241.174,11.559,-342.221,-337.014,25.500,-72.240,-28.220
126,63900.373000,-23.985,-10.119,-240.185,16.478,-343.231,-338.084,21.500,-118.240,-18.220
127,63900.377000,-30.837,-9.107,-239.197,13.481,-340.305,-336.066,22.500,-125.240,-10.220
128,63900.400000,-25.943,-12.142,-237.220,15.465,-345.160,-335.111,32.500,-65.240,4.780
129,63900.422000,-23.985,-14.166,-239.197,13.447,-344.178,-332.123,33.500,-44.240,9.780
130,63900.445000,-24.964,-13.154,-239.197,11.464,-341.258,-332.091,34.500,-40.240,8.780
131,63900.460000,-25.943,-12.142,-241.174,8.633,-345.097,-335.974,35.500,-38.240,7.780
132,63900.482000,-28.880,-11.130,-242.162,17.466,-348.079,-336.127,44.500,-7.240,17.780
133,63900.502000,-23.006,-13.154,-242.162,16.400,-342.268,-334.146,51.500,13.760,24.780
134,63900.533000,57.270,-137.613,-184.834,-0.276,-348.894,-327.937,-1520.500,1046.760,-58.220
135,63900.542000,-91.533,-111.304,-203.614,-8.169,-364.313,-315.966,-1155.500,-1838.240,420.780
136,63900.563000,-255.021,-8.095,-282.687,-6.391,-374.988,-300.233,-35.500,-1272.240,-379.220
137,63900.586000,-99.365,25.296,-271.815,-1.432,-367.286,-308.206,325.500,880.760,-38.220
138,63900.603000,-31.816,-23.273,-256.988,-0.327,-354.705,-322.022,427.500,1319.760,61.780
139,63900.623000,-2.447,-20.237,-250.069,7.681,-346.055,-336.941,334.500,1010.760,-69.220
140,63900.646000,8.321,-19.225,-242.162,6.649,-342.177,-335.943,-142.500,501.760,-145.220
141,63900.658000,-12.237,7.083,-260.942,8.692,-340.254,-341.888,-58.500,162.760,-171.220
142,63900.672000,-23.985,-12.142,-271.815,5.714,-341.198,-338.881,-70.500,-211.240,-127.220
143,63900.700000,-49.438,-2.024,-268.849,5.654,-342.169,-334.941,-36.500,-190.240,-101.220
144,63900.722000,-33.774,-2.024,-255.012,8.614,-339.291,-337.950,42.500,81.760,-54.220
145,63900.765000,-14.195,-11.130,-243.151,7.653,-339.281,-338.917,58.500,100.760,-53.220
146,63900.778000,-16.153,-10.119,-241.174,10.624,-341.241,-339.952,47.500,19.760,-55.220
147,63900.787000,-13.216,-11.130,-240.185,13.542,-343.205,-338.032,40.500,-52.240,-32.220
148,63900.810000,-22.027,-12.142,-239.197,13.508,-343.207,-336.063,29.500,-104.240,-22.220
149,63900.832000,-26.922,-11.130,-239.197,13.508,-345.143,-335.076,37.500,-53.240,-18.220
150,63900.855000,-27.901,-13.154,-235.243,14.539,-345.148,-338.048,39.500,-14.240,-16.220
151,63900.872000,-22.027,-16.190,-235.243,16.460,-343.232,-337.100,35.500,52.760,-16.220
152,63900.890000,-15.174,-15.178,-236.232,16.425,-341.299,-336.117,23.500,43.760,-14.220
153,63900.907000,-19.090,-14.166,-241.174,9.611,-343.170,-336.978,13.500,7.760,0.780
154,63900.927000,-20.069,-11.130,-244.139,10.616,-344.145,-337.979,19.500,-7.240,22.780
155,63900.948000,-21.048,-13.154,-244.139,12.555,-344.164,-337.029,21.500,-43.240,35.780
156,63900.970000,67.059,480.632,141.344,8.655,-328.641,-345.839,-1171.500,1910.760,-536.220
157,63900.992000,107.197,-80.949,-178.903,-1.213,-342.108,-333.835,-631.500,-598.240,303.780
158,63901.15000,-125.797,-56.664,-261.931,0.711,-347.935,-328.940,95.500,-1120.240,-205.220
159,63901.34000,-118.945,41.486,-286.641,9.655,-346.071,-337.960,315.500,210.760,-62.220
160,63901.51000,-8.321,3.036,-260.942,4.708,-336.351,-339.853,472.500,804.760,175.780
161,63901.78000,20.069,-36.427,-247.104,7.677,-332.504,-343.848,182.500,339.760,55.780
162,63901.101000,8.321,-15.178,-249.081,8.648,-335.417,-341.893,-62.500,-143.240,-20.220
163,63901.116000,-27.901,8.095,-265.884,14.484,-335.472,-340.027,-5.500,-262.240,-19.220
164,63901.138000,-28.880,-13.154,-268.849,10.571,-339.308,-337.984,46.500,-152.240,27.780
165,63901.158000,-31.816,-7.083,-265.884,14.547,-344.180,-339.033,85.500,-64.240,40.780
166,63901.181000,-34.753,-3.036,-256.000,19.422,-344.226,-338.135,130.500,66.760,53.780
167,63901.208000,-16.153,-13.154,-242.162,9.583,-336.396,-338.955,125.500,63.760,49.780
168,63901.222000,-15.174,-14.166,-234.255,20.400,-340.363,-340.126,89.500,-16.240,41.780
169,63901.255000,-16.153,-16.190,-230.301,14.538,-343.213,-339.034,53.500,-108.240,36.780
170,63901.263000,-26.922,-15.178,-230.301,12.547,-343.197,-337.030,15.500,-142.240,27.780
171,63901.286000,-32.795,-16.190,-230.301,15.456,-342.257,-336.098,-4.500,-61.240,21.780
172,63901.308000,-26.922,-17.202,-230.301,8.624,-342.194,-336.962,-31.500,-43.240,-0.220
173,63901.331000,-29.859,-15.178,-228.324,11.577,-344.155,-337.012,-52.500,-13.240,-23.220
174,63901.335000,-31.816,-14.166,-232.278,12.485,-340.297,-335.064,-66.500,34.760,-29.220
175,63901.357000,-32.795,-12.142,-240.185,7.628,-342.186,-335.960,-57.500,72.760,-23.220
176,63901.385000,-25.943,-10.119,-247.104,10.537,-339.310,-336.015,-45.500,65.760,-15.220
177,63901.405000,-22.027,-8.095,-249.081,3.757,-341.180,-338.846,-1631.500,1557.760,-274.220
178,63901.427000,-42.585,-243.858,-154.193,-4.206,-356.603,-322.936,-1162.500,-1054.240,362.780
179,63901.442000,-146.356,-49.581,-229.313,0.696,-359.551,-322.035,119.500,-900.240,-407.220
180,63901.465000,-204.115,30.356,-296.525,1.774,-340.196,-337.828,582.500,1215.760,-13.220
181,63901.503000,-40.627,2.024,-277.745,9.659,-329.617,-346.840,467.500,1504.760,167.780
182,63901.520000,10.279,32.379,-245.127,9.711,-329.614,-349.794,-138.500,21.760,-232.220
183,63901.533000,-55.312,6.071,-271.815,5.703,-332.487,-342.828,-141.500,-484.240,-138.220
184,63901.553000,-30.837,-15.178,-270.826,0.820,-335.346,-341.754,-64.500,-313.240,-96.220
185,63901.573000,-27.901,2.024,-266.873,0.768,-335.349,-338.800,-31.500,-72.240,-75.220
186,63901.596000,-36.711,1.012,-256.988,3.747,-334.405,-341.807,18.500,-5.240,-31.220
187,63901.614000,-13.216,-6.071,-245.127,4.785,-333.443,-345.764,76.500,163.760,-15.220
188,63901.631000,-2.447,-10.119,-237.220,7.677,-332.504,-343.848,72.500,111.760,-30.220
189,63901.648000,-13.216,-8.095,-232.278,10.630,-332.530,-344.885,33.500,-37.240,-14.220
190,63901.676000,-19.090,-5.059,-237.220,5.703,-332.487,-342.828,17.500,-112.240,1.780
191,63901.696000,-23.985,-8.095,-240.185,3.756,-337.308,-340.819,14.500,-104.240,16.780
192,63901.718000,-23.006,-9.107,-236.232,12.518,-334.487,-339.993,22.500,-31.240,21.780
193,63901.738000,-21.048,-11.130,-238.208,13.540,-335.462,-341.979,22.500,-4.240,16.780
194,63901.756000,-22.027,-10.119,-239.197,6.674,-335.400,-340.873,16.500,1.760,9.780
195,63901.773000,-22.027,-9.107,-244.139,5.695,-335.391,-340.856,10.500,5.760,3.780
196,63901.796000,-21.048,-7.083,-246.116,8.604,-334.452,-339.924,5.500,27.760,4.780
197,63901.813000,245.231,91.067,-205.591,-3.988,-325.618,-351.525,-2355.500,1999.760,-23.220
198,63901.838000,-148.314,-158.862,-204.602,-19.989,-365.179,-310.833,-1429.500,-2701.240,500.780
199,63901.858000,-373.476,28.332,-326.178,-6.366,-374.019,-302.204,328.500,-590.240,-578.220
200,63901.876000,-93.491,5.059,-297.514,-1.245,-351.789,-326.932,759.500,2193.760,92.780
201,63901.903000,52.375,-117.375,-254.023,3.632,-327.636,-338.860,448.500,2419.760,86.780
202,63901.936000,88.597,62.735,-224.371,-1.028,-320.803,-355.521,-170.500,1455.760,60.780
203,63901.955000,6.363,47.557,-261.931,-1.053,-323.709,-352.564,-72.500,-73.240,-269.220
204,63901.968000,-23.985,-30.356,-285.652,4.731,-325.703,-346.757,-34.500,-447.240,-94.220
205,63901.983000,-25.943,0.000,-290.595,5.729,-331.518,-344.799,-13.500,-360.240,-70.220
206,63901.992000,-39.648,11.130,-284.664,0.828,-334.378,-342.740,97.500,-188.240,30.780
207,63902.20000,-28.880,1.012,-273.792,6.690,-333.464,-342.845,201.500,65.760,73.780
208,63902.42000,-0.489,-7.083,-263.907,2.827,-329.553,-347.703,237.500,5.760,36.780
209,63902.63000,-7.342,-12.142,-263.907,-0.116,-334.367,-344.692,236.500,-168.240,54.780
210,63902.85000,-25.943,-10.119,-262.919,11.592,-334.475,-342.930,249.500,-185.240,65.780
211,63902.102000,-23.985,-10.119,-256.988,13.541,-339.333,-340.006,299.500,-147.240,67.780
212,63902.125000,-26.922,-16.190,-248.093,19.429,-335.514,-343.068,338.500,-138.240,60.780
213,63902.142000,-22.027,-20.237,-233.266,16.459,-339.361,-339.073,359.500,-30.240,45.780
214,63902.160000,-25.943,-30.356,-221.405,21.326,-340.375,-337.189,324.500,7.760,2.780
215,63902.191000,-7.342,-39.462,-209.544,24.296,-340.399,-339.210,225.500,80.760,-25.220
216,63902.208000,17.132,-50.593,-184.834,23.326,-339.422,-340.179,73.500,4.760,-29.220
217,63902.231000,40.627,-62.735,-150.239,30.245,-341.416,-343.252,-137.500,-97.240,7.780
218,63902.251000,87.618,-69.818,-105.761,24.297,-342.335,-338.224,-374.500,-242.240,101.780
219,63902.271000,134.608,-56.664,-67.212,11.473,-344.161,-331.103,-523.500,-372.240,156.780
220,63902.291000,142.440,-26.308,-36.571,0.676,-347.937,-326.970,-813.500,-588.240,399.780
221,63902.313000,126.776,-9.107,-28.664,-26.755,-351.561,-322.543,-1129.500,-375.240,803.780
222,63902.331000,110.134,14.166,-35.583,-33.605,-349.563,-323.408,-1411.500,217.760,1133.780
223,63902.353000,122.860,38.451,-41.514,-74.740,-335.641,-327.619,-1666.500,828.760,1363.780
224,63902.377000,141.461,49.581,-76.108,-84.544,-327.810,-330.408,-1934.500,1262.760,1600.780
225,63902.398000,106.218,49.581,-127.506,-130.619,-297.391,-340.458,-2131.500,1656.760,1813.780
226,63902.418000,114.050,82.972,-207.568,-177.829,-263.101,-343.600,-2137.500,1832.760,1838.780
227,63902.436000,157.124,108.269,-258.965,-206.347,-249.301,-342.127,-2107.500,1682.760,1852.780
228,63902.458000,210.967,142.672,-298.502,-237.074,-228.721,-329.794,-2088.500,950.760,1920.780
229,63902.473000,194.325,199.336,-376.587,-258.916,-214.992,-318.595,-1996.500,-45.240,2081.780
230,63902.501000,122.860,252.964,-444.788,-291.670,-196.335,-301.302,-1653.500,-304.240,2320.780
231,63902.523000,91.533,274.213,-480.371,-313.458,-186.475,-291.083,-1136.500,-5.240,2616.780
232,63902.538000,106.218,268.142,-480.371,-336.351,-161.126,-281.848,-673.500,-186.240,2806.780
233,63902.561000,108.176,263.083,-480.371,-350.401,-139.728,-272.764,-247.500,-940.240,2840.780
234,63902.578000,64.122,272.190,-480.371,-354.490,-133.894,-265.808,252.500,-1496.240,2842.780
235,63902.601000,-7.342,279.273,-480.371,-359.447,-115.463,-271.648,819.500,-1531.240,2784.780
236,63902.623000,-50.417,276.237,-479.382,-355.534,-111.627,-273.691,1083.500,-1394.240,2744.780
237,63902.645000,-50.417,266.119,-454.672,-349.527,-101.994,-286.606,1539.500,-1230.240,2597.780
238,63902.665000,-50.417,249.929,-423.042,-351.434,-94.230,-293.473,1868.500,-1478.240,2359.780
239,63902.687000,-52.375,233.739,-396.355,-336.532,-94.351,-306.534,2080.500,-1882.240,2010.780
240,63902.706000,-70.975,222.609,-366.703,-321.620,-99.311,-317.621,2259.500,-2214.240,1582.780
241,63902.740000,-103.281,217.549,-331.120,-298.624,-122.717,-333.752,2418.500,-2216.240,1151.780
242,63902.747000,-126.776,202.372,-297.514,-277.683,-137.401,-348.872,2537.500,-1946.240,728.780
243,63902.761000,-138.524,180.111,-261.931,-265.705,-148.141,-356.947,2603.500,-1549.240,231.780
244,63902.777000,-144.398,161.897,-223.382,-231.981,-167.776,-373.272,2607.500,-1336.240,-232.220
245,63902.798000,-120.902,130.530,-133.436,-214.158,-177.604,-380.467,2542.500,-881.240,-435.220
246,63902.830000,-108.176,106.245,-98.842,-178.602,-185.648,-395.853,2408.500,-523.240,-807.220
247,63902.847000,-91.533,86.008,-80.062,-157.896,-193.570,-401.133,2203.500,-237.240,-1099.220
248,63902.870000,-73.912,68.806,-46.456,-114.598,-201.691,-411.734,1979.500,-130.240,-1359.220
249,63902.887000,-63.143,49.581,-13.838,-80.133,-206.829,-422.182,1700.500,-86.240,-1595.220
250,63902.905000,-74.891,15.178,7.907,-70.269,-213.689,-423.333,1363.500,-135.240,-1783.220
251,63902.927000,-78.807,-9.107,4.942,-41.884,-214.914,-423.834,976.500,-117.240,-2001.220
252,63902.945000,-56.291,-18.213,3.954,-21.231,-217.031,-429.119,630.500,-41.240,-2183.220
253,63902.972000,-43.564,-19.225,17.792,-0.743,-216.254,-426.529,468.500,-50.240,-2279.220
254,63902.992000,-48.459,-20.237,25.699,11.086,-220.227,-429.687,123.500,-49.240,-2461.220
255,63903.12000,-43.564,-17.202,13.838,28.706,-213.612,-433.944,-254.500,130.760,-2616.220
256,63903.35000,-20.069,-10.119,-13.838,32.557,-206.875,-434.020,-612.500,351.760,-2750.220
257,63903.52000,18.111,6.071,-37.560,44.314,-197.302,-440.146,-928.500,358.760,-2926.220
258,63903.75000,33.774,26.308,-73.143,48.235,-190.562,-444.161,-1200.500,127.760,-3127.220
259,63903.100000,13.216,42.498,-112.680,46.268,-185.705,-446.101,-1399.500,96.760,-3321.220
260,63903.135000,34.753,76.901,-154.193,51.052,-166.398,-450.146,-1452.500,555.760,-3450.220
261,63903.135000,72.933,116.364,-184.834,50.062,-155.743,-455.063,-1370.500,966.760,-3475.220
262,63903.162000,107.197,134.577,-189.776,38.261,-128.538,-465.716,-1297.500,1088.760,-3464.220
263,63903.175000,154.187,130.530,-206.579,45.065,-117.956,-468.802,-1233.500,1233.760,-3396.220
264,63903.197000,189.430,132.553,-247.104,31.239,-94.609,-473.507,-1242.500,942.760,-3341.220
265,63903.220000,185.514,148.743,-272.803,23.329,-80.023,-476.337,-1177.500,508.760,-3308.220
266,63903.237000,161.040,152.791,-291.583,22.333,-76.144,-477.308,-1032.500,442.760,-3209.220
267,63903.260000,185.514,147.731,-323.212,18.328,-60.627,-480.209,-896.500,693.760,-3141.220
268,63903.277000,232.505,138.625,-362.749,10.421,-53.785,-479.093,-748.500,454.760,-3135.220
269,63903.300000,235.442,156.838,-389.436,5.511,-53.741,-478.022,-573.500,-40.240,-3084.220
270,63903.322000,202.157,168.980,-396.355,6.446,-52.785,-476.070,-446.500,-94.240,-2998.220
271,63903.340000,209.989,155.826,-406.239,12.307,-47.999,-478.148,-144.500,84.760,-2732.220
272,63903.362000,255.021,143.684,-415.135,17.217,-49.978,-478.233,91.500,-43.240,-2525.220
273,63903.385000,259.916,143.684,-428.973,25.091,-60.694,-475.406,252.500,-771.240,-2418.220
274,63903.405000,234.463,158.862,-429.961,42.890,-77.298,-477.671,447.500,-1064.240,-2326.220
275,63903.432000,253.063,172.016,-432.927,49.644,-76.398,-472.869,725.500,-751.240,-2225.220
276,63903.451000,276.558,157.850,-429.961,76.082,-82.444,-471.361,1108.500,-435.240,-1964.220
277,63903.477000,308.864,143.684,-395.367,92.682,-82.598,-469.686,1472.500,-371.240,-1418.220
278,63903.487000,310.822,119.399,-364.726,125.925,-85.805,-467.317,1765.500,-535.240,-835.220
279,63903.507000,304.948,106.245,-350.888,138.604,-90.763,-462.613,1877.500,-601.240,-634.220
280,63903.530000,282.432,92.079,-317.282,177.572,-98.872,-449.510,2076.500,-594.240,-333.220
281,63903.546000,270.685,74.877,-282.687,215.570,-102.132,-439.350,2217.500,-420.240,-40.220
282,63903.567000,268.727,50.593,-241.174,235.011,-105.220,-430.830,2312.500,-328.240,326.780
283,63903.590000,256.979,36.427,-212.510,268.058,-119.086,-411.710,2309.500,-391.240,658.780
284,63903.605000,251.105,19.225,-183.846,287.439,-125.082,-398.263,2256.500,-350.240,868.780
285,63903.618000,239.358,24.285,-146.286,316.572,-138.912,-379.073,2179.500,-175.240,1125.780
286,63903.637000,217.820,18.213,-109.714,326.211,-143.849,-368.409,2062.500,96.760,1486.780
287,63903.662000,213.904,-1.012,-74.131,341.655,-160.458,-347.989,1980.500,145.760,1946.780
288,63903.690000,211.946,-28.332,-39.537,353.319,-195.413,-325.512,1715.500,-169.240,2148.780
289,63903.705000,186.493,-46.545,-19.768,347.400,-210.849,-314.561,1387.500,-816.240,2385.780
290,63903.727000,133.629,-43.510,-12.849,344.467,-252.442,-292.802,1120.500,-1158.240,2520.780
291,63903.747000,76.849,-45.534,-5.931,327.898,-272.613,-285.594,913.500,-886.240,2549.780
292,63903.770000,47.480,-46.545,2.965,311.297,-302.465,-271.483,672.500,-278.240,2512.780
293,63903.795000,32.795,-54.640,20.757,300.605,-310.107,-271.285,284.500,334.760,2394.780
294,63903.817000,41.606,-58.688,26.687,269.671,-330.127,-281.543,-215.500,610.760,2269.780
295,63903.840000,45.522,-48.569,24.710,255.124,-334.825,-286.203,-681.500,567.760,2146.780
296,63903.857000,31.816,-32.379,11.861,219.164,-340.290,-296.389,-883.500,574.760,2118.780
297,63903.890000,32.795,-8.095,0.988,178.397,-343.769,-312.399,-1268.500,692.760,2091.780
298,63903.903000,64.122,24.285,-12.849,151.102,-341.579,-318.810,-1623.500,722.760,2119.780
299,63903.922000,75.870,57.676,-44.479,100.463,-343.038,-330.710,-1940.500,434.760,2155.780
300,63903.931000,46.501,96.126,-85.992,77.154,-346.686,-338.169,-2095.500,522.760,2214.780
301,63903.957000,14.195,131.542,-112.680,20.458,-329.713,-348.999,-2170.500,1222.760,2317.780
302,63903.971000,51.396,163.921,-126.517,-12.762,-319.728,-356.299,-2369.500,1712.760,2337.780
303,63903.993000,113.071,195.289,-156.170,-66.559,-295.040,-369.159,-2568.500,1364.760,2295.780
304,63904.16000,101.323,212.490,-200.649,-123.525,-271.306,-368.178,-2645.500,1139.760,2329.780
305,63904.36000,74.891,232.727,-222.394,-151.135,-253.647,-364.757,-2659.500,1224.760,2368.780
306,63904.58000,98.386,273.202,-252.046,-206.310,-225.101,-356.923,-2660.500,1225.760,2476.780
307,63904.80000,117.966,296.474,-394.378,-225.155,-214.299,-347.742,-2583.500,537.760,2478.780
308,63904.101000,59.228,302.545,-460.602,-271.701,-198.426,-323.311,-2364.500,-263.240,2491.780
309,63904.118000,12.237,308.617,-480.371,-285.731,-188.641,-309.291,-1982.500,-380.240,2522.780
310,63904.143000,1.468,312.664,-480.371,-320.504,-165.129,-290.984,-1397.500,-85.240,2534.780
311,63904.160000,3.426,299.510,-480.371,-329.708,-131.195,-285.938,-698.500,279.760,2509.780
312,63904.186000,16.153,280.285,-480.371,-346.484,-119.437,-283.686,-62.500,478.760,2448.780
313,63904.203000,36.711,266.119,-480.371,-354.553,-87.439,-286.534,191.500,496.760,2370.780
314,63904.221000,23.006,248.917,-480.371,-353.525,-77.766,-294.439,631.500,235.760,2305.780
315,63904.248000,14.195,235.763,-474.440,-343.719,-59.463,-305.463,1050.500,-115.240,2203.780
316,63904.277000,-6.363,220.585,-444.788,-342.691,-51.726,-312.382,1436.500,-577.240,2101.780
317,63904.291000,-40.627,220.585,-399.320,-317.045,-42.267,-329.582,1822.500,-985.240,1932.780
318,63904.308000,-67.059,214.514,-351.876,-309.018,-41.359,-341.539,2163.500,-1106.240,1693.780
319,63904.326000,-81.744,196.300,-301.467,-285.127,-44.453,-363.616,2413.500,-919.240,1401.780
320,63904.352000,-86.639,165.945,-265.884,-257.340,-43.712,-386.751,2523.500,-697.240,1051.780
321,63904.373000,-86.639,137.613,-232.278,-244.402,-48.655,-396.818,2532.500,-575.240,641.780
322,63904.391000,-84.681,113.328,-201.637,-212.699,-55.693,-416.076,2509.500,-557.240,434.780
323,63904.408000,-85.660,91.067,-173.961,-195.908,-59.707,-423.259,2408.500,-682.240,-1.220
324,63904.431000,-94.470,80.949,-146.286,-156.385,-73.592,-438.709,2220.500,-725.240,-460.220
325,63904.448000,-90.554,73.866,-122.564,-141.585,-79.526,-442.902,2019.500,-626.240,-857.220
326,63904.477000,-73.912,68.806,-111.691,-109.005,-96.258,-451.334,1833.500,-567.240,-1214.220
327,63904.498000,-55.312,64.759,-86.981,-77.481,-112.017,-455.811,1633.500,-553.240,-1482.220
328,63904.516000,-50.417,56.664,-67.212,-67.644,-115.975,-456.965,1420.500,-644.240,-1732.220
329,63904.538000,-42.585,40.474,-50.409,-33.263,-128.861,-458.543,1198.500,-601.240,-1956.220
330,63904.566000,-34.753,33.391,-37.560,-18.595,-129.963,-457.817,970.500,-468.240,-2203.220
331,63904.585000,-29.859,30.356,-27.676,7.965,-137.939,-462.215,862.500,-362.240,-2321.220
332,63904.612000,-17.132,33.391,-7.907,14.744,-132.198,-461.357,652.500,-81.240,-2559.220
333,63904.612000,-2.447,39.462,13.838,35.203,-120.775,-462.717,386.500,311.760,-2777.220
334,63904.626000,34.753,45.534,11.861,45.012,-114.087,-467.821,96.500,642.760,-3043.220
335,63904.648000,70.975,52.617,-7.907,51.725,-89.959,-472.890,-187.500,708.760,-3306.220
336,63904.671000,75.870,60.711,-20.757,58.466,-70.670,-476.970,-425.500,750.760,-3462.220
337,63904.693000,97.407,75.889,-39.537,61.321,-60.054,-478.017,-586.500,920.760,-3499.220
338,63904.716000,133.629,100.174,-72.154,57.236,-31.959,-482.900,-687.500,985.760,-3549.220
339,63904.739000,172.788,128.506,-103.784,51.275,-18.360,-484.779,-733.500,976.760,-3593.220
340,63904.760000,209.010,138.625,-143.320,37.381,1.112,-483.572,-842.500,785.760,-3644.220
341,63904.786000,205.094,165.945,-177.915,36.375,5.959,-484.544,-909.500,462.760,-3685.220
342,63904.812000,192.367,191.241,-197.683,17.632,22.574,-484.232,-777.500,552.760,-3530.220
343,63904.816000,212.925,180.111,-235.243,7.671,36.203,-481.118,-613.500,729.760,-3318.220
344,63904.837000,240.337,179.099,-269.838,-1.136,38.219,-481.949,-505.500,594.760,-3240.220
345,63904.863000,252.084,191.241,-296.525,-5.138,45.993,-480.903,-451.500,320.760,-3264.220
346,63904.883000,257.958,198.324,-341.004,-15.936,46.089,-478.743,-352.500,36.760,-3322.220
347,63904.903000,255.021,219.573,-363.737,-22.777,45.184,-478.621,-148.500,75.760,-3274.220
348,63904.921000,276.558,226.656,-394.378,-19.877,47.091,-477.690,-18.500,124.760,-3197.220
349,63904.943000,317.675,217.549,-419.089,-18.897,43.211,-475.734,261.500,-69.240,-2993.220
350,63904.966000,355.855,213.502,-420.077,-16.685,26.753,-481.661,509.500,-678.240,-2746.220
351,63904.988000,357.813,219.573,-427.985,-6.854,16.019,-478.869,756.500,-1187.240,-2453.220
352,63905.11000,327.465,218.561,-419.089,13.898,-4.482,-480.197,1109.500,-1183.240,-2062.220
353,63905.28000,324.528,202.372,-397.344,31.538,-9.480,-479.518,1437.500,-1026.240,-1633.220
354,63905.47000,324.528,183.146,-370.656,62.949,-24.278,-478.088,1667.500,-999.240,-1333.220
355,63905.68000,321.591,187.194,-339.027,79.628,-31.202,-477.390,1861.500,-875.240,-1065.220
356,63905.91000,316.696,166.957,-311.351,119.748,-39.310,-474.153,2051.500,-804.240,-683.220
357,63905.108000,304.948,136.601,-286.641,132.374,-40.399,-468.468,2131.500,-626.240,-471.220
358,63905.138000,310.822,117.375,-256.000,182.166,-47.634,-459.496,2244.500,-590.240,-79.220
359,63905.158000,289.285,108.269,-224.371,213.256,-59.546,-441.328,2298.500,-593.240,255.780
360,63905.179000,261.874,81.960,-199.660,237.624,-62.677,-434.864,2303.500,-441.240,579.780
361,63905.207000,251.105,67.794,-168.031,269.709,-72.662,-418.684,2243.500,-310.240,882.780
362,63905.226000,234.463,47.557,-155.181,278.449,-82.425,-409.967,2156.500,-254.240,1160.780
363,63905.230000,218.799,25.296,-141.344,307.634,-98.188,-392.745,2071.500,-211.240,1441.780
364,63905.252000,209.010,10.119,-130.471,321.232,-107.997,-382.145,1951.500,-144.240,1700.780
365,63905.270000,190.409,9.107,-107.737,338.642,-127.527,-360.772,1903.500,-118.240,1842.780
366,63905.288000,173.767,3.036,-85.004,346.346,-151.802,-341.191,1758.500,-30.240,2121.780
367,63905.323000,161.040,-5.059,-68.201,356.170,-169.311,-334.453,1573.500,-5.240,2366.780
368,63905.337000,140.482,-10.119,-32.618,355.208,-197.371,-320.621,1329.500,-26.240,2573.780
369,63905.354000,116.008,-5.059,-16.803,345.436,-213.736,-312.553,1059.500,-106.240,2793.780
370,63905.373000,82.723,-5.059,-15.815,328.940,-247.453,-302.378,780.500,-72.240,3029.780
371,63905.396000,64.122,-11.130,-18.780,319.262,-262.845,-300.219,514.500,104.760,3235.780
372,63905.413000,62.164,-17.202,-21.745,288.226,-292.549,-299.636,199.500,203.760,3328.780
373,63905.435000,68.038,-5.059,-18.780,267.829,-308.808,-299.256,-160.500,123.760,3288.780
374,63905.453000,57.270,9.107,-8.896,225.067,-332.598,-302.409,-347.500,53.760,3229.780
375,63905.498000,37.690,21.249,-5.931,180.295,-352.501,-304.547,-742.500,-24.240,3087.780
376,63905.512000,26.922,35.415,-37.560,151.054,-355.132,-308.949,-1182.500,25.760,2871.780
377,63905.526000,25.943,57.676,-87.969,101.317,-363.380,-312.981,-1547.500,54.760,2614.780
378,63905.538000,21.048,81.960,-104.772,77.869,-365.100,-313.549,-1696.500,172.760,2406.780
379,63905.566000,-0.489,102.198,-104.772,28.076,-357.865,-322.521,-1876.500,758.760,2323.780
380,63905.586000,-1.468,128.506,-107.737,3.715,-346.022,-333.917,-2217.500,1606.760,2223.780
381,63905.610000,30.837,179.099,-146.286,-53.001,-319.370,-348.696,-2482.500,2025.760,2039.780
382,63905.632000,75.870,213.502,-180.880,-110.801,-284.973,-361.496,-2533.500,2051.760,1914.780
383,63905.647000,116.008,229.692,-191.753,-135.329,-264.428,-367.978,-2619.500,2029.760,1946.780
384,63905.666000,134.608,262.071,-263.907,-188.539,-234.931,-361.164,-2827.500,1739.760,1970.780
385,63905.685000,111.113,265.107,-335.073,-210.328,-221.200,-352.919,-2855.500,972.760,1980.780
386,63905.707000,126.776,286.356,-397.344,-261.786,-201.411,-329.389,-2775.500,460.760,2061.780
387,63905.735000,117.966,328.854,-438.857,-282.570,-192.527,-320.172,-2471.500,94.760,2121.780
388,63905.752000,75.870,331.889,-468.510,-318.503,-166.113,-292.987,-1951.500,-26.240,2316.780
389,63905.771000,66.080,312.664,-480.371,-330.438,-154.402,-287.867,-1424.500,60.760,2415.780
390,63905.806000,59.228,306.593,-480.371,-354.447,-130.988,-269.749,-912.500,4.760,2498.780
391,63905.817000,34.753,294.451,-480.371,-362.602,-104.802,-264.714,-652.500,-176.240,2504.780
392,63905.831000,10.279,293.439,-480.371,-376.494,-93.074,-259.559,-100.500,-525.240,2498.780
393,63905.853000,-10.279,281.296,-480.371,-376.593,-76.625,-262.530,453.500,-860.240,2436.780
394,63905.876000,-56.291,268.142,-474.440,-378.483,-68.860,-270.381,974.500,-1205.240,2287.780
395,63905.893000,-94.470,264.095,-450.718,-368.578,-63.135,-280.408,1475.500,-1256.240,2075.780
396,63905.916000,-101.323,259.036,-419.089,-354.681,-60.344,-293.455,1927.500,-1123.240,1867.780
397,63905.938000,-90.554,245.881,-369.668,-335.771,-55.656,-314.469,2266.500,-1059.240,1636.780
398,63905.967000,-86.639,215.526,-319.259,-315.794,-56.779,-337.463,2477.500,-1111.240,1327.780
399,63905.981000,-92.512,186.182,-273.792,-302.779,-58.814,-353.442,2576.500,-1127.240,897.780
400,63905.997000,-101.323,153.802,-236.232,-272.938,-68.732,-376.601,2587.500,-1048.240,662.780
401,63906.18000,-103.281,126.482,-195.707,-252.207,-71.813,-385.824,2553.500,-833.240,177.780
402,63906.41000,-98.386,99.162,-158.147,-221.456,-81.744,-405.061,2426.500,-561.240,-307.220
403,63906.58000,-89.576,87.020,-124.541,-208.552,-88.625,-412.173,2244.500,-346.240,-778.220
404,63906.83000,-73.912,78.925,-100.819,-170.994,-101.524,-427.589,2045.500,-230.240,-1171.220
405,63906.92000,-57.270,67.794,-83.027,-158.031,-105.498,-439.627,1831.500,-185.240,-1443.220
406,63906.128000,-49.438,62.735,-60.293,-122.674,-112.586,-444.182,1596.500,-158.240,-1632.220
407,63906.143000,-49.438,52.617,-40.525,-91.204,-120.605,-449.652,1326.500,-97.240,-1778.220
408,63906.166000,-48.459,39.462,-24.710,-77.488,-120.729,-450.879,1190.500,-67.240,-1860.220
409,63906.188000,-30.837,17.202,-23.722,-54.912,-124.801,-453.242,880.500,-111.240,-2071.220
410,63906.203000,-12.237,4.047,-13.838,-48.946,-125.817,-458.269,534.500,-204.240,-2316.220
411,63906.221000,6.363,2.024,0.988,-36.163,-134.640,-457.500,149.500,-234.240,-2559.220
412,63906.238000,27.901,10.119,11.861,-22.490,-133.798,-456.759,-264.500,-294.240,-2774.220
413,63906.261000,59.228,21.249,0.000,-21.448,-144.451,-454.796,-782.500,-591.240,-2989.220
414,63906.283000,61.185,39.462,-40.525,-23.377,-155.078,-450.812,-1161.500,-774.240,-3161.220
415,63906.306000,51.396,60.711,-87.969,-22.379,-160.893,-448.853,-1335.500,-213.240,-3190.220
416,63906.328000,51.396,98.150,-103.784,-23.369,-150.238,-453.771,-1310.500,244.760,-3203.220
417,63906.343000,76.849,132.553,-107.737,-29.339,-135.672,-455.651,-1265.500,1076.760,-3225.220
418,63906.366000,112.092,146.719,-125.529,-25.526,-113.451,-461.651,-1180.500,1539.760,-3274.220
419,63906.393000,152.229,123.447,-166.054,-34.431,-100.794,-462.493,-1229.500,1547.760,-3262.220
420,63906.421000,201.178,120.411,-234.255,-43.301,-86.199,-466.291,-1370.500,996.760,-3365.220
421,63906.440000,184.535,159.874,-277.745,-57.053,-82.206,-465.068,-1317.500,483.760,-3372.220
422,63906.448000,132.650,186.182,-293.560,-56.137,-77.379,-464.105,-1132.500,796.760,-3216.220
423,63906.471000,171.809,193.265,-321.236,-70.894,-66.603,-464.841,-918.500,974.760,-3097.220
424,63906.493000,208.031,200.348,-360.772,-69.952,-62.742,-464.862,-684.500,602.760,-3029.220
425,63906.513000,203.136,205.407,-388.448,-69.969,-62.743,-463.878,-569.500,471.760,-2968.220
426,63906.531000,198.241,195.289,-430.950,-70.904,-63.700,-465.829,-323.500,434.760,-2820.220
427,63906.553000,239.358,189.217,-453.683,-59.144,-65.741,-466.035,-94.500,243.760,-2785.220
428,63906.571000,271.663,211.478,-478.394,-59.179,-65.743,-464.065,277.500,-135.240,-2695.220
429,63906.591000,266.769,214.514,-452.695,-37.502,-76.577,-467.389,679.500,-236.240,-2372.220
430,63906.614000,272.642,194.277,-431.938,-15.931,-81.610,-467.765,1004.500,-395.240,-2052.220
431,63906.628000,298.096,186.182,-416.124,-3.113,-92.367,-467.979,1274.500,-747.240,-1809.220
432,63906.646000,266.769,172.016,-393.390,33.198,-104.305,-468.608,1532.500,-904.240,-1548.220
433,63906.668000,283.411,164.933,-356.819,44.994,-112.152,-467.823,1816.500,-667.240,-1207.220
434,63906.691000,307.885,149.755,-313.328,85.035,-115.425,-462.621,1922.500,-576.240,-1044.220
435,63906.718000,302.011,132.553,-286.641,101.645,-120.417,-458.971,2079.500,-627.240,-730.220
436,63906.732000,277.537,109.281,-255.012,143.627,-127.580,-450.845,2219.500,-648.240,-343.220
437,63906.770000,271.663,83.984,-220.417,177.728,-132.740,-440.613,2334.500,-502.240,146.780
438,63906.778000,268.727,67.794,-192.741,202.151,-147.483,-431.184,2346.500,-508.240,567.780
439,63906.797000,236.421,53.628,-177.915,238.089,-158.474,-411.133,2295.500,-681.240,870.780
440,63906.818000,197.262,43.510,-151.228,245.815,-164.358,-402.403,2269.500,-600.240,1147.780
441,63906.843000,188.451,30.356,-117.622,273.010,-183.977,-381.203,2231.500,-283.240,1447.780
442,63906.858000,178.662,21.249,-89.946,283.689,-191.823,-372.523,2180.500,-189.240,1597.780
443,63906.876000,157.124,12.142,-69.189,299.159,-211.334,-352.100,2024.500,-151.240,1862.780
444,63906.898000,133.629,1.012,-47.444,298.125,-227.782,-340.249,1823.500,-122.240,2113.780
445,63906.912000,118.945,-13.154,-16.803,295.152,-251.955,-325.401,1553.500,-45.240,2327.780
446,63906.937000,100.344,-22.261,3.954,291.253,-276.117,-313.491,1173.500,-81.240,2471.780
447,63906.960000,72.933,-23.273,10.873,280.509,-283.761,-310.338,774.500,-191.240,2564.780
448,63906.980000,53.354,-25.296,15.815,256.157,-310.634,-302.000,418.500,-197.240,2612.780
449,63907.7000,35.732,-20.237,18.780,245.475,-325.050,-298.841,82.500,-102.240,2609.780
450,63907.30000,17.132,-8.095,16.803,213.406,-343.134,-301.206,-239.500,98.760,2560.780
451,63907.45000,11.258,4.047,12.849,188.018,-344.835,-302.724,-395.500,256.760,2541.780
452,63907.68000,-0.489,9.107,1.977,148.143,-348.329,-313.828,-697.500,636.760,2517.780
453,63907.82000,-4.405,8.095,-12.849,115.107,-347.045,-327.027,-1012.500,1087.760,2453.780
454,63907.115000,26.922,27.320,-33.606,88.893,-337.114,-343.310,-1424.500,1460.760,2333.780
455,63907.143000,35.732,65.771,-63.259,38.206,-320.186,-362.123,-1836.500,1513.760,2217.780
456,63907.158000,29.859,102.198,-95.876,7.896,-309.262,-368.490,-2128.500,1566.760,2145.780
457,63907.180000,58.249,135.589,-123.552,-45.875,-283.605,-383.320,-2371.500,1751.760,2125.780
458,63907.200000,104.260,169.992,-169.019,-72.342,-266.913,-388.778,-2615.500,1562.760,2107.780
459,63907.218000,138.524,195.289,-225.359,-130.321,-245.108,-384.825,-2682.500,1252.760,2071.780
460,63907.233000,111.113,235.763,-263.907,-150.992,-237.185,-381.515,-2738.500,742.760,2015.780
461,63907.253000,68.038,260.047,-284.664,-198.468,-209.685,-365.940,-2621.500,926.760,2064.780
462,63907.267000,96.428,257.012,-343.969,-243.998,-173.492,-354.348,-2486.500,1274.760,2167.780
463,63907.290000,171.809,245.881,-363.737,-271.694,-159.709,-344.030,-2445.500,946.760,2141.780
464,63907.310000,193.346,274.213,-423.042,-311.391,-145.834,-318.732,-2414.500,-236.240,2013.780
465,63907.332000,100.344,297.486,-480.371,-316.536,-139.029,-307.820,-2003.500,-865.240,2031.780
466,63907.350000,19.090,296.474,-480.371,-348.414,-122.321,-283.649,-1298.500,-284.240,2157.780
467,63907.372000,17.132,273.202,-480.371,-355.501,-107.754,-277.634,-626.500,412.760,2311.780
468,63907.392000,66.080,243.858,-480.371,-367.509,-78.625,-277.455,-356.500,422.760,2335.780
469,63907.410000,70.975,244.870,-480.371,-365.687,-60.260,-279.478,79.500,-142.240,2268.780
470,63907.437000,28.880,249.929,-480.371,-368.729,-50.560,-278.451,548.500,-785.240,2147.780
471,63907.460000,-18.111,239.810,-480.371,-363.744,-38.017,-290.367,1043.500,-1041.240,2012.780
472,63907.481000,-50.417,231.715,-444.788,-354.826,-37.123,-297.417,1516.500,-908.240,1856.780
473,63907.501000,-63.143,228.680,-398.332,-339.857,-27.561,-319.351,1928.500,-674.240,1695.780
474,63907.517000,-55.312,206.419,-354.842,-330.852,-24.726,-332.312,2200.500,-571.240,1479.780
475,63907.539000,-45.522,180.111,-313.328,-296.294,-21.148,-352.617,2330.500,-664.240,1127.780
476,63907.555000,-53.354,154.814,-272.803,-277.191,-26.128,-379.529,2358.500,-720.240,670.780
477,63907.573000,-69.017,125.470,-245.127,-261.327,-30.130,-389.650,2376.500,-737.240,422.780
478,63907.587000,-71.954,112.316,-220.417,-231.493,-41.017,-411.823,2352.500,-592.240,-60.220
479,63907.620000,-66.080,111.304,-194.718,-208.857,-46.054,-417.139,2331.500,-446.240,-468.220
480,63907.628000,-58.249,109.281,-165.066,-173.318,-54.100,-431.541,2292.500,-328.240,-810.220
481,63907.661000,-50.417,102.198,-134.425,-162.372,-59.027,-439.605,2174.500,-264.240,-1084.220
482,63907.678000,-42.585,87.020,-112.680,-127.820,-68.032,-453.003,2006.500,-295.240,-1327.220
483,63907.701000,-33.774,70.830,-99.830,-105.218,-73.071,-456.351,1804.500,-440.240,-1570.220
484,63907.723000,-34.753,60.711,-86.981,-68.838,-83.069,-461.905,1596.500,-547.240,-1821.220
485,63907.743000,-35.732,52.617,-62.270,-44.208,-95.865,-465.279,1479.500,-528.240,-1948.220
486,63907.767000,-23.006,49.581,-42.502,-33.427,-99.834,-464.481,1219.500,-375.240,-2165.220
487,63907.788000,-12.237,48.569,-25.699,-6.929,-102.973,-467.899,956.500,-183.240,-2374.220
488,63907.810000,-4.405,42.498,-12.849,1.885,-98.213,-471.014,670.500,13.760,-2567.220
489,63907.827000,23.985,30.356,0.988,17.504,-90.614,-473.268,283.500,125.760,-2742.220
490,63907.850000,69.996,28.332,7.907,26.277,-92.632,-470.468,-168.500,-138.240,-2973.220
491,63907.881000,91.533,51.605,2.965,32.200,-94.618,-472.539,-561.500,-534.240,-3171.220
492,63907.896000,87.618,71.842,-17.792,31.170,-94.612,-469.568,-799.500,-477.240,-3261.220
493,63907.916000,74.891,73.866,-47.444,25.323,-89.718,-473.408,-934.500,-222.240,-3287.220
494,63907.930000,93.491,70.830,-89.946,32.145,-83.007,-475.505,-986.500,336.760,-3317.220
495,63907.962000,162.998,112.316,-180.880,21.336,-74.200,-477.293,-1001.500,519.760,-3393.220
496,63907.976000,212.925,128.506,-200.649,19.211,-57.737,-476.290,-939.500,631.760,-3385.220
497,63907.992000,270.685,142.672,-245.127,13.339,-53.813,-478.160,-969.500,707.760,-3242.220
498,63908.16000,253.063,144.696,-308.386,-2.424,-42.061,-477.895,-970.500,310.760,-3091.220
499,63908.38000,235.442,130.530,-341.004,-10.244,-39.086,-479.729,-863.500,30.760,-2929.220
500,63908.58000,220.757,126.482,-370.656,-17.145,-40.962,-475.667,-756.500,-76.240,-2817.220
501,63908.76000,246.210,125.470,-405.251,-26.912,-42.808,-475.492,-670.500,-208.240,-2837.220
502,63908.102000,220.757,140.648,-433.915,-19.055,-53.525,-471.680,-613.500,-367.240,-2898.220
503,63908.118000,194.325,159.874,-455.660,-18.940,-62.229,-473.641,-406.500,-523.240,-2942.220
504,63908.136000,203.136,173.028,-456.649,-18.957,-66.102,-470.683,-77.500,-266.240,-2818.220
505,63908.157000,233.484,179.099,-437.869,0.648,-66.278,-472.999,295.500,-138.240,-2605.220
506,63908.172000,276.558,180.111,-425.019,5.523,-68.259,-471.114,594.500,-344.240,-2410.220
507,63908.198000,245.231,175.051,-423.042,25.217,-78.109,-473.419,861.500,-745.240,-2266.220
508,63908.221000,223.694,168.980,-408.216,52.686,-88.033,-472.909,1218.500,-565.240,-1949.220
509,63908.236000,256.000,154.814,-364.726,75.148,-89.208,-470.352,1568.500,-264.240,-1485.220
510,63908.251000,292.222,139.636,-328.154,105.439,-92.390,-466.946,1754.500,-497.240,-1143.220
511,63908.272000,272.642,128.506,-312.340,120.048,-94.463,-462.280,1812.500,-677.240,-1010.220
512,63908.300000,237.400,113.328,-292.571,156.132,-100.607,-453.067,1958.500,-650.240,-724.220
513,63908.322000,253.063,95.115,-253.035,178.526,-101.786,-446.570,2133.500,-183.240,-325.220
514,63908.340000,275.579,65.771,-213.498,215.553,-104.068,-437.378,2200.500,-81.240,82.780
515,63908.377000,264.811,40.474,-193.730,231.999,-110.038,-423.880,2143.500,-378.240,389.780
516,63908.396000,218.799,29.344,-187.799,262.117,-115.165,-409.640,2096.500,-400.240,650.780
517,63908.405000,214.883,13.154,-159.135,292.359,-129.965,-397.360,2067.500,-86.240,951.780
518,63908.427000,217.820,-5.059,-129.483,307.772,-130.121,-383.850,1981.500,-21.240,1273.780
519,63908.444000,205.094,-13.154,-103.784,319.354,-148.627,-365.329,1902.500,-75.240,1421.780
520,63908.473000,171.809,-13.154,-91.923,330.042,-157.440,-356.647,1751.500,-187.240,1702.780
521,63908.493000,155.166,-18.213,-73.143,339.765,-184.634,-339.067,1593.500,-139.240,1967.780
522,63908.511000,144.398,-19.225,-43.490,337.793,-196.232,-332.128,1410.500,-131.240,2218.780
523,63908.528000,116.008,-15.178,-10.873,334.796,-223.310,-314.323,1154.500,-178.240,2415.780
524,63908.548000,71.954,-32.379,-6.919,319.207,-249.297,-304.172,833.500,-87.240,2609.780
525,63908.576000,44.543,-44.522,-25.699,311.530,-265.672,-304.017,542.500,137.760,2733.780
526,63908.596000,37.690,-41.486,-27.676,290.174,-289.664,-300.658,310.500,394.760,2761.780
527,63908.616000,37.690,-43.510,6.919,264.952,-300.067,-307.091,-27.500,606.760,2673.780
528,63908.645000,41.606,-40.474,26.687,236.847,-310.441,-316.426,-243.500,675.760,2598.780
529,63908.658000,32.795,-33.391,18.780,221.357,-315.129,-323.037,-729.500,646.760,2425.780
530,63908.672000,22.027,-22.261,-19.768,182.478,-322.501,-333.170,-1190.500,474.760,2203.780
531,63908.695000,25.943,5.059,-36.571,140.681,-324.039,-347.195,-1529.500,456.760,2042.780
532,63908.715000,23.985,36.427,-35.583,117.292,-322.852,-352.690,-1799.500,783.760,1970.780
533,63908.737000,23.985,64.759,-39.537,67.584,-307.869,-370.532,-2102.500,1313.760,1925.780
534,63908.758000,42.585,97.138,-81.050,33.403,-295.939,-379.786,-2391.500,1597.760,1914.780
535,63908.776000,73.912,136.601,-141.344,-17.476,-271.279,-391.713,-2524.500,1615.760,1858.780
536,63908.801000,79.786,169.992,-184.834,-38.971,-259.466,-399.222,-2531.500,1616.760,1802.780
537,63908.818000,105.239,169.992,-190.764,-95.888,-227.986,-405.143,-2573.500,1770.760,1781.780
538,63908.835000,149.293,195.289,-230.301,-125.402,-212.242,-403.655,-2757.500,1575.760,1678.780
539,63908.856000,136.566,228.680,-298.502,-175.683,-187.612,-393.934,-2737.500,1179.760,1652.780
540,63908.873000,147.335,241.834,-308.386,-219.211,-158.210,-381.385,-2636.500,1250.760,1776.780
541,63908.911000,203.136,257.012,-346.934,-241.945,-146.403,-374.105,-2602.500,832.760,1808.780
542,63908.911000,209.989,269.154,-398.332,-276.784,-128.703,-348.898,-2391.500,90.760,1902.780
543,63908.946000,158.103,271.178,-430.950,-292.668,-118.894,-340.753,-2007.500,-57.240,2092.780
544,63908.960000,132.650,280.285,-450.718,-318.668,-95.465,-320.631,-1550.500,79.760,2270.780
545,63908.977000,132.650,264.095,-476.417,-330.621,-83.755,-314.527,-1320.500,70.760,2299.780
546,63908.996000,112.092,251.953,-480.371,-344.749,-63.329,-300.518,-869.500,-158.240,2293.780
547,63909.16000,73.912,246.893,-480.371,-353.749,-49.709,-296.437,-350.500,-499.240,2256.780
548,63909.42000,44.543,242.846,-480.371,-354.798,-41.961,-296.428,198.500,-702.240,2159.780
549,63909.60000,24.964,243.858,-480.371,-348.914,-26.527,-305.410,727.500,-711.240,2057.780
550,63909.88000,0.489,232.727,-477.405,-345.858,-24.611,-313.342,1231.500,-652.240,1893.780
551,63909.106000,-10.279,226.656,-431.938,-327.131,-13.158,-327.469,1626.500,-595.240,1769.780
552,63909.131000,2.447,216.538,-393.390,-319.167,-5.478,-339.432,1897.500,-801.240,1667.780
553,63909.149000,8.321,204.395,-355.830,-291.379,-8.609,-360.594,2117.500,-1002.240,1494.780
554,63909.175000,-8.321,188.206,-318.270,-279.384,-17.412,-370.640,2226.500,-1429.240,1360.780
555,63909.190000,-34.753,168.980,-275.768,-252.461,-27.303,-394.732,2380.500,-1578.240,1021.780
556,63909.210000,-53.354,151.779,-243.151,-220.738,-42.083,-411.027,2479.500,-1421.240,624.780
557,63909.236000,-83.702,96.126,-170.996,-205.887,-48.014,-418.174,2492.500,-1045.240,183.780
558,63909.245000,-67.059,73.866,-142.332,-172.174,-58.939,-438.447,2383.500,-582.240,-268.220
559,63909.262000,-42.585,70.830,-120.587,-149.538,-63.976,-443.764,2203.500,-334.240,-701.220
560,63909.300000,-32.795,71.842,-90.934,-118.995,-70.047,-453.157,2021.500,-362.240,-1093.220
561,63909.318000,-37.690,62.735,-65.236,-99.249,-81.830,-457.431,1802.500,-456.240,-1426.220
562,63909.337000,-31.816,50.593,-49.421,-67.771,-90.816,-462.899,1671.500,-444.240,-1547.220
563,63909.350000,-22.027,34.403,-51.398,-37.332,-98.830,-465.397,1387.500,-443.240,-1767.220
564,63909.372000,-6.363,22.261,-40.525,-33.366,-100.798,-467.434,1111.500,-521.240,-1986.220
565,63909.389000,1.468,27.320,-24.710,-6.901,-109.747,-465.923,808.500,-577.240,-2223.220
566,63909.421000,5.384,32.379,-3.954,4.807,-111.791,-463.174,488.500,-499.240,-2455.220
567,63909.443000,22.027,31.368,12.849,22.446,-112.918,-464.470,117.500,-234.240,-2644.220
568,63909.455000,47.480,31.368,7.907,25.433,-112.942,-467.476,-310.500,-17.240,-2810.220
569,63909.477000,70.975,46.545,-12.849,23.458,-109.053,-468.430,-693.500,-92.240,-3033.220
570,63909.497000,89.576,62.735,-33.606,22.523,-110.010,-470.381,-1019.500,-204.240,-3221.220
571,63909.520000,84.681,69.818,-66.224,19.543,-105.146,-470.334,-1139.500,-190.240,-3296.220
572,63909.535000,85.660,92.079,-95.876,14.553,-94.460,-470.258,-1311.500,125.760,-3457.220
573,63909.548000,124.818,112.316,-133.436,9.667,-87.640,-474.118,-1403.500,584.760,-3572.220
574,63909.576000,166.914,140.648,-196.695,-3.204,-74.950,-471.936,-1468.500,786.760,-3670.220
575,63909.599000,181.598,155.826,-250.069,-16.983,-64.183,-472.689,-1424.500,738.760,-3678.220
576,63909.619000,196.283,168.980,-283.676,-28.762,-54.399,-475.445,-1358.500,685.760,-3669.220
577,63909.638000,210.967,187.194,-335.073,-30.780,-51.481,-473.444,-1217.500,636.760,-3646.220
578,63909.661000,216.841,208.443,-375.598,-41.607,-40.740,-475.234,-910.500,715.760,-3519.220
579,63909.678000,251.105,209.455,-408.216,-40.769,-31.078,-472.307,-537.500,799.760,-3330.220
580,63909.701000,275.579,214.514,-420.077,-50.580,-30.022,-471.150,-344.500,812.760,-3212.220
581,63909.733000,277.537,203.383,-415.135,-38.883,-25.292,-471.363,56.500,538.760,-2874.220
582,63909.753000,285.369,194.277,-416.124,-34.891,-24.355,-476.357,392.500,248.760,-2446.220
583,63909.771000,264.811,187.194,-412.170,-17.235,-25.481,-478.637,712.500,-61.240,-2090.220
584,63909.788000,269.706,172.016,-411.181,-7.458,-28.474,-476.837,976.500,-218.240,-1911.220
585,63909.803000,302.011,174.040,-406.239,16.096,-32.555,-479.218,1199.500,-330.240,-1912.220
586,63909.825000,298.096,182.134,-376.587,49.400,-34.792,-480.789,1472.500,-333.240,-1797.220
587,63909.843000,293.201,157.850,-348.911,63.047,-34.919,-478.077,1765.500,-110.240,-1295.220
588,63909.863000,313.759,131.542,-321.236,95.293,-34.247,-476.679,1901.500,-35.240,-960.220
589,63909.890000,321.591,116.364,-296.525,115.843,-38.306,-475.069,2080.500,-272.240,-442.220
590,63909.903000,286.348,101.186,-279.722,153.875,-43.499,-465.892,2188.500,-547.240,-148.220
591,63909.926000,265.790,94.103,-251.058,170.441,-45.590,-461.260,2288.500,-319.240,53.780
592,63909.943000,266.769,83.984,-218.440,210.335,-49.839,-447.194,2380.500,-38.240,356.780
593,63909.966000,253.063,70.830,-177.915,232.719,-46.179,-442.672,2429.500,258.760,788.780
594,63909.983000,259.916,51.605,-131.459,268.620,-47.493,-425.586,2319.500,525.760,1164.780
595,63910.6000,280.474,26.308,-100.819,299.666,-54.569,-407.422,2065.500,424.760,1444.780
596,63910.26000,269.706,12.142,-97.853,314.293,-64.384,-399.794,1909.500,243.760,1751.780
597,63910.48000,228.589,-3.036,-88.958,332.777,-82.949,-384.348,1698.500,-127.240,1922.780
598,63910.70000,194.325,-18.213,-52.386,336.660,-98.473,-374.554,1572.500,-274.240,2297.780
599,63910.90000,190.409,-23.273,-21.745,340.583,-131.417,-357.849,1328.500,-429.240,2547.780
600,63910.112000,173.767,-21.249,-14.826,348.495,-157.617,-349.098,1045.500,-762.240,2702.780
601,63910.134000,133.629,-19.225,-11.861,339.750,-196.249,-332.162,814.500,-878.240,2837.780
602,63910.152000,90.554,-27.320,1.977,317.436,-233.782,-322.864,572.500,-628.240,2958.780
603,63910.175000,63.143,-46.545,22.734,312.671,-256.960,-317.830,217.500,-246.240,2954.780
604,63910.193000,57.270,-59.700,24.710,277.702,-280.823,-319.152,-234.500,-143.240,2860.780
605,63910.207000,62.164,-49.581,5.931,259.262,-295.164,-319.794,-436.500,-211.240,2791.780
606,63910.225000,61.185,-35.415,0.988,212.524,-316.018,-320.911,-766.500,-387.240,2678.780
607,63910.252000,38.669,-19.225,-5.931,198.942,-330.406,-319.670,-1036.500,-470.240,2569.780
608,63910.275000,14.195,1.012,-20.757,154.099,-344.505,-320.829,-1237.500,-202.240,2496.780
609,63910.297000,12.237,25.296,-35.583,129.794,-350.082,-326.299,-1418.500,436.760,2479.780
610,63910.323000,19.090,59.700,-49.421,76.164,-337.967,-342.100,-1595.500,1079.760,2471.780
611,63910.338000,11.258,79.937,-81.050,23.469,-321.024,-357.923,-1725.500,1572.760,2437.780
612,63910.361000,21.048,90.055,-101.807,2.033,-304.369,-371.346,-1930.500,2138.760,2327.780
613,63910.386000,65.101,108.269,-85.992,-53.715,-270.951,-389.103,-2104.500,2316.760,2222.780
614,63910.406000,116.008,140.648,-99.830,-76.267,-256.231,-393.644,-2542.500,2086.760,1972.780
615,63910.426000,121.881,175.051,-179.892,-128.385,-227.704,-392.755,-2835.500,1429.760,1739.780
616,63910.457000,105.239,198.324,-233.266,-161.865,-213.863,-387.256,-2970.500,1222.760,1624.780
617,63910.460000,108.176,221.597,-262.919,-213.195,-185.357,-375.553,-2964.500,1335.760,1529.780
618,63910.480000,116.987,251.953,-285.652,-253.866,-153.082,-360.104,-2849.500,1476.760,1444.780
619,63910.506000,126.776,258.024,-344.958,-269.803,-137.469,-351.965,-2706.500,1518.760,1415.780
620,63910.525000,175.725,267.130,-437.869,-302.715,-109.141,-330.742,-2420.500,1222.760,1428.780
621,63910.543000,200.199,288.379,-480.371,-323.534,-96.387,-321.529,-1954.500,834.760,1565.780
622,63910.562000,141.461,300.522,-480.371,-346.583,-67.176,-305.404,-1676.500,813.760,1668.780
623,63910.585000,164.956,262.071,-480.371,-345.746,-55.578,-303.463,-1053.500,1118.760,1954.780
624,63910.606000,194.325,228.680,-480.371,-359.930,-19.668,-294.394,-533.500,1011.760,2184.780
625,63910.625000,160.061,229.692,-480.371,-359.076,-8.069,-293.438,-187.500,129.760,2271.780
626,63910.642000,88.597,240.822,-480.371,-358.248,8.368,-293.472,220.500,-729.240,2213.780
627,63910.665000,41.606,234.751,-452.695,-350.319,17.982,-304.453,736.500,-1009.240,2114.780
628,63910.692000,22.027,211.478,-420.077,-351.256,24.768,-310.351,1234.500,-895.240,2023.780
629,63910.707000,29.859,188.206,-391.413,-329.525,36.199,-328.469,1587.500,-818.240,1857.780
630,63910.730000,25.943,178.087,-359.784,-318.562,35.144,-339.491,1721.500,-905.240,1733.780
631,63910.747000,13.216,176.063,-321.236,-294.723,33.983,-359.600,1956.500,-1130.240,1453.780
632,63910.767000,-10.279,176.063,-276.757,-284.678,31.973,-373.558,2180.500,-1184.240,1188.780
633,63910.790000,-15.174,163.921,-238.208,-253.902,24.947,-395.752,2372.500,-989.240,979.780
634,63910.812000,-7.342,141.660,-204.602,-212.371,16.854,-417.151,2493.500,-806.240,768.780
635,63910.830000,-4.405,121.423,-174.950,-197.520,14.795,-426.271,2495.500,-822.240,526.780
636,63910.852000,-16.153,96.126,-142.332,-166.777,1.959,-443.536,2391.500,-1026.240,167.780
637,63910.875000,-32.795,75.889,-116.633,-144.070,-8.881,-449.832,2229.500,-1182.240,-262.220
638,63910.899000,-38.669,62.735,-88.958,-108.511,-28.541,-459.298,2120.500,-1188.240,-719.220
639,63910.914000,-40.627,55.652,-73.143,-103.530,-34.388,-461.348,1859.500,-1121.240,-926.220
640,63910.936000,-33.774,48.569,-58.317,-70.949,-56.927,-466.820,1586.500,-1044.240,-1313.220
641,63910.953000,-24.964,34.403,-38.548,-55.152,-66.740,-470.042,1302.500,-1058.240,-1657.220
642,63910.971000,-8.321,23.273,-20.757,-27.559,-88.272,-470.505,926.500,-1180.240,-1982.220
643,63911.3000,9.300,14.166,-7.907,-15.751,-108.701,-463.799,491.500,-1323.240,-2247.220
644,63911.22000,20.069,8.095,-2.965,-14.692,-117.417,-463.807,-4.500,-1418.240,-2452.220
645,63911.50000,29.859,8.095,-4.942,-7.680,-144.571,-458.977,-510.500,-1469.240,-2613.220
646,63911.63000,52.375,16.190,-18.780,0.114,-148.516,-455.173,-1014.500,-1471.240,-2766.220
647,63911.86000,52.375,34.403,-28.664,-7.665,-172.640,-445.162,-1248.500,-1475.240,-2850.220
648,63911.106000,57.270,51.605,-56.340,-5.670,-182.334,-442.233,-1633.500,-1293.240,-3013.220
649,63911.121000,63.143,84.996,-95.876,-13.505,-190.975,-437.162,-1826.500,-752.240,-3168.220
650,63911.143000,69.996,106.245,-118.610,-20.330,-186.072,-440.985,-1862.500,-12.240,-3255.220
651,63911.163000,95.449,112.316,-142.332,-25.300,-185.064,-436.960,-1932.500,720.760,-3249.220
652,63911.181000,145.377,144.696,-176.927,-40.960,-169.435,-444.577,-1989.500,1008.760,-3213.220
653,63911.206000,172.788,156.838,-221.405,-43.940,-164.571,-444.530,-1963.500,644.760,-3129.220
654,63911.220000,158.103,153.802,-274.780,-60.601,-159.582,-445.225,-1956.500,375.760,-3091.220
655,63911.237000,120.902,171.004,-333.097,-67.459,-162.424,-443.132,-1935.500,393.760,-3091.220
656,63911.265000,122.860,195.289,-386.471,-76.406,-154.608,-439.045,-1791.500,627.760,-3086.220
657,63911.286000,130.692,215.526,-410.193,-78.320,-151.685,-442.952,-1514.500,778.760,-3064.220
658,63911.307000,147.335,215.526,-427.985,-76.425,-144.931,-442.994,-1161.500,784.760,-2978.220
659,63911.327000,161.040,219.573,-464.556,-80.436,-140.061,-439.975,-813.500,746.760,-2909.220
660,63911.350000,166.914,224.632,-478.394,-74.478,-142.045,-444.016,-357.500,738.760,-2746.220
661,63911.370000,190.409,224.632,-461.591,-57.845,-134.453,-448.257,107.500,680.760,-2426.220
662,63911.387000,229.568,217.549,-444.788,-53.889,-131.583,-452.268,481.500,467.760,-2125.220
663,63911.422000,241.315,196.300,-430.950,-29.393,-129.867,-455.657,840.500,334.760,-1824.220
664,63911.426000,236.421,177.075,-426.008,-16.639,-126.110,-459.825,1032.500,179.760,-1655.220
665,63911.450000,232.505,159.874,-400.309,11.755,-124.431,-462.298,1412.500,172.760,-1252.220
666,63911.487000,241.315,135.589,-368.680,43.984,-123.760,-459.916,1699.500,-43.240,-901.220
667,63911.516000,243.273,119.399,-339.027,67.539,-131.713,-460.323,1838.500,-494.240,-710.220
668,63911.516000,219.778,111.304,-316.293,101.711,-142.675,-451.070,1903.500,-732.240,-617.220
669,63911.534000,189.430,101.186,-301.467,116.354,-144.746,-448.374,2010.500,-564.240,-452.220
670,63911.543000,182.577,88.032,-275.768,155.374,-148.981,-440.199,2127.500,-275.240,-178.220
671,63911.570000,200.199,66.783,-244.139,176.849,-151.115,-436.639,2166.500,-266.240,107.780
672,63911.592000,223.694,51.605,-210.533,207.964,-158.186,-422.414,2151.500,-359.240,218.780
673,63911.615000,206.073,41.486,-184.834,221.587,-165.091,-414.771,2096.500,-529.240,439.780
674,63911.637000,172.788,17.202,-178.903,250.745,-174.080,-399.525,2070.500,-326.240,691.780
675,63911.652000,166.914,3.036,-167.042,271.062,-184.927,-381.168,2030.500,6.760,979.780
676,63911.675000,172.788,-16.190,-149.251,281.696,-186.000,-373.479,1941.500,62.760,1245.780
677,63911.695000,181.598,-21.249,-120.587,294.292,-206.448,-355.958,1775.500,-147.240,1494.780
678,63911.718000,169.851,-28.332,-96.865,302.044,-215.235,-347.224,1579.500,-371.240,1732.780
679,63911.741000,146.356,-23.273,-76.108,306.840,-244.322,-326.602,1387.500,-458.240,1974.780
680,63911.761000,124.818,-25.296,-51.398,301.872,-252.993,-317.643,1275.500,-435.240,2077.780
681,63911.781000,120.902,-30.356,-34.595,296.034,-281.007,-304.710,978.500,-413.240,2247.780
682,63911.803000,109.155,-34.403,-28.664,287.239,-291.573,-299.619,642.500,-481.240,2389.780
683,63911.832000,84.681,-32.379,-17.792,259.018,-323.247,-291.207,322.500,-551.240,2524.780
684,63911.846000,51.396,-31.368,-6.919,230.760,-347.180,-284.773,24.500,-496.240,2638.780
685,63911.866000,19.090,-34.403,-6.919,206.423,-360.501,-284.326,-267.500,-249.240,2668.780
686,63911.883000,17.132,-27.320,-23.722,169.356,-372.740,-283.656,-506.500,16.760,2634.780
687,63911.906000,23.006,-11.130,-29.653,143.041,-374.429,-288.111,-704.500,186.760,2574.780
688,63911.931000,16.153,7.083,-41.514,108.977,-380.883,-294.392,-898.500,297.760,2481.780
689,63911.946000,-1.468,34.403,-58.317,82.626,-378.703,-298.850,-975.500,718.760,2444.780
690,63911.963000,-17.132,52.617,-75.120,38.859,-365.705,-319.749,-1138.500,1403.760,2409.780
691,63911.983000,7.342,59.700,-76.108,-5.986,-336.249,-343.602,-1411.500,2036.760,2343.780
692,63912.3000,75.870,122.435,-88.958,-30.347,-324.406,-354.998,-1832.500,2308.760,2229.780
693,63912.21000,93.491,157.850,-151.228,-91.067,-286.109,-370.704,-2284.500,2122.760,2120.780
694,63912.43000,105.239,185.170,-188.788,-110.753,-269.483,-372.344,-2573.500,1675.760,1995.780
695,63912.76000,120.902,225.644,-215.475,-168.795,-238.971,-369.384,-2807.500,1362.760,1954.780
696,63912.111000,112.092,267.130,-254.023,-194.446,-229.072,-362.051,-2829.500,1014.760,1907.780
697,63912.111000,113.071,288.379,-312.340,-240.926,-201.581,-347.478,-2789.500,967.760,1894.780
698,63912.125000,107.197,291.415,-396.355,-261.737,-187.858,-339.250,-2630.500,940.760,1893.780
699,63912.147000,112.092,276.237,-445.776,-299.551,-156.582,-318.929,-2330.500,978.760,1898.780
700,63912.165000,127.755,275.225,-451.707,-323.632,-121.558,-302.793,-1967.500,1141.760,1950.780
701,63912.196000,137.545,286.356,-478.394,-339.542,-106.911,-295.637,-1607.500,1172.760,2002.780
702,63912.200000,171.809,280.285,-480.371,-358.626,-73.861,-284.509,-1204.500,967.760,2089.780
703,63912.232000,176.704,271.178,-480.371,-368.683,-59.269,-276.473,-775.500,139.760,2203.780
704,63912.252000,129.713,282.308,-480.371,-378.715,-41.772,-271.393,-309.500,-736.240,2288.780
705,63912.269000,56.291,280.285,-475.429,-374.846,-35.034,-272.454,-40.500,-973.240,2306.780
706,63912.295000,11.258,257.012,-462.579,-376.876,-19.534,-276.374,524.500,-933.240,2261.780
707,63912.312000,5.384,226.656,-433.915,-368.040,1.681,-289.353,1012.500,-570.240,2145.780
708,63912.337000,16.153,209.455,-384.494,-357.191,5.460,-296.441,1352.500,-538.240,1987.780
709,63912.353000,16.153,188.206,-347.923,-340.316,11.130,-313.482,1558.500,-1012.240,1802.780
710,63912.375000,0.489,162.909,-334.085,-338.169,11.122,-324.349,1654.500,-1703.240,1491.780
711,63912.392000,-31.816,152.791,-312.340,-319.106,-8.378,-341.399,1749.500,-2195.240,1022.780
712,63912.417000,-72.933,153.802,-278.734,-305.127,-20.102,-351.477,1893.500,-2171.240,547.780
713,63912.435000,-101.323,141.660,-240.185,-283.119,-40.596,-368.578,2041.500,-1607.240,102.780
714,63912.452000,-85.660,129.518,-216.463,-263.278,-51.406,-378.761,2080.500,-1233.240,-58.220
715,63912.475000,-56.291,131.542,-183.846,-242.312,-63.184,-396.838,2110.500,-652.240,-367.220
716,63912.502000,-32.795,121.423,-142.332,-212.581,-77.948,-411.130,2090.500,-505.240,-616.220
717,63912.505000,-23.006,95.115,-119.598,-194.829,-81.972,-417.346,1955.500,-713.240,-872.220
718,63912.532000,-20.069,81.960,-100.819,-160.169,-108.394,-427.772,1744.500,-1015.240,-1165.220
719,63912.571000,-32.795,76.901,-80.062,-147.298,-119.148,-430.941,1531.500,-1160.240,-1419.220
720,63912.585000,-54.333,63.747,-58.317,-120.579,-142.601,-436.309,1318.500,-1016.240,-1635.220
721,63912.605000,-50.417,44.522,-46.456,-108.819,-146.579,-435.527,1056.500,-717.240,-1835.220
722,63912.617000,-24.964,35.415,-38.548,-85.175,-164.205,-435.925,903.500,-598.240,-1944.220
723,63912.651000,-5.384,35.415,-29.653,-61.515,-177.960,-439.281,586.500,-505.240,-2169.220
724,63912.670000,1.468,27.320,-6.919,-53.713,-177.064,-438.436,235.500,-445.240,-2376.220
725,63912.685000,20.069,12.142,6.919,-39.034,-184.941,-434.748,-214.500,-374.240,-2568.220
726,63912.705000,46.501,5.059,-1.977,-38.980,-190.745,-434.742,-726.500,-492.240,-2777.220
727,63912.714000,56.291,22.261,-18.780,-32.058,-206.290,-430.909,-1222.500,-655.240,-2972.220
728,63912.741000,48.459,54.640,-40.525,-34.075,-207.244,-426.934,-1584.500,-514.240,-3089.220
729,63912.759000,49.438,70.830,-62.270,-40.933,-208.150,-425.827,-1812.500,85.760,-3141.220
730,63912.780000,67.059,89.043,-99.830,-38.977,-204.296,-427.836,-1993.500,406.760,-3193.220
731,63912.802000,93.491,121.423,-138.378,-45.863,-194.557,-430.678,-2040.500,764.760,-3208.220
732,63912.824000,114.050,158.862,-164.077,-57.720,-183.809,-429.497,-2061.500,868.760,-3178.220
733,63912.841000,100.344,187.194,-202.625,-65.585,-175.997,-431.336,-2054.500,957.760,-3165.220
734,63912.868000,100.344,207.431,-255.012,-81.279,-162.306,-435.996,-2017.500,1339.760,-3161.220
735,63912.886000,129.713,232.727,-293.560,-81.307,-153.597,-438.959,-1876.500,1470.760,-3160.220
736,63912.914000,159.082,233.739,-307.398,-93.173,-141.882,-437.779,-1759.500,1116.760,-3124.220
737,63912.931000,162.998,233.739,-352.865,-101.962,-143.737,-437.621,-1700.500,630.760,-3171.220
738,63912.954000,124.818,249.929,-410.193,-109.815,-144.635,-435.512,-1408.500,576.760,-3107.220
739,63912.968000,125.797,253.976,-445.776,-110.810,-150.434,-431.550,-1218.500,601.760,-3042.220
740,63913.1000,142.440,249.929,-460.602,-107.926,-150.464,-428.648,-854.500,402.760,-2931.220
741,63913.16000,162.019,262.071,-462.579,-100.001,-159.241,-429.762,-564.500,29.760,-2901.220
742,63913.41000,160.061,268.142,-480.371,-93.116,-163.173,-429.879,-299.500,-300.240,-2905.220
743,63913.56000,152.229,268.142,-480.371,-69.560,-174.997,-428.313,152.500,-226.240,-2763.220
744,63913.78000,151.250,262.071,-476.417,-64.589,-176.005,-432.338,727.500,28.760,-2315.220
745,63913.96000,169.851,241.834,-427.985,-24.382,-184.108,-434.024,1239.500,120.760,-1762.220
746,63913.113000,207.052,229.692,-390.425,-10.589,-183.259,-440.176,1556.500,-206.240,-1412.220
747,63913.141000,209.989,201.360,-376.587,23.660,-187.442,-438.808,1746.500,-414.240,-1266.220
748,63913.156000,168.872,184.158,-364.726,62.713,-189.739,-433.590,1854.500,-469.240,-1185.220
749,63913.190000,143.419,163.921,-345.946,84.335,-190.897,-438.893,2141.500,40.760,-894.220
750,63913.209000,168.872,144.696,-295.537,130.088,-180.682,-431.839,2345.500,439.760,-518.220
751,63913.227000,209.989,124.459,-257.977,151.536,-176.042,-430.255,2388.500,203.760,-246.220
752,63913.236000,220.757,103.209,-259.954,188.521,-181.231,-417.121,2389.500,-235.240,-9.220
753,63913.263000,192.367,95.115,-252.046,207.001,-184.310,-409.568,2447.500,-146.240,298.780
754,63913.283000,174.746,88.032,-222.394,242.989,-187.555,-396.419,2506.500,125.760,676.780
755,63913.298000,190.409,71.842,-184.834,272.060,-194.613,-377.236,2456.500,205.760,1019.780
756,63913.321000,192.367,60.711,-151.228,276.823,-195.633,-369.444,2397.500,174.760,1177.780
757,63913.339000,167.893,39.462,-135.413,297.124,-210.352,-348.127,2274.500,177.760,1488.780
758,63913.361000,152.229,23.273,-113.668,303.932,-217.192,-342.333,2131.500,247.760,1807.780
759,63913.381000,144.398,5.059,-38.548,316.519,-234.738,-325.800,1937.500,126.760,2112.780
760,63913.406000,124.818,0.000,-1.977,313.553,-252.135,-314.898,1686.500,-89.240,2396.780
761,63913.429000,101.323,-9.107,6.919,306.659,-281.113,-297.022,1315.500,-210.240,2634.780
762,63913.447000,71.954,-18.213,-3.954,294.937,-292.620,-291.879,940.500,-315.240,2799.780
763,63913.465000,38.669,-19.225,0.988,274.484,-327.272,-278.678,607.500,-265.240,2905.780
764,63913.487000,28.880,-21.249,19.768,239.377,-349.207,-273.109,442.500,-171.240,2919.780
765,63913.510000,34.753,-12.142,24.710,221.862,-359.688,-272.787,54.500,-3.240,2888.780
766,63913.519000,17.132,7.083,18.780,181.912,-373.832,-274.033,-364.500,-67.240,2737.780
767,63913.546000,-19.090,28.332,-5.931,156.620,-382.304,-277.513,-735.500,-60.240,2569.780
768,63913.563000,-35.732,49.581,-28.664,113.766,-384.805,-286.596,-987.500,400.760,2475.780
769,63913.586000,-20.069,61.723,-35.583,88.403,-381.665,-292.058,-1203.500,1101.760,2428.780
770,63913.613000,13.216,80.949,-37.560,44.634,-362.860,-315.917,-1508.500,1646.760,2398.780
771,63913.646000,35.732,113.328,-59.305,-1.204,-343.075,-333.834,-1887.500,1793.760,2341.780
772,63913.660000,51.396,149.755,-97.853,-39.308,-330.142,-343.019,-2192.500,1706.760,2276.780
773,63913.674000,78.807,188.206,-147.274,-87.278,-304.542,-354.014,-2343.500,1649.760,2261.780
774,63913.691000,98.386,237.787,-204.602,-124.621,-286.791,-353.374,-2635.500,1473.760,2185.780
775,63913.709000,93.491,278.261,-256.000,-167.931,-262.216,-350.668,-2823.500,1089.760,2028.780
776,63913.741000,84.681,284.332,-288.618,-198.457,-252.272,-344.233,-2764.500,881.760,1988.780
777,63913.757000,103.281,286.356,-329.143,-244.947,-221.877,-330.648,-2648.500,1055.760,2036.780
778,63913.775000,111.113,297.486,-382.517,-261.906,-207.225,-319.536,-2484.500,1185.760,2125.780
779,63913.795000,124.818,297.486,-431.938,-310.379,-173.910,-305.919,-2213.500,1161.760,2154.780
780,63913.809000,181.598,289.391,-470.486,-338.416,-141.756,-285.772,-1967.500,796.760,2164.780
781,63913.825000,199.220,298.498,-480.371,-351.486,-128.110,-272.759,-1830.500,390.760,2078.780
782,63913.842000,80.765,336.949,-480.371,-370.533,-106.673,-257.680,-1374.500,-221.240,2056.780
783,63913.870000,10.279,323.794,-480.371,-374.598,-92.127,-256.641,-650.500,342.760,2270.780
784,63913.884000,72.933,291.415,-480.371,-380.807,-53.376,-257.561,-39.500,1217.760,2575.780
785,63913.911000,152.229,248.917,-480.371,-383.869,-33.999,-260.482,287.500,541.760,2669.780
786,63913.933000,126.776,244.870,-467.521,-378.063,-17.601,-265.527,558.500,-1070.240,2558.780
787,63913.956000,32.795,265.107,-453.683,-378.965,-8.877,-274.381,989.500,-1908.240,2410.780
788,63913.973000,-37.690,265.107,-431.938,-367.130,-2.203,-283.458,1541.500,-1631.240,2302.780
789,63913.996000,-38.669,253.976,-389.436,-357.046,10.308,-307.278,1993.500,-1031.240,2269.780
790,63914.27000,8.321,227.668,-345.946,-343.157,14.065,-320.326,2152.500,-947.240,2210.780
791,63914.46000,22.027,205.407,-293.560,-314.323,14.801,-347.417,2336.500,-1231.240,1960.780
792,63914.65000,1.468,187.194,-253.035,-303.351,12.779,-358.438,2442.500,-1694.240,1572.780
793,63914.84000,-23.006,158.862,-228.324,-267.551,-1.060,-384.651,2494.500,-1881.240,1133.780
794,63914.113000,-47.480,130.530,-195.707,-253.520,-16.652,-395.710,2497.500,-1802.240,686.780
795,63914.123000,-70.975,97.138,-159.135,-221.753,-36.269,-412.000,2374.500,-1545.240,228.780
796,63914.146000,-74.891,67.794,-146.286,-189.043,-55.897,-426.339,2147.500,-1375.240,-294.220
797,63914.161000,-64.122,56.664,-124.541,-178.033,-71.468,-432.422,1890.500,-1359.240,-851.220
798,63914.183000,-60.207,51.605,-103.784,-151.304,-97.824,-436.802,1751.500,-1384.240,-1106.220
799,63914.201000,-65.101,51.605,-80.062,-128.641,-107.699,-441.129,1458.500,-1346.240,-1562.220
800,63914.224000,-57.270,48.569,-64.247,-108.874,-133.031,-439.480,1160.500,-1176.240,-1876.220
801,63914.246000,-51.396,44.522,-52.386,-88.132,-148.693,-442.782,872.500,-1020.240,-2092.220
802,63914.268000,-41.606,36.427,-46.456,-72.359,-167.219,-440.086,582.500,-950.240,-2257.220
803,63914.295000,-30.837,23.273,-39.537,-51.719,-184.823,-436.493,278.500,-1007.240,-2436.220
804,63914.302000,-22.027,17.202,-36.571,-46.790,-194.545,-433.615,-44.500,-1016.240,-2643.220
805,63914.325000,-25.943,24.285,-24.710,-28.197,-202.457,-429.997,-365.500,-751.240,-2813.220
806,63914.345000,-27.901,34.403,-21.745,-17.406,-207.393,-429.198,-687.500,-505.240,-2942.220
807,63914.365000,-5.384,45.534,-11.861,-6.635,-202.651,-432.347,-845.500,72.760,-2995.220
808,63914.387000,32.795,60.711,-12.849,-3.674,-199.772,-435.357,-1158.500,417.760,-3093.220
809,63914.412000,73.912,78.925,-19.768,-10.509,-191.966,-440.167,-1457.500,399.760,-3250.220
810,63914.429000,108.176,97.138,-22.734,-9.557,-187.137,-441.174,-1716.500,288.760,-3348.220
811,63914.450000,111.113,100.174,-48.432,-20.321,-185.103,-441.970,-1967.500,344.760,-3340.220
812,63914.472000,105.239,110.292,-94.888,-35.115,-170.458,-442.710,-2168.500,680.760,-3236.220
813,63914.501000,149.293,146.719,-140.355,-39.047,-166.551,-443.630,-2231.500,692.760,-3186.220
814,63914.529000,186.493,193.265,-201.637,-52.791,-159.654,-444.379,-2044.500,613.760,-3112.220
815,63914.542000,108.176,211.478,-238.208,-61.634,-149.897,-447.187,-1906.500,913.760,-3011.220
816,63914.571000,115.029,211.478,-266.873,-72.550,-129.482,-448.987,-1697.500,1639.760,-2807.220
817,63914.577000,158.103,203.383,-300.479,-77.539,-122.667,-446.938,-1669.500,1430.760,-2831.220
818,63914.595000,181.598,213.502,-328.154,-94.226,-120.583,-444.676,-1741.500,728.760,-3122.220
819,63914.617000,156.145,246.893,-364.726,-105.068,-119.522,-440.548,-1709.500,407.760,-3295.220
820,63914.640000,110.134,265.107,-415.135,-110.912,-120.435,-441.428,-1406.500,763.760,-3232.220
821,63914.652000,120.902,273.202,-440.834,-117.876,-111.668,-439.346,-984.500,1071.760,-3091.220
822,63914.689000,201.178,281.296,-451.707,-112.958,-110.743,-441.403,-632.500,626.760,-3042.220
823,63914.697000,218.799,286.356,-480.371,-102.115,-117.612,-442.571,-122.500,247.760,-2809.220
824,63914.720000,203.136,263.083,-466.533,-93.326,-117.693,-441.742,166.500,316.760,-2569.220
825,63914.745000,253.063,266.119,-451.707,-75.556,-123.652,-447.956,687.500,306.760,-2125.220
826,63914.762000,225.652,246.893,-433.915,-64.688,-127.615,-452.082,1067.500,-33.240,-1874.220
827,63914.785000,200.199,232.727,-410.193,-32.337,-126.938,-456.593,1458.500,-19.240,-1616.220
828,63914.803000,234.463,204.395,-370.656,4.800,-118.567,-459.228,1903.500,435.760,-1172.220
829,63914.817000,280.474,180.111,-317.282,31.254,-118.805,-461.665,2209.500,443.760,-731.220
830,63914.830000,261.874,152.791,-293.560,74.273,-119.199,-460.457,2316.500,-180.240,-449.220
831,63914.857000,216.841,148.743,-268.849,85.955,-122.213,-455.738,2402.500,-377.240,-199.220
832,63914.871000,204.115,136.601,-239.197,131.918,-123.600,-454.580,2451.500,-232.240,-53.220
833,63914.893000,208.031,106.245,-210.533,155.263,-119.950,-449.091,2547.500,78.760,302.780
834,63914.936000,209.989,82.972,-178.903,192.238,-120.300,-437.931,2559.500,152.760,628.780
835,63914.974000,211.946,60.711,-157.158,232.097,-124.551,-421.896,2471.500,-3.240,898.780
836,63914.974000,189.430,51.605,-145.297,245.765,-136.292,-414.248,2317.500,-252.240,1090.780
837,63914.982000,154.187,43.510,-127.506,276.838,-152.076,-393.122,2211.500,-229.240,1297.780
838,63915.11000,146.356,27.320,-106.749,280.683,-154.052,-388.265,2110.500,76.760,1557.780
839,63915.34000,157.124,10.119,-80.062,299.114,-166.813,-372.825,1952.500,207.760,1810.780
840,63915.51000,157.124,-6.071,-65.236,309.802,-179.497,-362.170,1685.500,-63.240,2024.780
841,63915.73000,134.608,-3.036,-45.467,316.581,-205.697,-344.539,1551.500,-233.240,2110.780
842,63915.93000,101.323,0.000,-24.710,309.720,-228.865,-331.593,1320.500,-377.240,2318.780
843,63915.111000,76.849,-2.024,-6.919,300.018,-249.098,-325.491,1112.500,-204.240,2529.780
844,63915.134000,69.996,-18.213,-1.977,287.364,-271.240,-317.365,873.500,184.760,2744.780
845,63915.156000,70.975,-28.332,-12.849,278.663,-278.897,-319.171,557.500,461.760,2915.780
846,63915.179000,68.038,-26.308,-16.803,244.619,-296.965,-320.517,224.500,524.760,3005.780
847,63915.196000,61.185,-18.213,-5.931,231.045,-308.448,-321.248,-108.500,486.760,3012.780
848,63915.212000,49.438,-15.178,-10.873,193.164,-323.572,-328.435,-508.500,365.760,2917.780
849,63915.238000,44.543,-5.059,-23.722,174.660,-325.333,-332.044,-719.500,304.760,2830.780
850,63915.266000,43.564,16.190,-39.537,121.971,-333.556,-335.040,-1136.500,228.760,2631.780
851,63915.285000,27.901,45.534,-65.236,74.224,-334.076,-345.023,-1517.500,243.760,2444.780
852,63915.307000,4.405,51.605,-86.981,57.580,-332.958,-344.730,-1775.500,367.760,2299.780
853,63915.321000,0.489,72.854,-93.900,-0.032,-322.747,-355.536,-2023.500,869.760,2179.780
854,63915.341000,28.880,113.328,-102.795,-29.407,-312.802,-358.966,-2272.500,1423.760,2034.780
855,63915.350000,46.501,150.767,-134.425,-79.325,-284.280,-371.899,-2533.500,1595.760,1818.780
856,63915.377000,61.185,182.134,-164.077,-109.740,-269.490,-374.331,-2788.500,1642.760,1639.780
857,63915.397000,91.533,208.443,-206.579,-164.863,-239.006,-370.438,-3055.500,1486.760,1503.780
858,63915.417000,126.776,245.881,-256.988,-212.271,-211.502,-358.803,-3130.500,1335.760,1394.780
859,63915.442000,133.629,278.261,-320.247,-229.159,-198.782,-350.643,-3078.500,1159.760,1303.780
860,63915.457000,121.881,290.403,-358.795,-272.722,-169.382,-336.124,-2778.500,1399.760,1471.780
861,63915.471000,165.935,297.486,-403.274,-294.573,-150.815,-326.899,-2422.500,1576.760,1750.780
862,63915.490000,219.778,310.640,-434.903,-329.355,-122.464,-310.566,-2060.500,1011.760,2024.780
863,63915.515000,250.126,308.617,-469.498,-339.455,-110.778,-298.588,-1695.500,-77.240,2161.780
864,63915.537000,163.977,314.688,-480.371,-360.510,-91.262,-279.533,-1170.500,-781.240,2354.780
865,63915.576000,83.702,305.581,-480.371,-364.624,-84.462,-271.593,-518.500,-621.240,2558.780
866,63915.579000,54.333,290.403,-480.371,-372.762,-56.339,-268.528,-200.500,-451.240,2586.780
867,63915.595000,66.080,269.154,-480.371,-371.866,-39.898,-272.501,354.500,-537.240,2531.780
868,63915.626000,56.291,250.941,-480.371,-375.764,-32.118,-277.364,788.500,-1059.240,2268.780
869,63915.645000,7.342,253.976,-480.371,-362.873,-24.481,-291.383,1285.500,-1294.240,2046.780
870,63915.674000,-21.048,263.083,-439.846,-349.054,-20.727,-300.492,1813.500,-1053.240,1953.780
871,63915.694000,-14.195,258.024,-380.541,-328.171,-10.248,-325.485,2235.500,-788.240,1952.780
872,63915.700000,7.342,228.680,-335.073,-317.148,-10.332,-340.447,2505.500,-967.240,1860.780
873,63915.727000,9.300,197.312,-298.502,-291.257,-12.473,-365.514,2635.500,-1462.240,1591.780
874,63915.745000,-17.132,186.182,-269.838,-257.447,-30.168,-387.749,2730.500,-1866.240,1245.780
875,63915.770000,-55.312,182.134,-223.382,-237.555,-40.974,-400.886,2747.500,-1960.240,1050.780
876,63915.792000,-91.533,138.625,-171.985,-206.809,-63.489,-413.217,2667.500,-1963.240,560.780
877,63915.805000,-122.860,78.925,-135.413,-185.946,-79.144,-423.413,2348.500,-1746.240,-118.220
878,63915.819000,-124.818,60.711,-126.517,-155.260,-102.630,-431.804,1974.500,-1324.240,-820.220
879,63915.846000,-103.281,79.937,-114.656,-145.317,-112.389,-435.906,1701.500,-934.240,-1345.220
880,63915.864000,-70.975,91.067,-79.073,-112.780,-130.091,-441.383,1473.500,-810.240,-1659.220
881,63915.891000,-53.354,78.925,-49.421,-92.126,-139.951,-442.722,1200.500,-989.240,-1895.220
882,63915.908000,-56.291,63.747,-30.641,-63.579,-162.461,-441.232,894.500,-1053.240,-2093.220
883,63915.931000,-57.270,55.652,-26.687,-46.854,-180.030,-437.569,748.500,-1017.240,-2298.220
884,63915.954000,-59.228,48.569,-22.734,-36.072,-185.934,-435.784,465.500,-858.240,-2416.220
885,63915.972000,-56.291,52.617,-10.873,-10.542,-195.839,-436.224,181.500,-546.240,-2630.220
886,63915.994000,-39.648,59.700,7.907,-6.664,-192.005,-436.297,-127.500,-167.240,-2797.220
887,63916.16000,-18.111,58.688,25.699,10.939,-185.391,-439.570,-521.500,144.760,-2937.220
888,63916.33000,44.543,73.866,14.826,12.999,-185.403,-445.513,-976.500,221.760,-3107.220
889,63916.56000,69.017,103.209,1.977,17.856,-179.642,-446.590,-1346.500,64.760,-3260.220
890,63916.81000,90.554,124.459,3.954,14.867,-173.811,-446.544,-1649.500,-62.240,-3351.220
891,63916.104000,94.470,140.648,-27.676,12.901,-170.890,-447.497,-2041.500,65.760,-3501.220
892,63916.122000,99.365,184.158,-98.842,-10.601,-166.806,-448.070,-2238.500,166.760,-3657.220
893,63916.150000,113.071,229.692,-147.274,-11.617,-159.056,-450.031,-2449.500,532.760,-3886.220
894,63916.164000,132.650,257.012,-188.788,-32.229,-144.354,-453.621,-2432.500,998.760,-3837.220
895,63916.186000,163.977,271.178,-226.347,-45.030,-135.531,-453.405,-2277.500,1292.760,-3646.220
896,63916.206000,182.577,294.451,-268.849,-61.825,-116.031,-454.115,-2116.500,1388.760,-3640.220
897,63916.223000,173.767,302.545,-318.270,-74.609,-103.336,-456.857,-1926.500,1415.760,-3682.220
898,63916.241000,190.409,301.534,-382.517,-89.367,-90.625,-458.580,-1752.500,1600.760,-3681.220
899,63916.261000,211.946,310.640,-440.834,-100.333,-77.955,-453.478,-1491.500,1433.760,-3727.220
900,63916.277000,233.484,327.842,-470.486,-96.454,-76.057,-452.565,-1309.500,1217.760,-3722.220
901,63916.304000,221.736,350.103,-480.371,-103.339,-72.125,-452.447,-883.500,906.760,-3637.220
902,63916.327000,241.315,333.913,-480.371,-107.218,-74.023,-453.361,-336.500,819.760,-3282.220
903,63916.347000,270.685,320.759,-480.371,-91.563,-70.294,-455.611,252.500,798.760,-2907.220
904,63916.365000,288.306,294.451,-480.371,-74.868,-69.474,-459.845,791.500,534.760,-2566.220
905,63916.392000,279.495,272.190,-480.371,-54.303,-67.724,-462.180,1289.500,244.760,-2215.220
906,63916.417000,290.264,265.107,-450.718,-18.057,-63.212,-467.749,1770.500,144.760,-1789.220
907,63916.437000,326.486,265.107,-409.205,3.523,-67.276,-469.110,2137.500,6.760,-1382.220
908,63916.468000,309.843,247.905,-364.726,46.655,-68.631,-473.810,2441.500,11.760,-1002.220
909,63916.468000,312.780,226.656,-312.340,72.933,-61.136,-470.346,2570.500,162.760,-774.220
910,63916.495000,323.549,191.241,-254.023,129.563,-53.916,-468.403,2799.500,361.760,-215.220
911,63916.512000,331.380,159.874,-202.625,151.003,-54.116,-463.860,2867.500,132.760,331.780
912,63916.532000,298.096,139.636,-170.996,194.794,-58.402,-448.878,2801.500,-246.240,755.780
913,63916.550000,263.832,119.399,-154.193,237.669,-69.450,-433.872,2731.500,-277.240,1089.780
914,63916.571000,248.168,100.174,-136.402,248.321,-72.458,-426.182,2662.500,-44.240,1399.780
915,63916.586000,243.273,77.913,-103.784,287.178,-87.349,-403.225,2562.500,134.760,1762.780
916,63916.610000,227.610,58.688,-68.201,302.732,-93.304,-394.633,2388.500,66.760,2163.780
917,63916.632000,204.115,34.403,-49.421,324.118,-119.641,-373.323,2149.500,-40.240,2505.780
918,63916.655000,189.430,14.166,-36.571,337.805,-141.060,-361.726,2015.500,-308.240,2636.780
919,63916.677000,172.788,9.107,-17.792,340.724,-176.900,-342.047,1708.500,-606.240,2815.780
920,63916.697000,130.692,10.119,-5.931,337.802,-197.199,-332.127,1419.500,-766.240,2934.780
921,63916.731000,85.660,3.036,-3.954,325.126,-235.797,-314.137,1131.500,-603.240,3023.780
922,63916.749000,57.270,-1.012,-16.803,308.624,-276.290,-300.016,870.500,-293.240,3094.780
923,63916.775000,61.185,-10.119,-19.768,294.997,-289.712,-296.805,610.500,-90.240,3147.780
924,63916.777000,57.270,-6.071,-9.884,271.669,-321.431,-288.480,337.500,-172.240,3126.780
925,63916.799000,29.859,2.024,-1.977,243.391,-333.750,-286.981,16.500,-143.240,3008.780
926,63916.821000,0.489,6.071,0.988,204.480,-350.804,-290.210,-156.500,-13.240,2916.780
927,63916.837000,-7.342,17.202,-4.942,185.006,-351.588,-294.787,-536.500,514.760,2721.780
928,63916.857000,4.405,30.356,-20.757,144.247,-354.099,-311.783,-949.500,1070.760,2561.780
929,63916.879000,21.048,45.534,-28.664,96.628,-343.966,-334.579,-1348.500,1329.760,2397.780
930,63916.901000,26.922,70.830,-17.792,76.208,-340.868,-343.082,-1758.500,1411.760,2236.780
931,63916.919000,30.837,105.233,-23.722,20.568,-320.995,-359.841,-2133.500,1482.760,2125.780
932,63916.936000,40.627,134.577,-62.270,-9.717,-309.102,-368.179,-2422.500,1623.760,2061.780
933,63916.959000,57.270,165.945,-96.865,-67.498,-280.511,-379.003,-2700.500,1846.760,2015.780
934,63916.981000,70.975,205.407,-126.517,-89.098,-262.897,-383.564,-2955.500,1941.760,1921.780
935,63917.4000,95.449,240.822,-172.973,-146.163,-224.650,-384.568,-3042.500,2005.760,1839.780
936,63917.23000,123.839,253.976,-216.463,-176.656,-208.897,-383.063,-3116.500,1975.760,1714.780
937,63917.46000,182.577,257.012,-286.641,-233.001,-174.545,-367.339,-3184.500,1585.760,1582.780
938,63917.64000,235.442,276.237,-399.320,-274.716,-157.752,-340.041,-3117.500,533.760,1471.780
939,63917.94000,224.673,308.617,-480.371,-294.574,-148.879,-327.886,-2738.500,-186.240,1540.780
940,63917.116000,166.914,329.866,-480.371,-323.518,-128.327,-305.740,-1956.500,194.760,1882.780
941,63917.130000,157.124,356.174,-480.371,-333.504,-117.602,-299.669,-1211.500,723.760,2475.780
942,63917.149000,199.220,331.889,-480.371,-350.641,-79.731,-290.550,-701.500,448.760,2934.780
943,63917.174000,224.673,308.617,-480.371,-361.660,-63.193,-284.468,-520.500,-9.240,3044.780
944,63917.196000,185.514,308.617,-480.371,-362.886,-41.904,-281.518,-160.500,-1177.240,3074.780
945,63917.211000,89.576,295.462,-480.371,-368.890,-29.276,-280.442,385.500,-1714.240,3005.780
946,63917.233000,13.216,280.285,-480.371,-359.972,-24.510,-289.465,981.500,-1589.240,2874.780
947,63917.249000,-21.048,277.249,-458.625,-353.015,-6.176,-305.361,1544.500,-1401.240,2732.780
948,63917.271000,-26.922,285.344,-424.031,-341.040,-5.302,-319.357,1991.500,-1562.240,2622.780
949,63917.296000,-30.837,290.403,-366.703,-318.172,-3.550,-341.421,2323.500,-1844.240,2419.780
950,63917.314000,-55.312,254.988,-306.409,-308.135,-4.593,-355.380,2500.500,-2054.240,1893.780
951,63917.334000,-103.281,196.300,-264.896,-274.431,-18.421,-373.680,2518.500,-2013.240,1205.780
952,63917.352000,-127.755,132.553,-186.811,-258.469,-29.193,-385.763,2495.500,-1627.240,873.780
953,63917.378000,-115.029,95.115,-146.286,-225.691,-43.010,-407.001,2376.500,-1226.240,329.780
954,63917.399000,-101.323,76.901,-124.541,-197.934,-61.629,-418.299,2093.500,-1143.240,-200.220
955,63917.417000,-89.576,78.925,-107.737,-190.856,-75.229,-424.315,1782.500,-1257.240,-726.220
956,63917.435000,-85.660,78.925,-86.981,-161.140,-103.545,-430.714,1534.500,-1351.240,-1198.220
957,63917.457000,-84.681,68.806,-61.282,-148.260,-117.202,-432.895,1330.500,-1242.240,-1583.220
958,63917.475000,-82.723,58.688,-41.514,-123.594,-135.804,-435.279,1118.500,-917.240,-1877.220
959,63917.497000,-65.101,50.593,-33.606,-107.815,-145.618,-437.515,904.500,-510.240,-2129.220
960,63917.520000,-47.480,41.486,-19.768,-81.246,-156.497,-440.926,797.500,-342.240,-2231.220
961,63917.542000,-40.627,33.391,-8.896,-56.678,-162.521,-444.307,535.500,-171.240,-2454.220
962,63917.562000,-23.006,34.403,-1.977,-52.773,-163.525,-443.390,231.500,-22.240,-2649.220
963,63917.590000,-6.363,43.510,-5.931,-32.163,-164.676,-446.707,-92.500,223.760,-2798.220
964,63917.619000,13.216,53.628,-3.954,-28.260,-156.001,-450.724,-409.500,509.760,-2894.220
965,63917.625000,50.417,61.723,-14.826,-15.612,-146.442,-451.943,-712.500,562.760,-2997.220
966,63917.641000,79.786,74.877,-27.676,-23.431,-145.402,-452.791,-979.500,482.760,-3140.220
967,63917.667000,89.576,87.020,-52.386,-27.347,-137.623,-456.668,-1266.500,604.760,-3263.220
968,63917.690000,132.650,117.375,-88.958,-30.304,-122.111,-463.525,-1468.500,857.760,-3381.220
969,63917.705000,185.514,144.696,-126.517,-33.275,-116.279,-464.464,-1506.500,829.760,-3412.220
970,63917.732000,174.746,154.814,-147.274,-48.076,-106.474,-462.245,-1548.500,588.760,-3420.220
971,63917.751000,187.472,149.755,-193.730,-53.004,-104.496,-461.176,-1606.500,580.760,-3327.220
972,63917.769000,203.136,158.862,-268.849,-67.752,-96.623,-460.924,-1671.500,710.760,-3285.220
973,63917.784000,194.325,166.957,-335.073,-81.547,-93.600,-456.746,-1547.500,637.760,-3224.220
974,63917.797000,183.556,200.348,-336.062,-78.612,-93.627,-456.797,-1252.500,617.760,-3035.220
975,63917.820000,171.809,185.170,-346.934,-86.484,-88.718,-456.664,-976.500,610.760,-2799.220
976,63917.848000,204.115,169.992,-394.378,-92.442,-86.734,-452.623,-881.500,463.760,-2897.220
977,63917.865000,187.472,200.348,-418.100,-96.338,-90.569,-451.565,-831.500,414.760,-3007.220
978,63917.887000,170.830,202.372,-439.846,-86.580,-87.756,-451.741,-595.500,544.760,-3029.220
979,63917.920000,217.820,200.348,-438.857,-88.494,-82.896,-456.635,-196.500,794.760,-2818.220
980,63917.942000,251.105,189.217,-437.869,-86.520,-84.849,-456.668,204.500,403.760,-2577.220
981,63917.961000,271.663,185.170,-471.475,-60.005,-87.987,-461.071,473.500,-13.240,-2478.220
982,63917.977000,245.231,212.490,-474.440,-49.266,-90.990,-458.304,846.500,12.760,-2370.220
983,63917.996000,239.358,213.502,-439.846,-20.787,-87.371,-466.688,1423.500,539.760,-1923.220
984,63918.18000,288.306,183.146,-389.436,16.523,-77.055,-480.158,1861.500,723.760,-1323.220
985,63918.34000,329.423,164.933,-342.981,26.186,-75.215,-474.424,2081.500,159.760,-886.220
986,63918.54000,332.359,143.684,-311.351,72.150,-80.474,-471.294,2120.500,-285.240,-754.220
987,63918.79000,289.285,131.542,-292.571,85.841,-83.503,-469.563,2196.500,-618.240,-503.220
988,63918.94000,274.600,121.423,-265.884,134.636,-84.923,-462.549,2354.500,-226.240,-162.220
989,63918.121000,279.495,104.221,-223.382,154.102,-83.171,-457.974,2537.500,261.760,307.780
990,63918.137000,312.780,68.806,-173.961,195.026,-87.426,-446.879,2548.500,276.760,808.780
991,63918.159000,315.717,41.486,-146.286,207.652,-88.515,-441.195,2395.500,-246.240,1192.780
992,63918.176000,271.663,20.237,-122.564,242.771,-111.103,-424.069,2223.500,-633.240,1475.780
993,63918.197000,216.841,4.047,-113.668,264.103,-129.700,-403.751,2083.500,-597.240,1718.780
994,63918.219000,198.241,-2.024,-91.923,280.741,-143.402,-397.139,1997.500,-494.240,1816.780
995,63918.236000,176.704,-5.059,-65.236,297.295,-168.723,-379.682,1827.500,-424.240,1984.780
996,63918.254000,156.145,-13.154,-36.571,295.282,-183.227,-368.800,1580.500,-399.240,2162.780
997,63918.276000,142.440,-24.285,-9.884,298.207,-210.355,-354.053,1258.500,-435.240,2343.780
998,63918.299000,127.755,-32.379,3.954,296.279,-224.855,-348.096,857.500,-633.240,2447.780
999,63918.316000,91.533,-39.462,-2.965,279.714,-258.576,-333.981,534.500,-768.240,2515.780
1000,63918.349000,61.185,-43.510,-0.988,255.355,-288.353,-323.670,295.500,-600.240,2546.780
