Shimmer,Shimmer,Shimmer,Shimmer,Shimmer,Shimmer,Shimmer,Shimmer,Shimmer,Shimmer,Shimmer,Shimmer,Shimmer,Shimmer,Shimmer,Shimmer,Shimmer,Shimmer,Shimmer,Shimmer,
Timestamp,Timestamp,Wide Range Accelerometer X,Wide Range Accelerometer X,Wide Range Accelerometer Y,Wide Range Accelerometer Y,Wide Range Accelerometer Z,Wide Range Accelerometer Z,Gyroscope X,Gyroscope X,Gyroscope Y,Gyroscope Y,Gyroscope Z,Gyroscope Z,Magnetometer X,Magnetometer X,Magnetometer Y,Magnetometer Y,Magnetometer Z,Magnetometer Z,
RAW,CAL,RAW,CAL,RAW,CAL,RAW,CAL,RAW,CAL,RAW,CAL,RAW,CAL,RAW,CAL,RAW,CAL,RAW,CAL,
no units,mSecs,no units,m/(sec^2),no units,m/(sec^2),no units,m/(sec^2),no units,deg/sec,no units,deg/sec,no units,deg/sec,no units,local,no units,local,no units,local,
5285494,0,5072,-3.10974862047823,-15216,-9.3292458614347,-2352,1.44206008583691,77,3.84146341463415,-63,-4.69512195121951,-13,0.792682926829268,-78,0.339130434782609,34,0.147826086956522,134,-0.653658536585366,
5286134,19.53125,4976,-3.05088902513795,-15136,-9.28019619865113,-2304,1.41263028816677,23,4.14634146341463,-68,-1.40243902439024,-11,0.670731707317073,-78,0.339130434782609,34,0.147826086956522,135,-0.658536585365854,
5286774,39.0625,4912,-3.0116492949111,-15152,-9.29000613120785,-2336,1.4322501532802,-19,4.14634146341463,-68,1.15853658536585,-18,1.09756097560976,-79,0.343478260869565,38,0.165217391304348,134,-0.653658536585366,
5287414,58.59375,4848,-2.97240956468424,-15168,-9.29981606376456,-2384,1.46167995095034,-24,3.90243902439024,-64,1.46341463414634,-12,0.731707317073171,-80,0.347826086956522,38,0.165217391304348,133,-0.648780487804878,
5288054,78.125,4944,-3.03126916002452,-15216,-9.3292458614347,-2368,1.45187001839362,-14,3.59756097560976,-59,0.853658536585366,-2,0.121951219512195,-77,0.334782608695652,34,0.147826086956522,135,-0.658536585365854,
5288694,97.65625,4752,-2.91354996934396,-15280,-9.36848559166156,-2496,1.53034947884733,-33,3.53658536585366,-58,2.01219512195122,5,-0.304878048780488,-80,0.347826086956522,35,0.152173913043478,135,-0.658536585365854,
5289334,117.1875,4896,-3.00183936235438,-15296,-9.37829552421827,-2448,1.50091968117719,-68,3.17073170731707,-52,4.14634146341463,-1,0.0609756097560976,-78,0.339130434782609,37,0.160869565217391,132,-0.64390243902439,
5289974,136.71875,5104,-3.12936848559166,-15328,-9.3979153893317,-2448,1.50091968117719,-73,3.29268292682927,-54,4.45121951219512,-15,0.914634146341463,-79,0.343478260869565,36,0.156521739130435,135,-0.658536585365854,
5290614,156.25,5136,-3.14898835070509,-15136,-9.28019619865113,-2448,1.50091968117719,-54,3.10975609756098,-51,3.29268292682927,-12,0.731707317073171,-79,0.343478260869565,35,0.152173913043478,134,-0.653658536585366,
5291254,175.78125,5296,-3.24708767627223,-15104,-9.26057633353771,-2368,1.45187001839362,-22,1.03658536585366,-17,1.34146341463415,-13,0.792682926829268,-80,0.347826086956522,35,0.152173913043478,135,-0.658536585365854,
5291894,195.3125,5280,-3.23727774371551,-15088,-9.25076640098099,-2432,1.49110974862048,8,2.4390243902439,-40,-0.487804878048781,6,-0.365853658536585,-81,0.352173913043478,40,0.173913043478261,133,-0.648780487804878,
5292534,214.84375,5088,-3.11955855303495,-15104,-9.26057633353771,-2512,1.54015941140405,-2,1.76829268292683,-29,0.121951219512195,13,-0.792682926829268,-78,0.339130434782609,34,0.147826086956522,134,-0.653658536585366,
5293174,234.375,5344,-3.27651747394237,-15200,-9.31943592887799,-2576,1.5793991416309,12,1.40243902439024,-23,-0.731707317073171,16,-0.975609756097561,-80,0.347826086956522,37,0.160869565217391,134,-0.653658536585366,
5293814,253.90625,5424,-3.32556713672594,-14992,-9.19190680564071,-2656,1.62844880441447,27,1.70731707317073,-28,-1.64634146341463,10,-0.609756097560976,-79,0.343478260869565,38,0.165217391304348,135,-0.658536585365854,
5294454,273.4375,5536,-3.39423666462293,-15072,-9.24095646842428,-2624,1.60882893930104,50,1.52439024390244,-25,-3.04878048780488,3,-0.182926829268293,-79,0.343478260869565,34,0.147826086956522,135,-0.658536585365854,
5295094,292.96875,5456,-3.34518700183936,-15152,-9.29000613120785,-2560,1.56958920907419,71,1.95121951219512,-32,-4.32926829268293,-10,0.609756097560976,-77,0.334782608695652,36,0.156521739130435,134,-0.653658536585366,
5295734,312.5,5296,-3.24708767627223,-15120,-9.27038626609442,-2512,1.54015941140405,82,2.01219512195122,-33,-5,-13,0.792682926829268,-80,0.347826086956522,40,0.173913043478261,132,-0.64390243902439,
5296374,332.03125,5056,-3.09993868792152,-15120,-9.27038626609442,-2544,1.55977927651747,51,2.13414634146341,-35,-3.10975609756098,-14,0.853658536585366,-78,0.339130434782609,37,0.160869565217391,133,-0.648780487804878,
5297014,351.5625,5072,-3.10974862047823,-15200,-9.31943592887799,-2448,1.50091968117719,26,2.07317073170732,-34,-1.58536585365854,-15,0.914634146341463,-77,0.334782608695652,34,0.147826086956522,135,-0.658536585365854,
5297654,371.09375,5056,-3.09993868792152,-15088,-9.25076640098099,-2384,1.46167995095034,11,1.89024390243902,-31,-0.670731707317073,-11,0.670731707317073,-79,0.343478260869565,36,0.156521739130435,134,-0.653658536585366,
5298294,390.625,5088,-3.11955855303495,-15136,-9.28019619865113,-2432,1.49110974862048,30,1.58536585365854,-26,-1.82926829268293,-10,0.609756097560976,-78,0.339130434782609,38,0.165217391304348,132,-0.64390243902439,
5298934,410.15625,5040,-3.09012875536481,-15200,-9.31943592887799,-2464,1.51072961373391,37,1.40243902439024,-23,-2.25609756097561,-11,0.670731707317073,-80,0.347826086956522,42,0.182608695652174,132,-0.64390243902439,
5299574,429.6875,5024,-3.08031882280809,-15216,-9.3292458614347,-2480,1.52053954629062,25,1.82926829268293,-30,-1.52439024390244,-14,0.853658536585366,-79,0.343478260869565,35,0.152173913043478,134,-0.653658536585366,
5300214,449.21875,5024,-3.08031882280809,-15296,-9.37829552421827,-2432,1.49110974862048,22,2.74390243902439,-45,-1.34146341463415,-19,1.15853658536585,-79,0.343478260869565,35,0.152173913043478,135,-0.658536585365854,
5300854,468.75,5136,-3.14898835070509,-15264,-9.35867565910484,-2352,1.44206008583691,21,2.37804878048781,-39,-1.28048780487805,-24,1.46341463414634,-77,0.334782608695652,34,0.147826086956522,133,-0.648780487804878,
5301494,488.28125,5056,-3.09993868792152,-15248,-9.34886572654813,-2304,1.41263028816677,19,2.74390243902439,-45,-1.15853658536585,-24,1.46341463414634,-76,0.330434782608696,35,0.152173913043478,132,-0.64390243902439,
5302134,507.8125,4944,-3.03126916002452,-15232,-9.33905579399141,-2352,1.44206008583691,-7,2.68292682926829,-44,0.426829268292683,-23,1.40243902439024,-80,0.347826086956522,39,0.169565217391304,133,-0.648780487804878,
5302774,527.34375,4960,-3.04107909258124,-15168,-9.29981606376456,-2352,1.44206008583691,-42,3.10975609756098,-51,2.5609756097561,-21,1.28048780487805,-80,0.347826086956522,38,0.165217391304348,133,-0.648780487804878,
5303414,546.875,4976,-3.05088902513795,-15168,-9.29981606376456,-2352,1.44206008583691,-77,3.41463414634146,-56,4.69512195121951,-20,1.21951219512195,-79,0.343478260869565,34,0.147826086956522,134,-0.653658536585366,
5304054,566.40625,5088,-3.11955855303495,-15248,-9.34886572654813,-2320,1.42244022072348,-99,3.29268292682927,-54,6.03658536585366,-16,0.975609756097561,-78,0.339130434782609,39,0.169565217391304,134,-0.653658536585366,
5304694,585.9375,5264,-3.2274678111588,-15312,-9.38810545677498,-2448,1.50091968117719,-97,3.59756097560976,-59,5.91463414634146,-13,0.792682926829268,-82,0.356521739130435,40,0.173913043478261,133,-0.648780487804878,
5305334,605.46875,5376,-3.29613733905579,-15248,-9.34886572654813,-2560,1.56958920907419,-74,3.41463414634146,-56,4.51219512195122,-14,0.853658536585366,-77,0.334782608695652,38,0.165217391304348,133,-0.648780487804878,
5305974,625,5344,-3.27651747394237,-15184,-9.30962599632127,-2560,1.56958920907419,-37,3.35365853658537,-55,2.25609756097561,-21,1.28048780487805,-78,0.339130434782609,37,0.160869565217391,135,-0.658536585365854,
5306614,644.53125,5360,-3.28632740649908,-15072,-9.24095646842428,-2512,1.54015941140405,-8,3.04878048780488,-50,0.487804878048781,-27,1.64634146341463,-79,0.343478260869565,35,0.152173913043478,134,-0.653658536585366,
5307254,664.0625,5312,-3.25689760882894,-15104,-9.26057633353771,-2496,1.53034947884733,11,2.25609756097561,-37,-0.670731707317073,-26,1.58536585365854,-78,0.339130434782609,37,0.160869565217391,134,-0.653658536585366,
5307894,683.59375,5200,-3.18822808093194,-15136,-9.28019619865113,-2464,1.51072961373391,20,2.37804878048781,-39,-1.21951219512195,-16,0.975609756097561,-80,0.347826086956522,38,0.165217391304348,133,-0.648780487804878,
5308534,703.125,5040,-3.09012875536481,-15200,-9.31943592887799,-2464,1.51072961373391,3,2.80487804878049,-46,-0.182926829268293,-11,0.670731707317073,-78,0.339130434782609,35,0.152173913043478,133,-0.648780487804878,
5309174,722.65625,5120,-3.13917841814837,-15280,-9.36848559166156,-2432,1.49110974862048,-33,3.10975609756098,-51,2.01219512195122,-13,0.792682926829268,-78,0.339130434782609,37,0.160869565217391,133,-0.648780487804878,
5309814,742.1875,5264,-3.2274678111588,-15264,-9.35867565910484,-2496,1.53034947884733,-22,3.41463414634146,-56,1.34146341463415,-15,0.914634146341463,-78,0.339130434782609,35,0.152173913043478,133,-0.648780487804878,
5310454,761.71875,5152,-3.1587982832618,-15216,-9.3292458614347,-2496,1.53034947884733,-17,3.29268292682927,-54,1.03658536585366,-22,1.34146341463415,-79,0.343478260869565,39,0.169565217391304,134,-0.653658536585366,
5311094,781.25,5024,-3.08031882280809,-15152,-9.29000613120785,-2480,1.52053954629062,-40,3.35365853658537,-55,2.4390243902439,-24,1.46341463414634,-79,0.343478260869565,41,0.178260869565217,134,-0.653658536585366,
5311734,800.78125,5024,-3.08031882280809,-15216,-9.3292458614347,-2528,1.54996934396076,-73,3.78048780487805,-62,4.45121951219512,-23,1.40243902439024,-79,0.343478260869565,35,0.152173913043478,134,-0.653658536585366,
5312374,820.3125,5168,-3.16860821581852,-15104,-9.26057633353771,-2464,1.51072961373391,-68,3.53658536585366,-58,4.14634146341463,-19,1.15853658536585,-79,0.343478260869565,35,0.152173913043478,133,-0.648780487804878,
5313014,839.84375,5216,-3.19803801348866,-15104,-9.26057633353771,-2336,1.4322501532802,-70,3.10975609756098,-51,4.26829268292683,-15,0.914634146341463,-81,0.352173913043478,39,0.169565217391304,135,-0.658536585365854,
5313654,859.375,5152,-3.1587982832618,-15136,-9.28019619865113,-2288,1.40282035561006,-79,3.71951219512195,-61,4.81707317073171,-8,0.487804878048781,-80,0.347826086956522,39,0.169565217391304,134,-0.653658536585366,
5314294,878.90625,5264,-3.2274678111588,-15120,-9.27038626609442,-2320,1.42244022072348,-89,3.53658536585366,-58,5.42682926829268,-10,0.609756097560976,-80,0.347826086956522,40,0.173913043478261,132,-0.64390243902439,
5314934,898.4375,5440,-3.33537706928265,-15072,-9.24095646842428,-2320,1.42244022072348,-77,3.29268292682927,-54,4.69512195121951,-8,0.487804878048781,-80,0.347826086956522,41,0.178260869565217,133,-0.648780487804878,
5315574,917.96875,5472,-3.35499693439608,-15136,-9.28019619865113,-2320,1.42244022072348,-44,2.68292682926829,-44,2.68292682926829,-7,0.426829268292683,-78,0.339130434782609,38,0.165217391304348,133,-0.648780487804878,
5316214,937.5,5488,-3.36480686695279,-15120,-9.27038626609442,-2384,1.46167995095034,-20,2.31707317073171,-38,1.21951219512195,-3,0.182926829268293,-79,0.343478260869565,39,0.169565217391304,133,-0.648780487804878,
5316854,957.03125,5584,-3.42366646229307,-15152,-9.29000613120785,-2384,1.46167995095034,-2,1.76829268292683,-29,0.121951219512195,-3,0.182926829268293,-82,0.356521739130435,36,0.156521739130435,133,-0.648780487804878,
5317494,976.5625,5504,-3.3746167995095,-15200,-9.31943592887799,-2368,1.45187001839362,40,1.70731707317073,-28,-2.4390243902439,2,-0.121951219512195,-81,0.352173913043478,36,0.156521739130435,132,-0.64390243902439,
5318134,996.09375,5392,-3.30594727161251,-15152,-9.29000613120785,-2320,1.42244022072348,71,1.52439024390244,-25,-4.32926829268293,6,-0.365853658536585,-80,0.347826086956522,36,0.156521739130435,133,-0.648780487804878,
5318774,1015.625,5232,-3.20784794604537,-15120,-9.27038626609442,-2336,1.4322501532802,77,1.40243902439024,-23,-4.69512195121951,8,-0.487804878048781,-79,0.343478260869565,35,0.152173913043478,133,-0.648780487804878,
5319414,1035.15625,5152,-3.1587982832618,-15152,-9.29000613120785,-2368,1.45187001839362,82,1.46341463414634,-24,-5,7,-0.426829268292683,-81,0.352173913043478,38,0.165217391304348,134,-0.653658536585366,
5320054,1054.6875,5024,-3.08031882280809,-15136,-9.28019619865113,-2384,1.46167995095034,76,1.76829268292683,-29,-4.63414634146342,13,-0.792682926829268,-80,0.347826086956522,38,0.165217391304348,134,-0.653658536585366,
5320694,1074.21875,4912,-3.0116492949111,-15136,-9.28019619865113,-2384,1.46167995095034,39,1.95121951219512,-32,-2.37804878048781,13,-0.792682926829268,-79,0.343478260869565,34,0.147826086956522,133,-0.648780487804878,
5321334,1093.75,4976,-3.05088902513795,-15184,-9.30962599632127,-2336,1.4322501532802,-7,2.6219512195122,-43,0.426829268292683,10,-0.609756097560976,-80,0.347826086956522,36,0.156521739130435,134,-0.653658536585366,
5321974,1113.28125,5056,-3.09993868792152,-15200,-9.31943592887799,-2272,1.39301042305334,-39,2.80487804878049,-46,2.37804878048781,3,-0.182926829268293,-81,0.352173913043478,39,0.169565217391304,134,-0.653658536585366,
5322614,1132.8125,5200,-3.18822808093194,-15200,-9.31943592887799,-2304,1.41263028816677,-47,3.23170731707317,-53,2.86585365853659,-3,0.182926829268293,-80,0.347826086956522,37,0.160869565217391,132,-0.64390243902439,
5323254,1152.34375,5296,-3.24708767627223,-15216,-9.3292458614347,-2352,1.44206008583691,-33,3.47560975609756,-57,2.01219512195122,-5,0.304878048780488,-80,0.347826086956522,38,0.165217391304348,134,-0.653658536585366,
5323894,1171.875,5184,-3.17841814837523,-15200,-9.31943592887799,-2320,1.42244022072348,-38,3.47560975609756,-57,2.31707317073171,-10,0.609756097560976,-80,0.347826086956522,35,0.152173913043478,133,-0.648780487804878,
5324534,1191.40625,5168,-3.16860821581852,-15168,-9.29981606376456,-2352,1.44206008583691,-60,3.29268292682927,-54,3.65853658536585,-10,0.609756097560976,-78,0.339130434782609,38,0.165217391304348,132,-0.64390243902439,
5325174,1210.9375,5296,-3.24708767627223,-15088,-9.25076640098099,-2384,1.46167995095034,-66,3.17073170731707,-52,4.02439024390244,-13,0.792682926829268,-78,0.339130434782609,39,0.169565217391304,133,-0.648780487804878,
5325814,1230.46875,5328,-3.26670754138565,-15056,-9.23114653586757,-2416,1.48129981606376,-53,3.04878048780488,-50,3.23170731707317,-12,0.731707317073171,-81,0.352173913043478,36,0.156521739130435,134,-0.653658536585366,
5326454,1250,5296,-3.24708767627223,-15104,-9.26057633353771,-2368,1.45187001839362,-37,2.98780487804878,-49,2.25609756097561,-6,0.365853658536585,-81,0.352173913043478,37,0.160869565217391,134,-0.653658536585366,
5327094,1269.53125,5392,-3.30594727161251,-15296,-9.37829552421827,-2400,1.47148988350705,-18,2.5609756097561,-42,1.09756097560976,3,-0.182926829268293,-79,0.343478260869565,37,0.160869565217391,132,-0.64390243902439,
5327734,1289.0625,5520,-3.38442673206622,-15264,-9.35867565910484,-2432,1.49110974862048,4,2.5,-41,-0.24390243902439,5,-0.304878048780488,-79,0.343478260869565,34,0.147826086956522,133,-0.648780487804878,
5328374,1308.59375,5648,-3.46290619251993,-15232,-9.33905579399141,-2400,1.47148988350705,34,2.25609756097561,-37,-2.07317073170732,1,-0.0609756097560976,-80,0.347826086956522,37,0.160869565217391,133,-0.648780487804878,
5329014,1328.125,5584,-3.42366646229307,-15152,-9.29000613120785,-2432,1.49110974862048,61,2.13414634146341,-35,-3.71951219512195,-10,0.609756097560976,-81,0.352173913043478,40,0.173913043478261,132,-0.64390243902439,
5329654,1347.65625,5536,-3.39423666462293,-15184,-9.30962599632127,-2384,1.46167995095034,112,1.82926829268293,-30,-6.82926829268293,-8,0.487804878048781,-78,0.339130434782609,35,0.152173913043478,133,-0.648780487804878,
5330294,1367.1875,5280,-3.23727774371551,-15152,-9.29000613120785,-2416,1.48129981606376,116,2.01219512195122,-33,-7.07317073170732,-4,0.24390243902439,-82,0.356521739130435,40,0.173913043478261,133,-0.648780487804878,
5330934,1386.71875,5152,-3.1587982832618,-15184,-9.30962599632127,-2304,1.41263028816677,84,2.31707317073171,-38,-5.1219512195122,1,-0.0609756097560976,-80,0.347826086956522,39,0.169565217391304,135,-0.658536585365854,
5331574,1406.25,5056,-3.09993868792152,-15216,-9.3292458614347,-2352,1.44206008583691,45,2.74390243902439,-45,-2.74390243902439,-1,0.0609756097560976,-81,0.352173913043478,37,0.160869565217391,133,-0.648780487804878,
5332214,1425.78125,5120,-3.13917841814837,-15200,-9.31943592887799,-2320,1.42244022072348,26,2.98780487804878,-49,-1.58536585365854,-10,0.609756097560976,-78,0.339130434782609,35,0.152173913043478,135,-0.658536585365854,
5332854,1445.3125,5232,-3.20784794604537,-15184,-9.30962599632127,-2352,1.44206008583691,36,3.10975609756098,-51,-2.19512195121951,-16,0.975609756097561,-79,0.343478260869565,36,0.156521739130435,134,-0.653658536585366,
5333494,1464.84375,5216,-3.19803801348866,-15568,-9.5450643776824,-2256,1.38320049049663,47,3.23170731707317,-53,-2.86585365853659,-22,1.34146341463415,-80,0.347826086956522,38,0.165217391304348,132,-0.64390243902439,
5334134,1484.375,5136,-3.14898835070509,-15280,-9.36848559166156,-2256,1.38320049049663,35,2.98780487804878,-49,-2.13414634146341,-18,1.09756097560976,-78,0.339130434782609,38,0.165217391304348,132,-0.64390243902439,
5334774,1503.90625,5104,-3.12936848559166,-15248,-9.34886572654813,-2368,1.45187001839362,16,3.10975609756098,-51,-0.975609756097561,-10,0.609756097560976,-80,0.347826086956522,38,0.165217391304348,132,-0.64390243902439,
5335414,1523.4375,5120,-3.13917841814837,-15248,-9.34886572654813,-2384,1.46167995095034,15,2.86585365853659,-47,-0.914634146341463,-6,0.365853658536585,-82,0.356521739130435,39,0.169565217391304,133,-0.648780487804878,
5336054,1542.96875,5168,-3.16860821581852,-15200,-9.31943592887799,-2304,1.41263028816677,31,2.5,-41,-1.89024390243902,-4,0.24390243902439,-80,0.347826086956522,43,0.18695652173913,131,-0.639024390243902,
5336694,1562.5,5168,-3.16860821581852,-15280,-9.36848559166156,-2352,1.44206008583691,46,2.37804878048781,-39,-2.80487804878049,-5,0.304878048780488,-80,0.347826086956522,39,0.169565217391304,132,-0.64390243902439,
5337334,1582.03125,5152,-3.1587982832618,-15216,-9.3292458614347,-2208,1.35377069282649,47,2.01219512195122,-33,-2.86585365853659,-7,0.426829268292683,-79,0.343478260869565,36,0.156521739130435,133,-0.648780487804878,
5337974,1601.5625,5168,-3.16860821581852,-15264,-9.35867565910484,-2336,1.4322501532802,48,1.89024390243902,-31,-2.92682926829268,-6,0.365853658536585,-80,0.347826086956522,39,0.169565217391304,133,-0.648780487804878,
5338614,1621.09375,5088,-3.11955855303495,-15184,-9.30962599632127,-2320,1.42244022072348,45,1.52439024390244,-25,-2.74390243902439,-1,0.0609756097560976,-77,0.334782608695652,35,0.152173913043478,133,-0.648780487804878,
5339254,1640.625,5184,-3.17841814837523,-15264,-9.35867565910484,-2304,1.41263028816677,34,1.89024390243902,-31,-2.07317073170732,2,-0.121951219512195,-81,0.352173913043478,40,0.173913043478261,133,-0.648780487804878,
5339894,1660.15625,5168,-3.16860821581852,-15344,-9.40772532188841,-2432,1.49110974862048,23,2.13414634146341,-35,-1.40243902439024,0,0,-80,0.347826086956522,39,0.169565217391304,134,-0.653658536585366,
5340534,1679.6875,5216,-3.19803801348866,-15312,-9.38810545677498,-2384,1.46167995095034,22,2.37804878048781,-39,-1.34146341463415,-2,0.121951219512195,-79,0.343478260869565,38,0.165217391304348,132,-0.64390243902439,
5341174,1699.21875,5184,-3.17841814837523,-15232,-9.33905579399141,-2432,1.49110974862048,24,2.74390243902439,-45,-1.46341463414634,-8,0.487804878048781,-78,0.339130434782609,34,0.147826086956522,134,-0.653658536585366,
5341814,1718.75,5040,-3.09012875536481,-15232,-9.33905579399141,-2384,1.46167995095034,12,3.10975609756098,-51,-0.731707317073171,-10,0.609756097560976,-78,0.339130434782609,40,0.173913043478261,132,-0.64390243902439,
5342454,1738.28125,5120,-3.13917841814837,-15216,-9.3292458614347,-2368,1.45187001839362,-3,3.10975609756098,-51,0.182926829268293,-9,0.548780487804878,-77,0.334782608695652,38,0.165217391304348,132,-0.64390243902439,
5343094,1757.8125,5040,-3.09012875536481,-15184,-9.30962599632127,-2416,1.48129981606376,-11,3.10975609756098,-51,0.670731707317073,-7,0.426829268292683,-78,0.339130434782609,38,0.165217391304348,133,-0.648780487804878,
5343734,1777.34375,5024,-3.08031882280809,-15232,-9.33905579399141,-2432,1.49110974862048,-32,3.47560975609756,-57,1.95121951219512,-5,0.304878048780488,-79,0.343478260869565,37,0.160869565217391,134,-0.653658536585366,
5344374,1796.875,5216,-3.19803801348866,-15152,-9.29000613120785,-2432,1.49110974862048,-35,3.29268292682927,-54,2.13414634146341,-6,0.365853658536585,-79,0.343478260869565,37,0.160869565217391,133,-0.648780487804878,
5345014,1816.40625,5232,-3.20784794604537,-15168,-9.29981606376456,-2480,1.52053954629062,-16,3.53658536585366,-58,0.975609756097561,-2,0.121951219512195,-78,0.339130434782609,36,0.156521739130435,132,-0.64390243902439,
5345654,1835.9375,5264,-3.2274678111588,-15200,-9.31943592887799,-2448,1.50091968117719,-1,3.71951219512195,-61,0.0609756097560976,-8,0.487804878048781,-80,0.347826086956522,35,0.152173913043478,134,-0.653658536585366,
5346294,1855.46875,5200,-3.18822808093194,-15152,-9.29000613120785,-2384,1.46167995095034,2,3.17073170731707,-52,-0.121951219512195,2,-0.121951219512195,-79,0.343478260869565,40,0.173913043478261,134,-0.653658536585366,
5346934,1875,5248,-3.21765787860208,-15120,-9.27038626609442,-2432,1.49110974862048,10,3.29268292682927,-54,-0.609756097560976,11,-0.670731707317073,-78,0.339130434782609,35,0.152173913043478,132,-0.64390243902439,
5347574,1894.53125,5280,-3.23727774371551,-15152,-9.29000613120785,-2528,1.54996934396076,16,2.86585365853659,-47,-0.975609756097561,13,-0.792682926829268,-81,0.352173913043478,36,0.156521739130435,133,-0.648780487804878,
5348214,1914.0625,5312,-3.25689760882894,-15168,-9.29981606376456,-2528,1.54996934396076,28,2.74390243902439,-45,-1.70731707317073,9,-0.548780487804878,-79,0.343478260869565,39,0.169565217391304,133,-0.648780487804878,
5348854,1933.59375,5312,-3.25689760882894,-15184,-9.30962599632127,-2496,1.53034947884733,39,2.4390243902439,-40,-2.37804878048781,10,-0.609756097560976,-81,0.352173913043478,38,0.165217391304348,133,-0.648780487804878,
5349494,1953.125,5296,-3.24708767627223,-15328,-9.3979153893317,-2464,1.51072961373391,47,2.68292682926829,-44,-2.86585365853659,12,-0.731707317073171,-78,0.339130434782609,36,0.156521739130435,134,-0.653658536585366,
5350134,1972.65625,5264,-3.2274678111588,-15232,-9.33905579399141,-2496,1.53034947884733,48,2.37804878048781,-39,-2.92682926829268,14,-0.853658536585366,-78,0.339130434782609,35,0.152173913043478,134,-0.653658536585366,
5350774,1992.1875,5312,-3.25689760882894,-15216,-9.3292458614347,-2560,1.56958920907419,44,2.37804878048781,-39,-2.68292682926829,8,-0.487804878048781,-77,0.334782608695652,37,0.160869565217391,131,-0.639024390243902,
5351414,2011.71875,5328,-3.26670754138565,-15056,-9.23114653586757,-2512,1.54015941140405,46,2.6219512195122,-43,-2.80487804878049,-4,0.24390243902439,-78,0.339130434782609,38,0.165217391304348,133,-0.648780487804878,
5352054,2031.25,5344,-3.27651747394237,-15088,-9.25076640098099,-2464,1.51072961373391,66,1.89024390243902,-31,-4.02439024390244,-11,0.670731707317073,-76,0.330434782608696,35,0.152173913043478,133,-0.648780487804878,
5352694,2050.78125,5392,-3.30594727161251,-14992,-9.19190680564071,-2496,1.53034947884733,86,2.01219512195122,-33,-5.24390243902439,-13,0.792682926829268,-78,0.339130434782609,39,0.169565217391304,132,-0.64390243902439,
5353334,2070.3125,5280,-3.23727774371551,-15072,-9.24095646842428,-2448,1.50091968117719,108,1.82926829268293,-30,-6.58536585365854,-11,0.670731707317073,-77,0.334782608695652,39,0.169565217391304,133,-0.648780487804878,
5353974,2089.84375,5168,-3.16860821581852,-15104,-9.26057633353771,-2368,1.45187001839362,109,1.21951219512195,-20,-6.64634146341464,-10,0.609756097560976,-76,0.330434782608696,38,0.165217391304348,132,-0.64390243902439,
5354614,2109.375,5168,-3.16860821581852,-15104,-9.26057633353771,-2384,1.46167995095034,90,1.21951219512195,-20,-5.48780487804878,-13,0.792682926829268,-78,0.339130434782609,36,0.156521739130435,134,-0.653658536585366,
5355254,2128.90625,5232,-3.20784794604537,-15024,-9.21152667075414,-2320,1.42244022072348,94,0.914634146341463,-15,-5.73170731707317,-18,1.09756097560976,-77,0.334782608695652,35,0.152173913043478,133,-0.648780487804878,
5355894,2148.4375,5232,-3.20784794604537,-14896,-9.13304721030043,-2448,1.50091968117719,116,0.487804878048781,-8,-7.07317073170732,-22,1.34146341463415,-76,0.330434782608696,36,0.156521739130435,132,-0.64390243902439,
5356534,2167.96875,5344,-3.27651747394237,-14688,-9.00551808706315,-2608,1.59901900674433,151,-0.487804878048781,8,-9.20731707317073,-28,1.70731707317073,-76,0.330434782608696,36,0.156521739130435,133,-0.648780487804878,
5357174,2187.5,6016,-3.68853464132434,-14448,-8.85836909871245,-2960,1.81483752299203,242,-3.90243902439024,64,-14.7560975609756,3,-0.182926829268293,-78,0.339130434782609,39,0.169565217391304,133,-0.648780487804878,
5357814,2207.03125,6416,-3.93378295524218,-14272,-8.7504598405886,-3888,2.38381361128142,447,-7.74390243902439,127,-27.2560975609756,108,-6.58536585365854,-76,0.330434782608696,39,0.169565217391304,133,-0.648780487804878,
5358454,2226.5625,5792,-3.55119558553035,-13424,-8.23053341508277,-4912,3.0116492949111,575,-9.26829268292683,152,-35.0609756097561,220,-13.4146341463415,-75,0.326086956521739,36,0.156521739130435,133,-0.648780487804878,
5359094,2246.09375,6080,-3.7277743715512,-13072,-8.01471489883507,-6944,4.25751072961373,604,-8.41463414634146,138,-36.8292682926829,374,-22.8048780487805,-74,0.321739130434783,39,0.169565217391304,131,-0.639024390243902,
5359734,2265.625,6384,-3.91416309012876,-12800,-7.84794604537094,-9392,5.75843041079093,583,-1.70731707317073,28,-35.5487804878049,628,-38.2926829268293,-73,0.317391304347826,39,0.169565217391304,129,-0.629268292682927,
5360374,2285.15625,7376,-4.522378908645,-13232,-8.11281422440221,-11376,6.97486204782342,582,2.19512195121951,-36,-35.4878048780488,893,-54.4512195121951,-70,0.304347826086957,38,0.165217391304348,128,-0.624390243902439,
5361014,2304.6875,9504,-5.82709993868792,-15312,-9.38810545677498,-11792,7.22992029429798,561,13.5975609756098,-223,-34.2073170731707,1006,-61.3414634146341,-70,0.304347826086957,40,0.173913043478261,131,-0.639024390243902,
5361654,2324.21875,12080,-7.40649908031882,-17824,-10.928264868179,-10352,6.34702636419375,467,28.719512195122,-471,-28.4756097560976,760,-46.3414634146341,-67,0.291304347826087,39,0.169565217391304,131,-0.639024390243902,
5362294,2343.75,13472,-8.25996321275291,-18992,-11.6443899448191,-8848,5.42489270386266,786,52.4390243902439,-860,-47.9268292682927,352,-21.4634146341463,-64,0.278260869565217,39,0.169565217391304,131,-0.639024390243902,
5362934,2363.28125,14784,-9.06437768240343,-19920,-12.2133660331085,-9104,5.58185162477008,1221,61.3414634146341,-1006,-74.4512195121951,-204,12.4390243902439,-65,0.282608695652174,38,0.165217391304348,131,-0.639024390243902,
5363574,2382.8125,14480,-8.87798896382587,-20656,-12.6646229307173,-10512,6.44512568976088,1746,77.9878048780488,-1279,-106.463414634146,-705,42.9878048780488,-63,0.273913043478261,35,0.152173913043478,131,-0.639024390243902,
5364214,2402.34375,12336,-7.56345800122624,-21168,-12.9785407725322,-11792,7.22992029429798,2010,94.2682926829268,-1546,-122.560975609756,-1021,62.2560975609756,-64,0.278260869565217,31,0.134782608695652,135,-0.658536585365854,
5364854,2421.875,10208,-6.25873697118332,-21376,-13.1060698957695,-12576,7.71060698957695,1822,113.536585365854,-1862,-111.09756097561,-1211,73.8414634146341,-60,0.260869565217391,30,0.130434782608696,136,-0.663414634146342,
5365494,2441.40625,9440,-5.78786020846107,-21104,-12.9393010423053,-12688,7.77927651747394,1392,128.048780487805,-2100,-84.8780487804878,-1358,82.8048780487805,-59,0.256521739130435,29,0.126086956521739,139,-0.678048780487805,
5366134,2460.9375,9856,-6.04291845493562,-20976,-12.8608215818516,-12480,7.65174739423666,1165,137.743902439024,-2259,-71.0365853658537,-1394,85,-61,0.265217391304348,30,0.130434782608696,143,-0.697560975609756,
5366774,2480.46875,10752,-6.59227467811159,-21264,-13.0374003678725,-12352,7.57326793378295,1280,144.390243902439,-2368,-78.0487804878049,-1378,84.0243902439024,-61,0.265217391304348,26,0.11304347826087,146,-0.712195121951219,
5367414,2500,11280,-6.91600245248314,-21936,-13.4494175352544,-11952,7.32801961986511,1586,149.573170731707,-2453,-96.7073170731707,-1316,80.2439024390244,-59,0.256521739130435,21,0.091304347826087,148,-0.721951219512195,
5368054,2519.53125,10544,-6.46474555487431,-22000,-13.4886572654813,-11360,6.96505211526671,1981,156.646341463415,-2569,-120.792682926829,-1291,78.719512195122,-57,0.247826086956522,16,0.0695652173913043,153,-0.746341463414634,
5368694,2539.0625,9120,-5.59166155732679,-21440,-13.1453096259963,-11088,6.79828326180257,2175,163.109756097561,-2675,-132.621951219512,-1298,79.1463414634146,-56,0.243478260869565,17,0.0739130434782609,153,-0.746341463414634,
5369334,2558.59375,8000,-4.90496627835684,-20672,-12.6744328632741,-11200,6.86695278969957,2140,168.536585365854,-2764,-130.487804878049,-1307,79.6951219512195,-53,0.230434782608696,15,0.0652173913043478,154,-0.751219512195122,
5369974,2578.125,7344,-4.50275904353158,-19968,-12.2427958307787,-11376,6.97486204782342,2027,172.073170731707,-2822,-123.59756097561,-1270,77.4390243902439,-50,0.217391304347826,11,0.0478260869565217,156,-0.760975609756098,
5370614,2597.65625,6784,-4.1594114040466,-19072,-11.6934396076027,-11232,6.886572654813,2046,173.963414634146,-2853,-124.756097560976,-1182,72.0731707317073,-46,0.2,6,0.0260869565217391,155,-0.75609756097561,
5371254,2617.1875,5424,-3.32556713672594,-18032,-11.0557939914163,-10480,6.42550582464746,2015,173.658536585366,-2848,-122.865853658537,-1078,65.7317073170732,-42,0.182608695652174,0,0,159,-0.775609756097561,
5371894,2636.71875,4016,-2.46229307173513,-16848,-10.3298589822195,-9328,5.71919068056407,1801,173.231707317073,-2841,-109.817073170732,-990,60.3658536585366,-38,0.165217391304348,-5,-0.0217391304347826,160,-0.780487804878049,
5372534,2656.25,2976,-1.82464745554874,-15536,-9.52544451256898,-8384,5.14040465971796,1479,168.353658536585,-2761,-90.1829268292683,-907,55.3048780487805,-38,0.165217391304348,-12,-0.0521739130434783,161,-0.785365853658537,
5373174,2675.78125,2368,-1.45187001839362,-13728,-8.41692213366033,-7904,4.84610668301655,1285,162.865853658537,-2671,-78.3536585365854,-828,50.4878048780488,-34,0.147826086956522,-15,-0.0652173913043478,159,-0.775609756097561,
5373814,2695.3125,1760,-1.0790925812385,-12048,-7.3868792152054,-6864,4.20846106683017,1138,156.09756097561,-2560,-69.390243902439,-788,48.0487804878049,-35,0.152173913043478,-15,-0.0652173913043478,159,-0.775609756097561,
5374454,2714.84375,848,-0.519926425505825,-10528,-6.4549356223176,-5696,3.49233599019007,898,146.890243902439,-2409,-54.7560975609756,-764,46.5853658536585,-29,0.126086956521739,-22,-0.0956521739130435,160,-0.780487804878049,
5375094,2734.375,304,-0.18638871857756,-8768,-5.37584304107909,-5344,3.27651747394237,707,137.073170731707,-2248,-43.109756097561,-752,45.8536585365854,-29,0.126086956521739,-25,-0.108695652173913,161,-0.785365853658537,
5375734,2753.90625,336,-0.206008583690987,-6992,-4.28694052728387,-5296,3.24708767627223,632,124.573170731707,-2043,-38.5365853658537,-699,42.6219512195122,-26,0.11304347826087,-26,-0.11304347826087,161,-0.785365853658537,
5376374,2773.4375,208,-0.127529123237278,-5488,-3.36480686695279,-5264,3.2274678111588,687,111.463414634146,-1828,-41.890243902439,-640,39.0243902439024,-27,0.117391304347826,-32,-0.139130434782609,160,-0.780487804878049,
5377014,2792.96875,368,-0.225628448804414,-4416,-2.70754138565297,-5856,3.5904353157572,729,97.2560975609756,-1595,-44.4512195121951,-551,33.5975609756098,-24,0.104347826086957,-33,-0.143478260869565,160,-0.780487804878049,
5377654,2812.5,480,-0.29429797670141,-3520,-2.15818516247701,-6816,4.17903126916002,944,86.6463414634146,-1421,-57.5609756097561,-490,29.8780487804878,-22,0.0956521739130435,-34,-0.147826086956522,159,-0.775609756097561,
5378294,2832.03125,-80,0.0490496627835684,-2960,-1.81483752299203,-6928,4.24770079705702,1195,73.5365853658537,-1206,-72.8658536585366,-429,26.1585365853659,-18,0.0782608695652174,-39,-0.169565217391304,156,-0.760975609756098,
5378934,2851.5625,-576,0.353157572041692,-2032,-1.24586143470264,-8192,5.0226854690374,1442,62.8048780487805,-1030,-87.9268292682927,-365,22.2560975609756,-16,0.0695652173913043,-37,-0.160869565217391,155,-0.75609756097561,
5379574,2871.09375,-1232,0.755364806866953,-1264,-0.77498467198038,-9072,5.56223175965665,1577,53.0487804878049,-870,-96.1585365853659,-297,18.109756097561,-13,0.0565217391304348,-38,-0.165217391304348,152,-0.741463414634146,
5380214,2890.625,-2080,1.27529123237278,-832,-0.510116492949111,-9776,5.99386879215205,1711,43.6585365853659,-716,-104.329268292683,-178,10.8536585365854,-11,0.0478260869565217,-40,-0.173913043478261,149,-0.726829268292683,
5380854,2910.15625,-3168,1.94236664622931,-384,-0.235438381361128,-10912,6.69037400367872,1755,37.8048780487805,-620,-107.012195121951,-85,5.18292682926829,-4,0.0173913043478261,-43,-0.18695652173913,146,-0.712195121951219,
5381494,2929.6875,-3872,2.37400367872471,-176,-0.10790925812385,-11904,7.29858982219497,1611,34.0243902439024,-558,-98.2317073170732,-55,3.35365853658537,-4,0.0173913043478261,-44,-0.191304347826087,144,-0.702439024390244,
5382134,2949.21875,-4304,2.63887185775598,48,0.029429797670141,-12464,7.64193746167995,1362,29.8780487804878,-490,-83.0487804878049,-65,3.96341463414634,0,0,-43,-0.18695652173913,143,-0.697560975609756,
5382774,2968.75,-4640,2.84488044144697,64,0.0392397302268547,-12688,7.77927651747394,1081,26.1585365853659,-429,-65.9146341463415,-49,2.98780487804878,0,0,-41,-0.178260869565217,140,-0.682926829268293,
5383414,2988.28125,-5312,3.25689760882894,112,0.0686695278969957,-12352,7.57326793378295,679,22.9878048780488,-377,-41.4024390243902,-49,2.98780487804878,2,-0.00869565217391304,-48,-0.208695652173913,141,-0.68780487804878,
5384054,3007.8125,-4720,2.89393010423053,208,0.127529123237278,-12848,7.87737584304108,245,20.9146341463415,-343,-14.9390243902439,-50,3.04878048780488,5,-0.0217391304347826,-48,-0.208695652173913,139,-0.678048780487805,
5384694,3027.34375,-3904,2.39362354383814,288,0.176578786020846,-13456,8.2501532801962,-5,20,-328,0.304878048780488,-66,4.02439024390244,2,-0.00869565217391304,-47,-0.204347826086957,137,-0.668292682926829,
5385334,3046.875,-3328,2.04046597179644,352,0.215818516247701,-13952,8.55426118945432,-20,18.1707317073171,-298,1.21951219512195,-69,4.20731707317073,6,-0.0260869565217391,-50,-0.217391304347826,138,-0.673170731707317,
5385974,3066.40625,-3328,2.04046597179644,400,0.245248313917842,-14256,8.74064990803188,65,15.6707317073171,-257,-3.96341463414634,-65,3.96341463414634,3,-0.0130434782608696,-45,-0.195652173913043,139,-0.678048780487805,
5386614,3085.9375,-3472,2.12875536480687,656,0.402207234825261,-14480,8.87798896382587,140,13.719512195122,-225,-8.53658536585366,-75,4.57317073170732,3,-0.0130434782608696,-46,-0.2,139,-0.678048780487805,
5387254,3105.46875,-3792,2.32495401594114,704,0.431637032495402,-14544,8.91722869405273,141,11.1585365853659,-183,-8.59756097560976,-59,3.59756097560976,4,-0.0173913043478261,-46,-0.2,139,-0.678048780487805,
5387894,3125,-4064,2.49172286940527,800,0.490496627835684,-14752,9.04475781729001,112,9.63414634146342,-158,-6.82926829268293,-46,2.80487804878049,5,-0.0217391304347826,-50,-0.217391304347826,138,-0.673170731707317,
5388534,3144.53125,-4256,2.60944206008584,832,0.510116492949111,-14688,9.00551808706315,-6,7.80487804878049,-128,0.365853658536585,-35,2.13414634146341,5,-0.0217391304347826,-47,-0.204347826086957,136,-0.663414634146342,
5389174,3164.0625,-3968,2.43286327406499,928,0.568976088289393,-14768,9.05456774984672,-174,7.25609756097561,-119,10.609756097561,-49,2.98780487804878,2,-0.00869565217391304,-44,-0.191304347826087,137,-0.668292682926829,
5389814,3183.59375,-3376,2.06989576946658,944,0.578786020846107,-14768,9.05456774984672,-224,7.07317073170732,-116,13.6585365853659,-44,2.68292682926829,3,-0.0130434782608696,-48,-0.208695652173913,137,-0.668292682926829,
5390454,3203.125,-3200,1.96198651134273,1136,0.696505211526671,-14896,9.13304721030043,-106,5.42682926829268,-89,6.46341463414634,-40,2.4390243902439,3,-0.0130434782608696,-47,-0.204347826086957,137,-0.668292682926829,
5391094,3222.65625,-3328,2.04046597179644,1136,0.696505211526671,-15104,9.26057633353771,31,3.10975609756098,-51,-1.89024390243902,-33,2.01219512195122,3,-0.0130434782608696,-42,-0.182608695652174,138,-0.673170731707317,
5391734,3242.1875,-3776,2.31514408338443,1200,0.735744941753525,-15392,9.43715511955855,123,1.89024390243902,-31,-7.5,-19,1.15853658536585,3,-0.0130434782608696,-43,-0.18695652173913,136,-0.663414634146342,
5392374,3261.71875,-4160,2.55058246474555,1312,0.804414469650521,-15456,9.47639484978541,98,0.853658536585366,-14,-5.97560975609756,-13,0.792682926829268,4,-0.0173913043478261,-50,-0.217391304347826,139,-0.678048780487805,
5393014,3281.25,-4064,2.49172286940527,1472,0.902513795217658,-15568,9.5450643776824,-30,0.365853658536585,-6,1.82926829268293,-11,0.670731707317073,2,-0.00869565217391304,-44,-0.191304347826087,136,-0.663414634146342,
5393654,3300.78125,-3552,2.17780502759044,1424,0.873083997547517,-15584,9.55487431023912,-88,-0.548780487804878,9,5.36585365853659,2,-0.121951219512195,2,-0.00869565217391304,-43,-0.18695652173913,136,-0.663414634146342,
5394294,3320.3125,-3408,2.08951563458001,1264,0.77498467198038,-15792,9.6824034334764,20,-1.21951219512195,20,-1.21951219512195,27,-1.64634146341463,5,-0.0217391304347826,-50,-0.217391304347826,138,-0.673170731707317,
5394934,3339.84375,-3728,2.28571428571429,1232,0.755364806866953,-16128,9.88841201716738,155,-0.853658536585366,14,-9.45121951219512,29,-1.76829268292683,1,-0.00434782608695652,-45,-0.195652173913043,138,-0.673170731707317,
5395574,3359.375,-4064,2.49172286940527,1232,0.755364806866953,-16256,9.96689147762109,174,-0.792682926829268,13,-10.609756097561,30,-1.82926829268293,3,-0.0130434782608696,-44,-0.191304347826087,137,-0.668292682926829,
5396214,3378.90625,-4304,2.63887185775598,1008,0.618025751072961,-16256,9.96689147762109,97,0.24390243902439,-4,-5.91463414634146,43,-2.6219512195122,6,-0.0260869565217391,-47,-0.204347826086957,136,-0.663414634146342,
5396854,3398.4375,-4080,2.50153280196199,1008,0.618025751072961,-16208,9.93746167995095,-34,0.792682926829268,-13,2.07317073170732,58,-3.53658536585366,4,-0.0173913043478261,-45,-0.195652173913043,138,-0.673170731707317,
5397494,3417.96875,-3584,2.19742489270386,1072,0.657265481299816,-16160,9.90803188228081,-114,2.31707317073171,-38,6.95121951219512,48,-2.92682926829268,4,-0.0173913043478261,-46,-0.2,136,-0.663414634146342,
5398134,3437.5,-3264,2.00122624156959,1040,0.637645616186389,-16032,9.8295524218271,-55,2.19512195121951,-36,3.35365853658537,45,-2.74390243902439,1,-0.00434782608695652,-46,-0.2,137,-0.668292682926829,
5398774,3457.03125,-3232,1.98160637645616,976,0.598405885959534,-16048,9.83936235438381,58,1.89024390243902,-31,-3.53658536585366,42,-2.5609756097561,6,-0.0260869565217391,-50,-0.217391304347826,138,-0.673170731707317,
5399414,3476.5625,-3408,2.08951563458001,1040,0.637645616186389,-16160,9.90803188228081,117,2.74390243902439,-45,-7.13414634146342,43,-2.6219512195122,5,-0.0217391304347826,-48,-0.208695652173913,138,-0.673170731707317,
5400054,3496.09375,-3792,2.32495401594114,1056,0.647455548743102,-16256,9.96689147762109,64,3.41463414634146,-56,-3.90243902439024,43,-2.6219512195122,6,-0.0260869565217391,-46,-0.2,137,-0.668292682926829,
5400694,3515.625,-3792,2.32495401594114,1040,0.637645616186389,-16208,9.93746167995095,-12,3.90243902439024,-64,0.731707317073171,47,-2.86585365853659,4,-0.0173913043478261,-46,-0.2,137,-0.668292682926829,
5401334,3535.15625,-3664,2.24647455548743,1152,0.706315144083384,-16160,9.90803188228081,-68,4.69512195121951,-77,4.14634146341463,44,-2.68292682926829,4,-0.0173913043478261,-51,-0.221739130434783,138,-0.673170731707317,
5401974,3554.6875,-3520,2.15818516247701,1120,0.686695278969957,-16128,9.88841201716738,-107,5.24390243902439,-86,6.52439024390244,38,-2.31707317073171,4,-0.0173913043478261,-48,-0.208695652173913,136,-0.663414634146342,
5402614,3574.21875,-3104,1.90312691600245,1152,0.706315144083384,-16000,9.80993255671367,-86,5.1219512195122,-84,5.24390243902439,26,-1.58536585365854,4,-0.0173913043478261,-45,-0.195652173913043,136,-0.663414634146342,
5403254,3593.75,-3024,1.85407725321888,1200,0.735744941753525,-15968,9.79031269160024,10,4.75609756097561,-78,-0.609756097560976,17,-1.03658536585366,5,-0.0217391304347826,-50,-0.217391304347826,138,-0.673170731707317,
5403894,3613.28125,-3456,2.11894543225015,1120,0.686695278969957,-15888,9.74126302881668,56,4.20731707317073,-69,-3.41463414634146,31,-1.89024390243902,3,-0.0130434782608696,-45,-0.195652173913043,138,-0.673170731707317,
5404534,3632.8125,-3696,2.26609442060086,1072,0.657265481299816,-15808,9.69221336603311,-1,5.36585365853659,-88,0.0609756097560976,27,-1.64634146341463,4,-0.0173913043478261,-47,-0.204347826086957,137,-0.668292682926829,
5405174,3652.34375,-3744,2.295524218271,1120,0.686695278969957,-15760,9.66278356836297,-97,5.73170731707317,-94,5.91463414634146,17,-1.03658536585366,4,-0.0173913043478261,-47,-0.204347826086957,136,-0.663414634146342,
5405814,3671.875,-3312,2.03065603923973,1088,0.66707541385653,-15680,9.6137339055794,-160,5.91463414634146,-97,9.75609756097561,10,-0.609756097560976,4,-0.0173913043478261,-46,-0.2,138,-0.673170731707317,
5406454,3691.40625,-2896,1.77559779276517,1200,0.735744941753525,-15632,9.58430410790926,-125,5.36585365853659,-88,7.6219512195122,4,-0.24390243902439,3,-0.0130434782608696,-48,-0.208695652173913,137,-0.668292682926829,
5407094,3710.9375,-2768,1.69711833231147,1328,0.814224402207235,-15568,9.5450643776824,-10,4.32926829268293,-71,0.609756097560976,-1,0.0609756097560976,1,-0.00434782608695652,-46,-0.2,137,-0.668292682926829,
5407734,3730.46875,-2976,1.82464745554874,1328,0.814224402207235,-15552,9.53525444512569,82,3.23170731707317,-53,-5,-4,0.24390243902439,2,-0.00869565217391304,-43,-0.18695652173913,138,-0.673170731707317,
5408374,3750,-3392,2.0797057020233,1296,0.794604537093807,-15680,9.6137339055794,114,2.68292682926829,-44,-6.95121951219512,-9,0.548780487804878,6,-0.0260869565217391,-50,-0.217391304347826,140,-0.682926829268293,
5409014,3769.53125,-3712,2.27590435315757,1264,0.77498467198038,-15872,9.73145309625996,59,3.10975609756098,-51,-3.59756097560976,-8,0.487804878048781,3,-0.0130434782608696,-47,-0.204347826086957,136,-0.663414634146342,
5409654,3789.0625,-3744,2.295524218271,1232,0.755364806866953,-15872,9.73145309625996,-29,3.65853658536585,-60,1.76829268292683,-12,0.731707317073171,3,-0.0130434782608696,-47,-0.204347826086957,137,-0.668292682926829,
5410294,3808.59375,-3488,2.13856529736358,1280,0.784794604537094,-15936,9.77069282648682,-77,3.71951219512195,-61,4.69512195121951,-21,1.28048780487805,2,-0.00869565217391304,-50,-0.217391304347826,138,-0.673170731707317,
5410934,3828.125,-3216,1.97179644389945,1264,0.77498467198038,-15920,9.7608828939301,-49,3.10975609756098,-51,2.98780487804878,-16,0.975609756097561,3,-0.0130434782608696,-50,-0.217391304347826,138,-0.673170731707317,
5411574,3847.65625,-3216,1.97179644389945,1216,0.745554874310239,-15856,9.72164316370325,33,2.6219512195122,-43,-2.01219512195122,-4,0.24390243902439,1,-0.00434782608695652,-44,-0.191304347826087,137,-0.668292682926829,
5412214,3867.1875,-3408,2.08951563458001,1120,0.686695278969957,-15856,9.72164316370325,55,2.4390243902439,-40,-3.35365853658537,-2,0.121951219512195,5,-0.0217391304347826,-50,-0.217391304347826,137,-0.668292682926829,
5412854,3886.71875,-3616,2.21704475781729,1136,0.696505211526671,-15808,9.69221336603311,7,3.29268292682927,-54,-0.426829268292683,-15,0.914634146341463,4,-0.0173913043478261,-46,-0.2,137,-0.668292682926829,
5413494,3906.25,-3616,2.21704475781729,1184,0.725935009196812,-15808,9.69221336603311,-94,3.78048780487805,-62,5.73170731707317,-24,1.46341463414634,3,-0.0130434782608696,-46,-0.2,139,-0.678048780487805,
5414134,3925.78125,-3296,2.02084610668302,1216,0.745554874310239,-15856,9.72164316370325,-142,3.41463414634146,-56,8.65853658536586,-30,1.82926829268293,2,-0.00869565217391304,-46,-0.2,138,-0.673170731707317,
5414774,3945.3125,-3056,1.87369711833231,1168,0.716125076640098,-15888,9.74126302881668,-96,3.29268292682927,-54,5.85365853658537,-35,2.13414634146341,4,-0.0173913043478261,-51,-0.221739130434783,140,-0.682926829268293,
5415414,3964.84375,-3200,1.96198651134273,1216,0.745554874310239,-15904,9.75107296137339,-27,2.92682926829268,-48,1.64634146341463,-32,1.95121951219512,4,-0.0173913043478261,-48,-0.208695652173913,140,-0.682926829268293,
5416054,3984.375,-3216,1.97179644389945,1312,0.804414469650521,-15808,9.69221336603311,28,2.80487804878049,-46,-1.70731707317073,-29,1.76829268292683,2,-0.00869565217391304,-47,-0.204347826086957,138,-0.673170731707317,
5416694,4003.90625,-3408,2.08951563458001,1264,0.77498467198038,-15776,9.67259350091968,50,2.07317073170732,-34,-3.04878048780488,-15,0.914634146341463,4,-0.0173913043478261,-48,-0.208695652173913,139,-0.678048780487805,
5417334,4023.4375,-3552,2.17780502759044,1248,0.765174739423666,-15856,9.72164316370325,33,2.13414634146341,-35,-2.01219512195122,-8,0.487804878048781,5,-0.0217391304347826,-45,-0.195652173913043,137,-0.668292682926829,
5417974,4042.96875,-3552,2.17780502759044,1232,0.755364806866953,-15856,9.72164316370325,-13,2.4390243902439,-40,0.792682926829268,-7,0.426829268292683,5,-0.0217391304347826,-47,-0.204347826086957,138,-0.673170731707317,
5418614,4062.5,-3392,2.0797057020233,1232,0.755364806866953,-15888,9.74126302881668,-44,3.10975609756098,-51,2.68292682926829,-17,1.03658536585366,4,-0.0173913043478261,-47,-0.204347826086957,140,-0.682926829268293,
5419254,4082.03125,-3248,1.99141630901288,1216,0.745554874310239,-15936,9.77069282648682,-13,3.04878048780488,-50,0.792682926829268,-20,1.21951219512195,2,-0.00869565217391304,-49,-0.21304347826087,139,-0.678048780487805,
5419894,4101.5625,-3328,2.04046597179644,1200,0.735744941753525,-15920,9.7608828939301,55,2.98780487804878,-49,-3.35365853658537,-9,0.548780487804878,3,-0.0130434782608696,-48,-0.208695652173913,138,-0.673170731707317,
5420534,4121.09375,-3632,2.226854690374,1200,0.735744941753525,-15904,9.75107296137339,55,3.04878048780488,-50,-3.35365853658537,-3,0.182926829268293,0,0,-44,-0.191304347826087,137,-0.668292682926829,
5421174,4140.625,-3696,2.26609442060086,1200,0.735744941753525,-16064,9.84917228694053,-10,3.65853658536585,-60,0.609756097560976,-4,0.24390243902439,3,-0.0130434782608696,-50,-0.217391304347826,139,-0.678048780487805,
5421814,4160.15625,-3440,2.10913549969344,1232,0.755364806866953,-16128,9.88841201716738,-70,3.90243902439024,-64,4.26829268292683,-11,0.670731707317073,4,-0.0173913043478261,-49,-0.21304347826087,139,-0.678048780487805,
5422454,4179.6875,-3264,2.00122624156959,1248,0.765174739423666,-16080,9.85898221949724,-67,4.32926829268293,-71,4.08536585365854,-17,1.03658536585366,2,-0.00869565217391304,-49,-0.21304347826087,137,-0.668292682926829,
5423094,4199.21875,-3104,1.90312691600245,1184,0.725935009196812,-15920,9.7608828939301,-38,4.26829268292683,-70,2.31707317073171,-22,1.34146341463415,4,-0.0173913043478261,-46,-0.2,137,-0.668292682926829,
5423734,4218.75,-3008,1.84426732066217,1264,0.77498467198038,-15856,9.72164316370325,2,4.14634146341463,-68,-0.121951219512195,-23,1.40243902439024,2,-0.00869565217391304,-46,-0.2,138,-0.673170731707317,
5424374,4238.28125,-3104,1.90312691600245,1232,0.755364806866953,-15888,9.74126302881668,39,3.59756097560976,-59,-2.37804878048781,-21,1.28048780487805,1,-0.00434782608695652,-47,-0.204347826086957,139,-0.678048780487805,
5425014,4257.8125,-3488,2.13856529736358,1232,0.755364806866953,-15824,9.70202329858982,71,3.41463414634146,-56,-4.32926829268293,-18,1.09756097560976,4,-0.0173913043478261,-43,-0.18695652173913,137,-0.668292682926829,
5425654,4277.34375,-3664,2.24647455548743,1264,0.77498467198038,-15760,9.66278356836297,23,3.59756097560976,-59,-1.40243902439024,-21,1.28048780487805,3,-0.0130434782608696,-51,-0.221739130434783,139,-0.678048780487805,
5426294,4296.875,-3520,2.15818516247701,1344,0.824034334763949,-15840,9.71183323114654,-41,4.08536585365854,-67,2.5,-22,1.34146341463415,5,-0.0217391304347826,-46,-0.2,138,-0.673170731707317,
5426934,4316.40625,-3440,2.10913549969344,1312,0.804414469650521,-15856,9.72164316370325,-43,3.71951219512195,-61,2.6219512195122,-13,0.792682926829268,2,-0.00869565217391304,-45,-0.195652173913043,137,-0.668292682926829,
5427574,4335.9375,-3248,1.99141630901288,1280,0.784794604537094,-15856,9.72164316370325,6,3.47560975609756,-57,-0.365853658536585,-8,0.487804878048781,4,-0.0173913043478261,-49,-0.21304347826087,139,-0.678048780487805,
5428214,4355.46875,-3312,2.03065603923973,1280,0.784794604537094,-15808,9.69221336603311,49,3.04878048780488,-50,-2.98780487804878,-5,0.304878048780488,3,-0.0130434782608696,-47,-0.204347826086957,136,-0.663414634146342,
5428854,4375,-3408,2.08951563458001,1296,0.794604537093807,-15760,9.66278356836297,37,2.98780487804878,-49,-2.25609756097561,-8,0.487804878048781,1,-0.00434782608695652,-43,-0.18695652173913,138,-0.673170731707317,
5429494,4394.53125,-3280,2.0110361741263,1280,0.784794604537094,-15760,9.66278356836297,22,2.68292682926829,-44,-1.34146341463415,-14,0.853658536585366,5,-0.0217391304347826,-50,-0.217391304347826,138,-0.673170731707317,
5430134,4414.0625,-3248,1.99141630901288,1296,0.794604537093807,-15856,9.72164316370325,39,2.6219512195122,-43,-2.37804878048781,-12,0.731707317073171,4,-0.0173913043478261,-51,-0.221739130434783,139,-0.678048780487805,
5430774,4433.59375,-3312,2.03065603923973,1296,0.794604537093807,-15936,9.77069282648682,81,2.37804878048781,-39,-4.9390243902439,-6,0.365853658536585,3,-0.0130434782608696,-46,-0.2,137,-0.668292682926829,
5431414,4453.125,-3440,2.10913549969344,1264,0.77498467198038,-16016,9.81974248927039,109,2.5609756097561,-42,-6.64634146341464,-5,0.304878048780488,3,-0.0130434782608696,-45,-0.195652173913043,135,-0.658536585365854,
5432054,4472.65625,-3760,2.30533415082771,1296,0.794604537093807,-16064,9.84917228694053,82,2.80487804878049,-46,-5,-11,0.670731707317073,4,-0.0173913043478261,-49,-0.21304347826087,137,-0.668292682926829,
5432694,4492.1875,-3808,2.33476394849785,1216,0.745554874310239,-15984,9.80012262415696,-22,3.29268292682927,-54,1.34146341463415,-16,0.975609756097561,4,-0.0173913043478261,-46,-0.2,136,-0.663414634146342,
5433334,4511.71875,-3408,2.08951563458001,1280,0.784794604537094,-15952,9.78050275904353,-126,3.78048780487805,-62,7.68292682926829,-22,1.34146341463415,4,-0.0173913043478261,-44,-0.191304347826087,137,-0.668292682926829,
5433974,4531.25,-3200,1.96198651134273,1328,0.814224402207235,-16016,9.81974248927039,-95,3.78048780487805,-62,5.79268292682927,-20,1.21951219512195,4,-0.0173913043478261,-43,-0.18695652173913,136,-0.663414634146342,
5434614,4550.78125,-3312,2.03065603923973,1280,0.784794604537094,-16144,9.89822194972409,-19,3.47560975609756,-57,1.15853658536585,-16,0.975609756097561,5,-0.0217391304347826,-50,-0.217391304347826,139,-0.678048780487805,
5435254,4570.3125,-3536,2.16799509503372,1296,0.794604537093807,-16016,9.81974248927039,19,3.84146341463415,-63,-1.15853658536585,-12,0.731707317073171,1,-0.00434782608695652,-45,-0.195652173913043,137,-0.668292682926829,
5435894,4589.84375,-3536,2.16799509503372,1280,0.784794604537094,-16016,9.81974248927039,19,4.14634146341463,-68,-1.15853658536585,-17,1.03658536585366,5,-0.0217391304347826,-48,-0.208695652173913,137,-0.668292682926829,
5436534,4609.375,-3536,2.16799509503372,1184,0.725935009196812,-15856,9.72164316370325,8,4.26829268292683,-70,-0.487804878048781,-10,0.609756097560976,3,-0.0130434782608696,-51,-0.221739130434783,138,-0.673170731707317,
5437174,4628.90625,-3472,2.12875536480687,1408,0.863274064990803,-15824,9.70202329858982,1,4.32926829268293,-71,-0.0609756097560976,-13,0.792682926829268,3,-0.0130434782608696,-50,-0.217391304347826,139,-0.678048780487805,
5437814,4648.4375,-3568,2.18761496014715,1360,0.833844267320662,-15728,9.64316370324954,-11,4.20731707317073,-69,0.670731707317073,-11,0.670731707317073,6,-0.0260869565217391,-48,-0.208695652173913,138,-0.673170731707317,
5438454,4667.96875,-3424,2.09932556713673,1328,0.814224402207235,-15632,9.58430410790926,-32,3.90243902439024,-64,1.95121951219512,-8,0.487804878048781,2,-0.00869565217391304,-44,-0.191304347826087,137,-0.668292682926829,
5439094,4687.5,-3216,1.97179644389945,1312,0.804414469650521,-15680,9.6137339055794,-22,3.17073170731707,-52,1.34146341463415,-5,0.304878048780488,3,-0.0130434782608696,-50,-0.217391304347826,138,-0.673170731707317,
5439734,4707.03125,-3264,2.00122624156959,1296,0.794604537093807,-15744,9.65297363580625,30,2.5,-41,-1.82926829268293,0,0,4,-0.0173913043478261,-50,-0.217391304347826,139,-0.678048780487805,
5440374,4726.5625,-3456,2.11894543225015,1296,0.794604537093807,-15840,9.71183323114654,78,2.07317073170732,-34,-4.75609756097561,-6,0.365853658536585,5,-0.0217391304347826,-47,-0.204347826086957,137,-0.668292682926829,
5441014,4746.09375,-3552,2.17780502759044,1264,0.77498467198038,-15776,9.67259350091968,83,2.07317073170732,-34,-5.0609756097561,-4,0.24390243902439,6,-0.0260869565217391,-51,-0.221739130434783,137,-0.668292682926829,
5441654,4765.625,-3712,2.27590435315757,1280,0.784794604537094,-15872,9.73145309625996,56,2.37804878048781,-39,-3.41463414634146,-8,0.487804878048781,3,-0.0130434782608696,-45,-0.195652173913043,137,-0.668292682926829,
5442294,4785.15625,-3648,2.23666462293072,1264,0.77498467198038,-15856,9.72164316370325,-11,3.10975609756098,-51,0.670731707317073,-14,0.853658536585366,3,-0.0130434782608696,-47,-0.204347826086957,137,-0.668292682926829,
5442934,4804.6875,-3440,2.10913549969344,1392,0.853464132434089,-15904,9.75107296137339,-81,2.98780487804878,-49,4.9390243902439,-14,0.853658536585366,4,-0.0173913043478261,-51,-0.221739130434783,139,-0.678048780487805,
5443574,4824.21875,-3232,1.98160637645616,1408,0.863274064990803,-15888,9.74126302881668,-66,3.04878048780488,-50,4.02439024390244,-17,1.03658536585366,4,-0.0173913043478261,-48,-0.208695652173913,138,-0.673170731707317,
5444214,4843.75,-3456,2.11894543225015,1360,0.833844267320662,-15856,9.72164316370325,12,2.31707317073171,-38,-0.731707317073171,-9,0.548780487804878,2,-0.00869565217391304,-46,-0.2,137,-0.668292682926829,
5444854,4863.28125,-3648,2.23666462293072,1424,0.873083997547517,-15888,9.74126302881668,43,2.31707317073171,-38,-2.6219512195122,-8,0.487804878048781,2,-0.00869565217391304,-45,-0.195652173913043,136,-0.663414634146342,
5445494,4882.8125,-3680,2.25628448804414,1360,0.833844267320662,-15840,9.71183323114654,21,2.86585365853659,-47,-1.28048780487805,-12,0.731707317073171,3,-0.0130434782608696,-45,-0.195652173913043,136,-0.663414634146342,
5446134,4902.34375,-3520,2.15818516247701,1280,0.784794604537094,-15904,9.75107296137339,-1,3.04878048780488,-50,0.0609756097560976,-11,0.670731707317073,2,-0.00869565217391304,-46,-0.2,135,-0.658536585365854,
5446774,4921.875,-3456,2.11894543225015,1312,0.804414469650521,-16000,9.80993255671367,7,2.92682926829268,-48,-0.426829268292683,-7,0.426829268292683,2,-0.00869565217391304,-42,-0.182608695652174,137,-0.668292682926829,
5447414,4941.40625,-3552,2.17780502759044,1344,0.824034334763949,-15936,9.77069282648682,27,2.68292682926829,-44,-1.64634146341463,-6,0.365853658536585,5,-0.0217391304347826,-50,-0.217391304347826,138,-0.673170731707317,
5448054,4960.9375,-3664,2.24647455548743,1328,0.814224402207235,-15936,9.77069282648682,-24,3.29268292682927,-54,1.46341463414634,-4,0.24390243902439,3,-0.0130434782608696,-47,-0.204347826086957,139,-0.678048780487805,
5448694,4980.46875,-3632,2.226854690374,1376,0.843654199877376,-15840,9.71183323114654,-46,3.35365853658537,-55,2.80487804878049,-4,0.24390243902439,2,-0.00869565217391304,-47,-0.204347826086957,137,-0.668292682926829,
5449334,5000,-3360,2.06008583690987,1296,0.794604537093807,-15808,9.69221336603311,-10,3.41463414634146,-56,0.609756097560976,-8,0.487804878048781,5,-0.0217391304347826,-51,-0.221739130434783,138,-0.673170731707317,
5449974,5019.53125,-3328,2.04046597179644,1376,0.843654199877376,-15760,9.66278356836297,40,2.86585365853659,-47,-2.4390243902439,-9,0.548780487804878,5,-0.0217391304347826,-46,-0.2,135,-0.658536585365854,
5450614,5039.0625,-3408,2.08951563458001,1360,0.833844267320662,-15776,9.67259350091968,35,2.4390243902439,-40,-2.13414634146341,-8,0.487804878048781,4,-0.0173913043478261,-46,-0.2,139,-0.678048780487805,
5451254,5058.59375,-3664,2.24647455548743,1248,0.765174739423666,-15776,9.67259350091968,14,2.86585365853659,-47,-0.853658536585366,-8,0.487804878048781,4,-0.0173913043478261,-47,-0.204347826086957,138,-0.673170731707317,
5451894,5078.125,-3648,2.23666462293072,1248,0.765174739423666,-15760,9.66278356836297,-18,2.92682926829268,-48,1.09756097560976,-14,0.853658536585366,5,-0.0217391304347826,-49,-0.21304347826087,138,-0.673170731707317,
5452534,5097.65625,-3552,2.17780502759044,1184,0.725935009196812,-15776,9.67259350091968,-51,2.92682926829268,-48,3.10975609756098,-17,1.03658536585366,4,-0.0173913043478261,-48,-0.208695652173913,138,-0.673170731707317,
5453174,5117.1875,-3440,2.10913549969344,1248,0.765174739423666,-15776,9.67259350091968,-46,2.92682926829268,-48,2.80487804878049,-20,1.21951219512195,4,-0.0173913043478261,-49,-0.21304347826087,136,-0.663414634146342,
5453814,5136.71875,-3184,1.95217657878602,1248,0.765174739423666,-15744,9.65297363580625,16,2.25609756097561,-37,-0.975609756097561,-18,1.09756097560976,5,-0.0217391304347826,-48,-0.208695652173913,136,-0.663414634146342,
5454454,5156.25,-3312,2.03065603923973,1232,0.755364806866953,-15712,9.63335377069283,46,2.25609756097561,-37,-2.80487804878049,-22,1.34146341463415,5,-0.0217391304347826,-50,-0.217391304347826,139,-0.678048780487805,
5455094,5175.78125,-3648,2.23666462293072,1248,0.765174739423666,-15760,9.66278356836297,-22,2.5609756097561,-42,1.34146341463415,-30,1.82926829268293,5,-0.0217391304347826,-46,-0.2,136,-0.663414634146342,
5455734,5195.3125,-3616,2.21704475781729,1280,0.784794604537094,-15808,9.69221336603311,-102,3.04878048780488,-50,6.21951219512195,-34,2.07317073170732,2,-0.00869565217391304,-46,-0.2,137,-0.668292682926829,
5456374,5214.84375,-3408,2.08951563458001,1312,0.804414469650521,-15760,9.66278356836297,-77,2.6219512195122,-43,4.69512195121951,-26,1.58536585365854,1,-0.00434782608695652,-51,-0.221739130434783,138,-0.673170731707317,
5457014,5234.375,-3248,1.99141630901288,1328,0.814224402207235,-15888,9.74126302881668,3,1.58536585365854,-26,-0.182926829268293,-16,0.975609756097561,3,-0.0130434782608696,-50,-0.217391304347826,139,-0.678048780487805,
5457654,5253.90625,-3344,2.05027590435316,1312,0.804414469650521,-15872,9.73145309625996,52,1.64634146341463,-27,-3.17073170731707,-13,0.792682926829268,4,-0.0173913043478261,-49,-0.21304347826087,137,-0.668292682926829,
5458294,5273.4375,-3520,2.15818516247701,1232,0.755364806866953,-15936,9.77069282648682,58,2.13414634146341,-35,-3.53658536585366,-21,1.28048780487805,3,-0.0130434782608696,-47,-0.204347826086957,136,-0.663414634146342,
5458934,5292.96875,-3744,2.295524218271,1264,0.77498467198038,-15872,9.73145309625996,6,2.5609756097561,-42,-0.365853658536585,-26,1.58536585365854,3,-0.0130434782608696,-47,-0.204347826086957,137,-0.668292682926829,
5459574,5312.5,-3792,2.32495401594114,1248,0.765174739423666,-15824,9.70202329858982,-41,2.98780487804878,-49,2.5,-15,0.914634146341463,3,-0.0130434782608696,-44,-0.191304347826087,138,-0.673170731707317,
5460214,5332.03125,-3552,2.17780502759044,1216,0.745554874310239,-15936,9.77069282648682,-29,2.4390243902439,-40,1.76829268292683,-2,0.121951219512195,5,-0.0217391304347826,-50,-0.217391304347826,137,-0.668292682926829,
5460854,5351.5625,-3488,2.13856529736358,1216,0.745554874310239,-16000,9.80993255671367,15,2.13414634146341,-35,-0.914634146341463,10,-0.609756097560976,6,-0.0260869565217391,-50,-0.217391304347826,137,-0.668292682926829,
5461494,5371.09375,-3648,2.23666462293072,1088,0.66707541385653,-16016,9.81974248927039,25,2.19512195121951,-36,-1.52439024390244,11,-0.670731707317073,3,-0.0130434782608696,-45,-0.195652173913043,138,-0.673170731707317,
5462134,5390.625,-3760,2.30533415082771,1104,0.676885346413243,-16000,9.80993255671367,-15,3.10975609756098,-51,0.914634146341463,6,-0.365853658536585,3,-0.0130434782608696,-47,-0.204347826086957,137,-0.668292682926829,
5462774,5410.15625,-3600,2.20723482526058,1072,0.657265481299816,-15952,9.78050275904353,-49,3.84146341463415,-63,2.98780487804878,3,-0.182926829268293,4,-0.0173913043478261,-45,-0.195652173913043,139,-0.678048780487805,
5463414,5429.6875,-3392,2.0797057020233,1088,0.66707541385653,-16032,9.8295524218271,-28,3.78048780487805,-62,1.70731707317073,9,-0.548780487804878,2,-0.00869565217391304,-44,-0.191304347826087,134,-0.653658536585366,
5464054,5449.21875,-3392,2.0797057020233,1168,0.716125076640098,-15952,9.78050275904353,11,3.47560975609756,-57,-0.670731707317073,11,-0.670731707317073,5,-0.0217391304347826,-47,-0.204347826086957,137,-0.668292682926829,
5464694,5468.75,-3584,2.19742489270386,1184,0.725935009196812,-15952,9.78050275904353,5,3.65853658536585,-60,-0.304878048780488,13,-0.792682926829268,6,-0.0260869565217391,-47,-0.204347826086957,138,-0.673170731707317,
5465334,5488.28125,-3616,2.21704475781729,1216,0.745554874310239,-15872,9.73145309625996,-24,3.90243902439024,-64,1.46341463414634,14,-0.853658536585366,4,-0.0173913043478261,-49,-0.21304347826087,138,-0.673170731707317,
5465974,5507.8125,-3488,2.13856529736358,1280,0.784794604537094,-15904,9.75107296137339,-20,3.96341463414634,-65,1.21951219512195,18,-1.09756097560976,2,-0.00869565217391304,-50,-0.217391304347826,138,-0.673170731707317,
5466614,5527.34375,-3408,2.08951563458001,1280,0.784794604537094,-15920,9.7608828939301,25,3.84146341463415,-63,-1.52439024390244,22,-1.34146341463415,3,-0.0130434782608696,-44,-0.191304347826087,136,-0.663414634146342,
5467254,5546.875,-3440,2.10913549969344,1312,0.804414469650521,-15904,9.75107296137339,50,3.41463414634146,-56,-3.04878048780488,28,-1.70731707317073,5,-0.0217391304347826,-50,-0.217391304347826,137,-0.668292682926829,
5467894,5566.40625,-3552,2.17780502759044,1296,0.794604537093807,-15920,9.7608828939301,18,3.53658536585366,-58,-1.09756097560976,29,-1.76829268292683,3,-0.0130434782608696,-45,-0.195652173913043,139,-0.678048780487805,
5468534,5585.9375,-3472,2.12875536480687,1312,0.804414469650521,-15808,9.69221336603311,-11,3.84146341463415,-63,0.670731707317073,26,-1.58536585365854,3,-0.0130434782608696,-47,-0.204347826086957,138,-0.673170731707317,
5469174,5605.46875,-3472,2.12875536480687,1264,0.77498467198038,-15744,9.65297363580625,-17,3.53658536585366,-58,1.03658536585366,29,-1.76829268292683,2,-0.00869565217391304,-50,-0.217391304347826,137,-0.668292682926829,
5469814,5625,-3360,2.06008583690987,1280,0.784794604537094,-15760,9.66278356836297,-17,3.59756097560976,-59,1.03658536585366,23,-1.40243902439024,2,-0.00869565217391304,-40,-0.173913043478261,136,-0.663414634146342,
5470454,5644.53125,-3392,2.0797057020233,1376,0.843654199877376,-15776,9.67259350091968,1,3.17073170731707,-52,-0.0609756097560976,27,-1.64634146341463,3,-0.0130434782608696,-45,-0.195652173913043,137,-0.668292682926829,
5471094,5664.0625,-3344,2.05027590435316,1408,0.863274064990803,-15888,9.74126302881668,24,3.17073170731707,-52,-1.46341463414634,27,-1.64634146341463,3,-0.0130434782608696,-44,-0.191304347826087,139,-0.678048780487805,
5471734,5683.59375,-3392,2.0797057020233,1440,0.88289393010423,-15888,9.74126302881668,20,3.29268292682927,-54,-1.21951219512195,31,-1.89024390243902,1,-0.00434782608695652,-44,-0.191304347826087,136,-0.663414634146342,
5472374,5703.125,-3456,2.11894543225015,1328,0.814224402207235,-15872,9.73145309625996,-6,3.53658536585366,-58,0.365853658536585,21,-1.28048780487805,2,-0.00869565217391304,-44,-0.191304347826087,138,-0.673170731707317,
5473014,5722.65625,-3360,2.06008583690987,1472,0.902513795217658,-15936,9.77069282648682,-20,2.92682926829268,-48,1.21951219512195,13,-0.792682926829268,2,-0.00869565217391304,-46,-0.2,137,-0.668292682926829,
5473654,5742.1875,-3200,1.96198651134273,1408,0.863274064990803,-15888,9.74126302881668,18,2.98780487804878,-49,-1.09756097560976,12,-0.731707317073171,5,-0.0217391304347826,-49,-0.21304347826087,137,-0.668292682926829,
5474294,5761.71875,-3184,1.95217657878602,1392,0.853464132434089,-15872,9.73145309625996,47,2.74390243902439,-45,-2.86585365853659,14,-0.853658536585366,3,-0.0130434782608696,-46,-0.2,136,-0.663414634146342,
5474934,5781.25,-3392,2.0797057020233,1376,0.843654199877376,-15920,9.7608828939301,20,3.59756097560976,-59,-1.21951219512195,7,-0.426829268292683,3,-0.0130434782608696,-50,-0.217391304347826,138,-0.673170731707317,
5475574,5800.78125,-3472,2.12875536480687,1312,0.804414469650521,-15936,9.77069282648682,-26,3.78048780487805,-62,1.58536585365854,-3,0.182926829268293,2,-0.00869565217391304,-44,-0.191304347826087,137,-0.668292682926829,
5476214,5820.3125,-3296,2.02084610668302,1328,0.814224402207235,-15824,9.70202329858982,-35,3.59756097560976,-59,2.13414634146341,-6,0.365853658536585,2,-0.00869565217391304,-49,-0.21304347826087,137,-0.668292682926829,
5476854,5839.84375,-3200,1.96198651134273,1392,0.853464132434089,-15808,9.69221336603311,-18,3.29268292682927,-54,1.09756097560976,-10,0.609756097560976,5,-0.0217391304347826,-50,-0.217391304347826,138,-0.673170731707317,
5477494,5859.375,-3104,1.90312691600245,1344,0.824034334763949,-15728,9.64316370324954,16,3.17073170731707,-52,-0.975609756097561,-14,0.853658536585366,5,-0.0217391304347826,-48,-0.208695652173913,138,-0.673170731707317,
5478134,5878.90625,-3152,1.93255671367259,1376,0.843654199877376,-15712,9.63335377069283,40,2.86585365853659,-47,-2.4390243902439,-22,1.34146341463415,4,-0.0173913043478261,-46,-0.2,137,-0.668292682926829,
5478774,5898.4375,-3408,2.08951563458001,1360,0.833844267320662,-15696,9.62354383813611,5,3.35365853658537,-55,-0.304878048780488,-29,1.76829268292683,3,-0.0130434782608696,-47,-0.204347826086957,138,-0.673170731707317,
5479414,5917.96875,-3552,2.17780502759044,1456,0.892703862660944,-15632,9.58430410790926,-48,3.10975609756098,-51,2.92682926829268,-33,2.01219512195122,4,-0.0173913043478261,-46,-0.2,138,-0.673170731707317,
5480054,5937.5,-3440,2.10913549969344,1440,0.88289393010423,-15824,9.70202329858982,-40,2.68292682926829,-44,2.4390243902439,-37,2.25609756097561,4,-0.0173913043478261,-49,-0.21304347826087,139,-0.678048780487805,
5480694,5957.03125,-3280,2.0110361741263,1424,0.873083997547517,-15776,9.67259350091968,5,2.31707317073171,-38,-0.304878048780488,-23,1.40243902439024,3,-0.0130434782608696,-43,-0.18695652173913,136,-0.663414634146342,
5481334,5976.5625,-3504,2.14837522992029,1408,0.863274064990803,-15792,9.6824034334764,23,2.25609756097561,-37,-1.40243902439024,-22,1.34146341463415,5,-0.0217391304347826,-46,-0.2,138,-0.673170731707317,
5481974,5996.09375,-3616,2.21704475781729,1456,0.892703862660944,-15824,9.70202329858982,-9,2.13414634146341,-35,0.548780487804878,-14,0.853658536585366,2,-0.00869565217391304,-45,-0.195652173913043,137,-0.668292682926829,
5482614,6015.625,-3552,2.17780502759044,1392,0.853464132434089,-15904,9.75107296137339,-17,2.07317073170732,-34,1.03658536585366,-10,0.609756097560976,2,-0.00869565217391304,-46,-0.2,137,-0.668292682926829,
5483254,6035.15625,-3472,2.12875536480687,1360,0.833844267320662,-16016,9.81974248927039,5,1.89024390243902,-31,-0.304878048780488,-10,0.609756097560976,5,-0.0217391304347826,-49,-0.21304347826087,138,-0.673170731707317,
5483894,6054.6875,-3504,2.14837522992029,1296,0.794604537093807,-15968,9.79031269160024,11,2.25609756097561,-37,-0.670731707317073,-10,0.609756097560976,4,-0.0173913043478261,-47,-0.204347826086957,137,-0.668292682926829,
5484534,6074.21875,-3520,2.15818516247701,1216,0.745554874310239,-16048,9.83936235438381,-13,2.6219512195122,-43,0.792682926829268,-6,0.365853658536585,3,-0.0130434782608696,-43,-0.18695652173913,137,-0.668292682926829,
5485174,6093.75,-3440,2.10913549969344,1280,0.784794604537094,-16000,9.80993255671367,-7,2.74390243902439,-45,0.426829268292683,-12,0.731707317073171,3,-0.0130434782608696,-49,-0.21304347826087,137,-0.668292682926829,
5485814,6113.28125,-3360,2.06008583690987,1136,0.696505211526671,-16016,9.81974248927039,17,2.92682926829268,-48,-1.03658536585366,-15,0.914634146341463,3,-0.0130434782608696,-51,-0.221739130434783,139,-0.678048780487805,
5486454,6132.8125,-3488,2.13856529736358,1088,0.66707541385653,-15952,9.78050275904353,2,3.35365853658537,-55,-0.121951219512195,-18,1.09756097560976,5,-0.0217391304347826,-48,-0.208695652173913,139,-0.678048780487805,
5487094,6152.34375,-3552,2.17780502759044,1152,0.706315144083384,-15984,9.80012262415696,-36,3.96341463414634,-65,2.19512195121951,-22,1.34146341463415,3,-0.0130434782608696,-47,-0.204347826086957,135,-0.658536585365854,
5487734,6171.875,-3504,2.14837522992029,1232,0.755364806866953,-16016,9.81974248927039,-24,4.20731707317073,-69,1.46341463414634,-14,0.853658536585366,5,-0.0217391304347826,-50,-0.217391304347826,139,-0.678048780487805,
5488374,6191.40625,-3296,2.02084610668302,1312,0.804414469650521,-15920,9.7608828939301,8,4.08536585365854,-67,-0.487804878048781,-21,1.28048780487805,4,-0.0173913043478261,-48,-0.208695652173913,139,-0.678048780487805,
5489014,6210.9375,-3456,2.11894543225015,1248,0.765174739423666,-15872,9.73145309625996,20,3.71951219512195,-61,-1.21951219512195,-6,0.365853658536585,3,-0.0130434782608696,-47,-0.204347826086957,138,-0.673170731707317,
5489654,6230.46875,-3488,2.13856529736358,1328,0.814224402207235,-15856,9.72164316370325,0,3.41463414634146,-56,0,-6,0.365853658536585,5,-0.0217391304347826,-49,-0.21304347826087,138,-0.673170731707317,
5490294,6250,-3472,2.12875536480687,1296,0.794604537093807,-15824,9.70202329858982,2,3.17073170731707,-52,-0.121951219512195,-2,0.121951219512195,5,-0.0217391304347826,-51,-0.221739130434783,139,-0.678048780487805,
5490934,6269.53125,-3440,2.10913549969344,1328,0.814224402207235,-15888,9.74126302881668,6,3.41463414634146,-56,-0.365853658536585,-7,0.426829268292683,3,-0.0130434782608696,-46,-0.2,137,-0.668292682926829,
5491574,6289.0625,-3504,2.14837522992029,1312,0.804414469650521,-15824,9.70202329858982,-8,3.53658536585366,-58,0.487804878048781,-4,0.24390243902439,4,-0.0173913043478261,-47,-0.204347826086957,138,-0.673170731707317,
5492214,6308.59375,-3568,2.18761496014715,1280,0.784794604537094,-15920,9.7608828939301,-20,4.08536585365854,-67,1.21951219512195,-7,0.426829268292683,4,-0.0173913043478261,-47,-0.204347826086957,138,-0.673170731707317,
5492854,6328.125,-3440,2.10913549969344,1344,0.824034334763949,-15808,9.69221336603311,-18,3.84146341463415,-63,1.09756097560976,-6,0.365853658536585,5,-0.0217391304347826,-47,-0.204347826086957,138,-0.673170731707317,
5493494,6347.65625,-3440,2.10913549969344,1312,0.804414469650521,-15888,9.74126302881668,11,3.10975609756098,-51,-0.670731707317073,-3,0.182926829268293,5,-0.0217391304347826,-48,-0.208695652173913,137,-0.668292682926829,
5494134,6367.1875,-3376,2.06989576946658,1248,0.765174739423666,-15920,9.7608828939301,31,2.86585365853659,-47,-1.89024390243902,4,-0.24390243902439,2,-0.00869565217391304,-47,-0.204347826086957,137,-0.668292682926829,
5494774,6386.71875,-3568,2.18761496014715,1280,0.784794604537094,-15904,9.75107296137339,21,3.17073170731707,-52,-1.28048780487805,3,-0.182926829268293,3,-0.0130434782608696,-48,-0.208695652173913,137,-0.668292682926829,
5495414,6406.25,-3600,2.20723482526058,1264,0.77498467198038,-15952,9.78050275904353,-13,3.59756097560976,-59,0.792682926829268,-1,0.0609756097560976,6,-0.0260869565217391,-51,-0.221739130434783,138,-0.673170731707317,
5496054,6425.78125,-3504,2.14837522992029,1264,0.77498467198038,-15904,9.75107296137339,-23,3.71951219512195,-61,1.40243902439024,-3,0.182926829268293,6,-0.0260869565217391,-51,-0.221739130434783,137,-0.668292682926829,
5496694,6445.3125,-3344,2.05027590435316,1248,0.765174739423666,-15920,9.7608828939301,5,3.29268292682927,-54,-0.304878048780488,-6,0.365853658536585,2,-0.00869565217391304,-46,-0.2,138,-0.673170731707317,
5497334,6464.84375,-3248,1.99141630901288,1312,0.804414469650521,-15888,9.74126302881668,62,3.35365853658537,-55,-3.78048780487805,-4,0.24390243902439,4,-0.0173913043478261,-47,-0.204347826086957,139,-0.678048780487805,
5497974,6484.375,-3344,2.05027590435316,1376,0.843654199877376,-16048,9.83936235438381,96,3.47560975609756,-57,-5.85365853658537,-11,0.670731707317073,3,-0.0130434782608696,-46,-0.2,138,-0.673170731707317,
5498614,6503.90625,-3584,2.19742489270386,1360,0.833844267320662,-15936,9.77069282648682,90,4.08536585365854,-67,-5.48780487804878,-8,0.487804878048781,6,-0.0260869565217391,-48,-0.208695652173913,137,-0.668292682926829,
5499254,6523.4375,-3680,2.25628448804414,1296,0.794604537093807,-15984,9.80012262415696,53,4.32926829268293,-71,-3.23170731707317,-1,0.0609756097560976,2,-0.00869565217391304,-47,-0.204347826086957,136,-0.663414634146342,
5499894,6542.96875,-3712,2.27590435315757,1328,0.814224402207235,-16000,9.80993255671367,26,4.51219512195122,-74,-1.58536585365854,-1,0.0609756097560976,5,-0.0217391304347826,-48,-0.208695652173913,137,-0.668292682926829,
5500534,6562.5,-3600,2.20723482526058,1312,0.804414469650521,-15968,9.79031269160024,4,4.02439024390244,-66,-0.24390243902439,8,-0.487804878048781,5,-0.0217391304347826,-50,-0.217391304347826,136,-0.663414634146342,
5501174,6582.03125,-3504,2.14837522992029,1456,0.892703862660944,-15920,9.7608828939301,12,3.96341463414634,-65,-0.731707317073171,4,-0.24390243902439,4,-0.0173913043478261,-50,-0.217391304347826,138,-0.673170731707317,
5501814,6601.5625,-3440,2.10913549969344,1456,0.892703862660944,-15888,9.74126302881668,26,4.20731707317073,-69,-1.58536585365854,2,-0.121951219512195,4,-0.0173913043478261,-45,-0.195652173913043,137,-0.668292682926829,
5502454,6621.09375,-3472,2.12875536480687,1312,0.804414469650521,-15792,9.6824034334764,22,4.20731707317073,-69,-1.34146341463415,-9,0.548780487804878,2,-0.00869565217391304,-45,-0.195652173913043,136,-0.663414634146342,
5503094,6640.625,-3568,2.18761496014715,1392,0.853464132434089,-15760,9.66278356836297,5,4.81707317073171,-79,-0.304878048780488,-10,0.609756097560976,3,-0.0130434782608696,-52,-0.226086956521739,137,-0.668292682926829,
5503734,6660.15625,-3632,2.226854690374,1488,0.912323727774372,-15648,9.59411404046597,-27,5.0609756097561,-83,1.64634146341463,-9,0.548780487804878,4,-0.0173913043478261,-52,-0.226086956521739,138,-0.673170731707317,
5504374,6679.6875,-3488,2.13856529736358,1456,0.892703862660944,-15712,9.63335377069283,-30,4.14634146341463,-68,1.82926829268293,-10,0.609756097560976,6,-0.0260869565217391,-52,-0.226086956521739,136,-0.663414634146342,
5505014,6699.21875,-3328,2.04046597179644,1440,0.88289393010423,-15680,9.6137339055794,5,3.23170731707317,-53,-0.304878048780488,-10,0.609756097560976,7,-0.0304347826086957,-52,-0.226086956521739,138,-0.673170731707317,
5505654,6718.75,-3392,2.0797057020233,1376,0.843654199877376,-15728,9.64316370324954,49,2.5,-41,-2.98780487804878,-5,0.304878048780488,4,-0.0173913043478261,-48,-0.208695652173913,137,-0.668292682926829,
5506294,6738.28125,-3552,2.17780502759044,1264,0.77498467198038,-15808,9.69221336603311,40,2.80487804878049,-46,-2.4390243902439,-5,0.304878048780488,5,-0.0217391304347826,-48,-0.208695652173913,137,-0.668292682926829,
5506934,6757.8125,-3632,2.226854690374,1312,0.804414469650521,-15696,9.62354383813611,6,3.53658536585366,-58,-0.365853658536585,-20,1.21951219512195,6,-0.0260869565217391,-52,-0.226086956521739,137,-0.668292682926829,
5507574,6777.34375,-3616,2.21704475781729,1376,0.843654199877376,-15648,9.59411404046597,-34,3.71951219512195,-61,2.07317073170732,-29,1.76829268292683,5,-0.0217391304347826,-52,-0.226086956521739,138,-0.673170731707317,
5508214,6796.875,-3552,2.17780502759044,1440,0.88289393010423,-15776,9.67259350091968,-25,3.71951219512195,-61,1.52439024390244,-32,1.95121951219512,4,-0.0173913043478261,-48,-0.208695652173913,137,-0.668292682926829,
5508854,6816.40625,-3520,2.15818516247701,1440,0.88289393010423,-15760,9.66278356836297,13,2.6219512195122,-43,-0.792682926829268,-25,1.52439024390244,5,-0.0217391304347826,-47,-0.204347826086957,136,-0.663414634146342,
5509494,6835.9375,-3664,2.24647455548743,1456,0.892703862660944,-15728,9.64316370324954,30,2.07317073170732,-34,-1.82926829268293,-17,1.03658536585366,3,-0.0130434782608696,-48,-0.208695652173913,137,-0.668292682926829,
5510134,6855.46875,-3728,2.28571428571429,1488,0.912323727774372,-15840,9.71183323114654,10,2.07317073170732,-34,-0.609756097560976,-11,0.670731707317073,5,-0.0217391304347826,-50,-0.217391304347826,137,-0.668292682926829,
5510774,6875,-3696,2.26609442060086,1472,0.902513795217658,-15952,9.78050275904353,-8,2.5,-41,0.487804878048781,-12,0.731707317073171,6,-0.0260869565217391,-48,-0.208695652173913,136,-0.663414634146342,
5511414,6894.53125,-3600,2.20723482526058,1456,0.892703862660944,-15888,9.74126302881668,-4,2.68292682926829,-44,0.24390243902439,-16,0.975609756097561,5,-0.0217391304347826,-48,-0.208695652173913,137,-0.668292682926829,
5512054,6914.0625,-3552,2.17780502759044,1424,0.873083997547517,-15840,9.71183323114654,-3,3.17073170731707,-52,0.182926829268293,-23,1.40243902439024,3,-0.0130434782608696,-48,-0.208695652173913,135,-0.658536585365854,
5512694,6933.59375,-3600,2.20723482526058,1376,0.843654199877376,-15696,9.62354383813611,-4,3.23170731707317,-53,0.24390243902439,-30,1.82926829268293,5,-0.0217391304347826,-52,-0.226086956521739,138,-0.673170731707317,
5513334,6953.125,-3616,2.21704475781729,1456,0.892703862660944,-15840,9.71183323114654,7,2.5,-41,-0.426829268292683,-27,1.64634146341463,6,-0.0260869565217391,-53,-0.230434782608696,137,-0.668292682926829,
5513974,6972.65625,-3552,2.17780502759044,1488,0.912323727774372,-15888,9.74126302881668,19,2.25609756097561,-37,-1.15853658536585,-22,1.34146341463415,3,-0.0130434782608696,-47,-0.204347826086957,136,-0.663414634146342,
5514614,6992.1875,-3632,2.226854690374,1424,0.873083997547517,-15840,9.71183323114654,33,2.68292682926829,-44,-2.01219512195122,-18,1.09756097560976,4,-0.0173913043478261,-47,-0.204347826086957,138,-0.673170731707317,
5515254,7011.71875,-3808,2.33476394849785,1296,0.794604537093807,-15840,9.71183323114654,10,3.10975609756098,-51,-0.609756097560976,-19,1.15853658536585,4,-0.0173913043478261,-47,-0.204347826086957,138,-0.673170731707317,
5515894,7031.25,-3776,2.31514408338443,1392,0.853464132434089,-15792,9.6824034334764,-36,3.65853658536585,-60,2.19512195121951,-28,1.70731707317073,6,-0.0260869565217391,-50,-0.217391304347826,138,-0.673170731707317,
5516534,7050.78125,-3584,2.19742489270386,1360,0.833844267320662,-15760,9.66278356836297,-29,3.47560975609756,-57,1.76829268292683,-28,1.70731707317073,4,-0.0173913043478261,-47,-0.204347826086957,135,-0.658536585365854,
5517174,7070.3125,-3440,2.10913549969344,1376,0.843654199877376,-15664,9.60392397302268,14,2.80487804878049,-46,-0.853658536585366,-27,1.64634146341463,6,-0.0260869565217391,-49,-0.21304347826087,136,-0.663414634146342,
5517814,7089.84375,-3504,2.14837522992029,1328,0.814224402207235,-15664,9.60392397302268,50,2.4390243902439,-40,-3.04878048780488,-27,1.64634146341463,4,-0.0173913043478261,-49,-0.21304347826087,136,-0.663414634146342,
5518454,7109.375,-3648,2.23666462293072,1360,0.833844267320662,-15872,9.73145309625996,48,2.68292682926829,-44,-2.92682926829268,-28,1.70731707317073,6,-0.0260869565217391,-50,-0.217391304347826,136,-0.663414634146342,
5519094,7128.90625,-3760,2.30533415082771,1264,0.77498467198038,-15904,9.75107296137339,23,3.47560975609756,-57,-1.40243902439024,-35,2.13414634146341,5,-0.0217391304347826,-49,-0.21304347826087,138,-0.673170731707317,
5519734,7148.4375,-3696,2.26609442060086,1328,0.814224402207235,-15904,9.75107296137339,12,3.90243902439024,-64,-0.731707317073171,-42,2.5609756097561,6,-0.0260869565217391,-48,-0.208695652173913,135,-0.658536585365854,
5520374,7167.96875,-3616,2.21704475781729,1424,0.873083997547517,-15744,9.65297363580625,26,3.96341463414634,-65,-1.58536585365854,-47,2.86585365853659,4,-0.0173913043478261,-45,-0.195652173913043,135,-0.658536585365854,
5521014,7187.5,-3792,2.32495401594114,1488,0.912323727774372,-15744,9.65297363580625,25,3.23170731707317,-53,-1.52439024390244,-39,2.37804878048781,3,-0.0130434782608696,-47,-0.204347826086957,136,-0.663414634146342,
5521654,7207.03125,-3808,2.33476394849785,1520,0.931943592887799,-15808,9.69221336603311,11,2.86585365853659,-47,-0.670731707317073,-26,1.58536585365854,5,-0.0217391304347826,-49,-0.21304347826087,137,-0.668292682926829,
5522294,7226.5625,-3808,2.33476394849785,1488,0.912323727774372,-15904,9.75107296137339,15,2.80487804878049,-46,-0.914634146341463,-21,1.28048780487805,4,-0.0173913043478261,-44,-0.191304347826087,136,-0.663414634146342,
5522934,7246.09375,-3840,2.35438381361128,1472,0.902513795217658,-15920,9.7608828939301,1,2.6219512195122,-43,-0.0609756097560976,-24,1.46341463414634,7,-0.0304347826086957,-51,-0.221739130434783,136,-0.663414634146342,
5523574,7265.625,-3872,2.37400367872471,1264,0.77498467198038,-15840,9.71183323114654,-32,3.35365853658537,-55,1.95121951219512,-35,2.13414634146341,4,-0.0173913043478261,-45,-0.195652173913043,136,-0.663414634146342,
5524214,7285.15625,-3744,2.295524218271,1232,0.755364806866953,-15776,9.67259350091968,-29,3.47560975609756,-57,1.76829268292683,-31,1.89024390243902,5,-0.0217391304347826,-47,-0.204347826086957,137,-0.668292682926829,
5524854,7304.6875,-3760,2.30533415082771,1232,0.755364806866953,-15872,9.73145309625996,1,3.53658536585366,-58,-0.0609756097560976,-19,1.15853658536585,4,-0.0173913043478261,-43,-0.18695652173913,135,-0.658536585365854,
5525494,7324.21875,-3824,2.34457388105457,1104,0.676885346413243,-15920,9.7608828939301,-13,3.47560975609756,-57,0.792682926829268,-15,0.914634146341463,7,-0.0304347826086957,-52,-0.226086956521739,137,-0.668292682926829,
5526134,7343.75,-3856,2.364193746168,1104,0.676885346413243,-15920,9.7608828939301,-29,3.47560975609756,-57,1.76829268292683,-13,0.792682926829268,6,-0.0260869565217391,-49,-0.21304347826087,135,-0.658536585365854,
5526774,7363.28125,-3808,2.33476394849785,1232,0.755364806866953,-15904,9.75107296137339,-53,3.53658536585366,-58,3.23170731707317,-13,0.792682926829268,6,-0.0260869565217391,-48,-0.208695652173913,135,-0.658536585365854,
5527414,7382.8125,-3840,2.35438381361128,1264,0.77498467198038,-15904,9.75107296137339,-85,4.02439024390244,-66,5.18292682926829,-10,0.609756097560976,7,-0.0304347826086957,-50,-0.217391304347826,137,-0.668292682926829,
5528054,7402.34375,-3648,2.23666462293072,1424,0.873083997547517,-15856,9.72164316370325,-94,4.63414634146342,-76,5.73170731707317,-20,1.21951219512195,4,-0.0173913043478261,-50,-0.217391304347826,137,-0.668292682926829,
5528694,7421.875,-3648,2.23666462293072,1424,0.873083997547517,-15728,9.64316370324954,-110,4.9390243902439,-81,6.70731707317073,-20,1.21951219512195,4,-0.0173913043478261,-43,-0.18695652173913,137,-0.668292682926829,
5529334,7441.40625,-3600,2.20723482526058,1248,0.765174739423666,-15712,9.63335377069283,-117,4.87804878048781,-80,7.13414634146342,-25,1.52439024390244,1,-0.00434782608695652,-44,-0.191304347826087,136,-0.663414634146342,
5529974,7460.9375,-3440,2.10913549969344,1376,0.843654199877376,-15552,9.53525444512569,-103,4.69512195121951,-77,6.28048780487805,-30,1.82926829268293,4,-0.0173913043478261,-49,-0.21304347826087,138,-0.673170731707317,
5530614,7480.46875,-3456,2.11894543225015,1600,0.980993255671367,-15648,9.59411404046597,-51,4.02439024390244,-66,3.10975609756098,-31,1.89024390243902,3,-0.0130434782608696,-48,-0.208695652173913,137,-0.668292682926829,
5531254,7500,-3632,2.226854690374,1824,1.11833231146536,-15616,9.57449417535254,-6,3.59756097560976,-59,0.365853658536585,-15,0.914634146341463,5,-0.0217391304347826,-46,-0.2,136,-0.663414634146342,
5531894,7519.53125,-3776,2.31514408338443,1968,1.20662170447578,-15696,9.62354383813611,5,3.10975609756098,-51,-0.304878048780488,-11,0.670731707317073,4,-0.0173913043478261,-45,-0.195652173913043,137,-0.668292682926829,
5532534,7539.0625,-3680,2.25628448804414,1968,1.20662170447578,-15712,9.63335377069283,-12,2.5,-41,0.731707317073171,-8,0.487804878048781,4,-0.0173913043478261,-44,-0.191304347826087,138,-0.673170731707317,
5533174,7558.59375,-3584,2.19742489270386,1904,1.16738197424893,-15776,9.67259350091968,-6,2.19512195121951,-36,0.365853658536585,-2,0.121951219512195,1,-0.00434782608695652,-51,-0.221739130434783,137,-0.668292682926829,
5533814,7578.125,-3616,2.21704475781729,1792,1.09871244635193,-15808,9.69221336603311,9,1.40243902439024,-23,-0.548780487804878,6,-0.365853658536585,6,-0.0260869565217391,-52,-0.226086956521739,139,-0.678048780487805,
5534454,7597.65625,-3504,2.14837522992029,1504,0.922133660331085,-15824,9.70202329858982,2,1.40243902439024,-23,-0.121951219512195,12,-0.731707317073171,2,-0.00869565217391304,-48,-0.208695652173913,137,-0.668292682926829,
5535094,7617.1875,-3376,2.06989576946658,1408,0.863274064990803,-15872,9.73145309625996,-4,1.76829268292683,-29,0.24390243902439,11,-0.670731707317073,2,-0.00869565217391304,-45,-0.195652173913043,136,-0.663414634146342,
5535734,7636.71875,-3296,2.02084610668302,1344,0.824034334763949,-15840,9.71183323114654,1,2.25609756097561,-37,-0.0609756097560976,2,-0.121951219512195,3,-0.0130434782608696,-44,-0.191304347826087,136,-0.663414634146342,
5536374,7656.25,-3312,2.03065603923973,1344,0.824034334763949,-15840,9.71183323114654,0,2.80487804878049,-46,0,-16,0.975609756097561,5,-0.0217391304347826,-51,-0.221739130434783,139,-0.678048780487805,
5537014,7675.78125,-3360,2.06008583690987,1408,0.863274064990803,-15872,9.73145309625996,-11,3.17073170731707,-52,0.670731707317073,-27,1.64634146341463,5,-0.0217391304347826,-47,-0.204347826086957,137,-0.668292682926829,
5537654,7695.3125,-3328,2.04046597179644,1376,0.843654199877376,-15920,9.7608828939301,-14,2.98780487804878,-49,0.853658536585366,-24,1.46341463414634,3,-0.0130434782608696,-43,-0.18695652173913,137,-0.668292682926829,
5538294,7714.84375,-3360,2.06008583690987,1312,0.804414469650521,-16000,9.80993255671367,6,2.5609756097561,-42,-0.365853658536585,-22,1.34146341463415,3,-0.0130434782608696,-51,-0.221739130434783,138,-0.673170731707317,
5538934,7734.375,-3552,2.17780502759044,1280,0.784794604537094,-16032,9.8295524218271,11,2.68292682926829,-44,-0.670731707317073,-15,0.914634146341463,4,-0.0173913043478261,-52,-0.226086956521739,138,-0.673170731707317,
5539574,7753.90625,-3616,2.21704475781729,1312,0.804414469650521,-16016,9.81974248927039,-10,3.47560975609756,-57,0.609756097560976,-26,1.58536585365854,6,-0.0260869565217391,-49,-0.21304347826087,137,-0.668292682926829,
5540214,7773.4375,-3568,2.18761496014715,1376,0.843654199877376,-15952,9.78050275904353,-47,4.51219512195122,-74,2.86585365853659,-42,2.5609756097561,2,-0.00869565217391304,-45,-0.195652173913043,137,-0.668292682926829,
5540854,7792.96875,-3520,2.15818516247701,1472,0.902513795217658,-15824,9.70202329858982,-58,4.87804878048781,-80,3.53658536585366,-48,2.92682926829268,3,-0.0130434782608696,-46,-0.2,137,-0.668292682926829,
5541494,7812.5,-3520,2.15818516247701,1536,0.941753525444513,-15856,9.72164316370325,-22,4.63414634146342,-76,1.34146341463415,-40,2.4390243902439,4,-0.0173913043478261,-45,-0.195652173913043,139,-0.678048780487805,
5542134,7832.03125,-3616,2.21704475781729,1520,0.931943592887799,-15808,9.69221336603311,1,3.71951219512195,-61,-0.0609756097560976,-26,1.58536585365854,3,-0.0130434782608696,-45,-0.195652173913043,136,-0.663414634146342,
5542774,7851.5625,-3712,2.27590435315757,1616,0.990803188228081,-15904,9.75107296137339,4,3.29268292682927,-54,-0.24390243902439,-5,0.304878048780488,3,-0.0130434782608696,-43,-0.18695652173913,136,-0.663414634146342,
5543414,7871.09375,-3712,2.27590435315757,1568,0.96137339055794,-15888,9.74126302881668,5,2.74390243902439,-45,-0.304878048780488,9,-0.548780487804878,4,-0.0173913043478261,-48,-0.208695652173913,138,-0.673170731707317,
5544054,7890.625,-3664,2.24647455548743,1520,0.931943592887799,-15936,9.77069282648682,-7,2.92682926829268,-48,0.426829268292683,17,-1.03658536585366,4,-0.0173913043478261,-49,-0.21304347826087,138,-0.673170731707317,
5544694,7910.15625,-3552,2.17780502759044,1568,0.96137339055794,-15984,9.80012262415696,-6,2.98780487804878,-49,0.365853658536585,15,-0.914634146341463,5,-0.0217391304347826,-48,-0.208695652173913,137,-0.668292682926829,
5545334,7929.6875,-3472,2.12875536480687,1472,0.902513795217658,-15840,9.71183323114654,12,2.92682926829268,-48,-0.731707317073171,12,-0.731707317073171,4,-0.0173913043478261,-44,-0.191304347826087,138,-0.673170731707317,
5545974,7949.21875,-3536,2.16799509503372,1360,0.833844267320662,-15840,9.71183323114654,22,2.80487804878049,-46,-1.34146341463415,6,-0.365853658536585,5,-0.0217391304347826,-46,-0.2,136,-0.663414634146342,
5546614,7968.75,-3488,2.13856529736358,1472,0.902513795217658,-15808,9.69221336603311,19,3.17073170731707,-52,-1.15853658536585,6,-0.365853658536585,5,-0.0217391304347826,-47,-0.204347826086957,137,-0.668292682926829,
5547254,7988.28125,-3536,2.16799509503372,1456,0.892703862660944,-15728,9.64316370324954,2,3.23170731707317,-53,-0.121951219512195,9,-0.548780487804878,4,-0.0173913043478261,-46,-0.2,135,-0.658536585365854,
5547894,8007.8125,-3424,2.09932556713673,1456,0.892703862660944,-15712,9.63335377069283,-20,3.04878048780488,-50,1.21951219512195,7,-0.426829268292683,3,-0.0130434782608696,-49,-0.21304347826087,137,-0.668292682926829,
5548534,8027.34375,-3264,2.00122624156959,1408,0.863274064990803,-15776,9.67259350091968,-19,2.5609756097561,-42,1.15853658536585,7,-0.426829268292683,4,-0.0173913043478261,-49,-0.21304347826087,137,-0.668292682926829,
5549174,8046.875,-3200,1.96198651134273,1456,0.892703862660944,-15712,9.63335377069283,11,1.46341463414634,-24,-0.670731707317073,-1,0.0609756097560976,3,-0.0130434782608696,-49,-0.21304347826087,137,-0.668292682926829,
5549814,8066.40625,-3248,1.99141630901288,1360,0.833844267320662,-15728,9.64316370324954,41,0.914634146341463,-15,-2.5,-4,0.24390243902439,4,-0.0173913043478261,-51,-0.221739130434783,138,-0.673170731707317,
5550454,8085.9375,-3360,2.06008583690987,1360,0.833844267320662,-15728,9.64316370324954,32,0.975609756097561,-16,-1.95121951219512,-6,0.365853658536585,5,-0.0217391304347826,-45,-0.195652173913043,136,-0.663414634146342,
5551094,8105.46875,-3488,2.13856529736358,1344,0.824034334763949,-15808,9.69221336603311,23,1.58536585365854,-26,-1.40243902439024,-15,0.914634146341463,6,-0.0260869565217391,-46,-0.2,136,-0.663414634146342,
5551734,8125,-3440,2.10913549969344,1408,0.863274064990803,-15744,9.65297363580625,9,1.64634146341463,-27,-0.548780487804878,-15,0.914634146341463,3,-0.0130434782608696,-50,-0.217391304347826,137,-0.668292682926829,
5552374,8144.53125,-3504,2.14837522992029,1392,0.853464132434089,-15712,9.63335377069283,-4,1.46341463414634,-24,0.24390243902439,-15,0.914634146341463,4,-0.0173913043478261,-46,-0.2,139,-0.678048780487805,
5553014,8164.0625,-3552,2.17780502759044,1424,0.873083997547517,-15776,9.67259350091968,-10,1.28048780487805,-21,0.609756097560976,-17,1.03658536585366,3,-0.0130434782608696,-45,-0.195652173913043,138,-0.673170731707317,
5553654,8183.59375,-3472,2.12875536480687,1472,0.902513795217658,-15824,9.70202329858982,7,1.34146341463415,-22,-0.426829268292683,-16,0.975609756097561,5,-0.0217391304347826,-50,-0.217391304347826,138,-0.673170731707317,
5554294,8203.125,-3600,2.20723482526058,1392,0.853464132434089,-15984,9.80012262415696,14,1.52439024390244,-25,-0.853658536585366,-14,0.853658536585366,3,-0.0130434782608696,-44,-0.191304347826087,136,-0.663414634146342,
5554934,8222.65625,-3648,2.23666462293072,1392,0.853464132434089,-15968,9.79031269160024,-6,2.80487804878049,-46,0.365853658536585,-12,0.731707317073171,2,-0.00869565217391304,-46,-0.2,136,-0.663414634146342,
5555574,8242.1875,-3648,2.23666462293072,1264,0.77498467198038,-16032,9.8295524218271,-30,3.23170731707317,-53,1.82926829268293,-13,0.792682926829268,3,-0.0130434782608696,-45,-0.195652173913043,136,-0.663414634146342,
5556214,8261.71875,-3616,2.21704475781729,1312,0.804414469650521,-15952,9.78050275904353,-46,3.41463414634146,-56,2.80487804878049,-16,0.975609756097561,4,-0.0173913043478261,-49,-0.21304347826087,137,-0.668292682926829,
5556854,8281.25,-3440,2.10913549969344,1392,0.853464132434089,-16080,9.85898221949724,-34,3.47560975609756,-57,2.07317073170732,-20,1.21951219512195,2,-0.00869565217391304,-45,-0.195652173913043,136,-0.663414634146342,
5557494,8300.78125,-3424,2.09932556713673,1456,0.892703862660944,-16064,9.84917228694053,0,3.59756097560976,-59,0,-22,1.34146341463415,4,-0.0173913043478261,-45,-0.195652173913043,138,-0.673170731707317,
5558134,8320.3125,-3584,2.19742489270386,1456,0.892703862660944,-15936,9.77069282648682,4,3.78048780487805,-62,-0.24390243902439,-13,0.792682926829268,3,-0.0130434782608696,-43,-0.18695652173913,137,-0.668292682926829,
5558774,8339.84375,-3600,2.20723482526058,1424,0.873083997547517,-15936,9.77069282648682,-18,3.90243902439024,-64,1.09756097560976,-15,0.914634146341463,3,-0.0130434782608696,-51,-0.221739130434783,138,-0.673170731707317,
5559414,8359.375,-3648,2.23666462293072,1392,0.853464132434089,-15840,9.71183323114654,-14,3.59756097560976,-59,0.853658536585366,-7,0.426829268292683,3,-0.0130434782608696,-49,-0.21304347826087,136,-0.663414634146342,
5560054,8378.90625,-3584,2.19742489270386,1312,0.804414469650521,-15872,9.73145309625996,-12,3.53658536585366,-58,0.731707317073171,-5,0.304878048780488,3,-0.0130434782608696,-44,-0.191304347826087,136,-0.663414634146342,
5560694,8398.4375,-3440,2.10913549969344,1312,0.804414469650521,-15792,9.6824034334764,-26,3.78048780487805,-62,1.58536585365854,-5,0.304878048780488,5,-0.0217391304347826,-45,-0.195652173913043,137,-0.668292682926829,
5561334,8417.96875,-3456,2.11894543225015,1376,0.843654199877376,-15760,9.66278356836297,-20,3.59756097560976,-59,1.21951219512195,-6,0.365853658536585,4,-0.0173913043478261,-45,-0.195652173913043,137,-0.668292682926829,
5561974,8437.5,-3440,2.10913549969344,1392,0.853464132434089,-15824,9.70202329858982,-2,3.29268292682927,-54,0.121951219512195,-5,0.304878048780488,5,-0.0217391304347826,-44,-0.191304347826087,137,-0.668292682926829,
5562614,8457.03125,-3472,2.12875536480687,1360,0.833844267320662,-15712,9.63335377069283,-3,3.10975609756098,-51,0.182926829268293,-4,0.24390243902439,2,-0.00869565217391304,-46,-0.2,138,-0.673170731707317,
5563254,8476.5625,-3408,2.08951563458001,1392,0.853464132434089,-15744,9.65297363580625,-19,3.17073170731707,-52,1.15853658536585,-4,0.24390243902439,5,-0.0217391304347826,-50,-0.217391304347826,139,-0.678048780487805,
5563894,8496.09375,-3408,2.08951563458001,1440,0.88289393010423,-15632,9.58430410790926,-41,3.53658536585366,-58,2.5,-13,0.792682926829268,2,-0.00869565217391304,-49,-0.21304347826087,137,-0.668292682926829,
5564534,8515.625,-3360,2.06008583690987,1504,0.922133660331085,-15808,9.69221336603311,-28,3.10975609756098,-51,1.70731707317073,-19,1.15853658536585,5,-0.0217391304347826,-47,-0.204347826086957,136,-0.663414634146342,
5565174,8535.15625,-3280,2.0110361741263,1344,0.824034334763949,-15808,9.69221336603311,8,2.86585365853659,-47,-0.487804878048781,-11,0.670731707317073,5,-0.0217391304347826,-50,-0.217391304347826,139,-0.678048780487805,
5565814,8554.6875,-3488,2.13856529736358,1392,0.853464132434089,-15792,9.6824034334764,33,2.68292682926829,-44,-2.01219512195122,-7,0.426829268292683,3,-0.0130434782608696,-46,-0.2,136,-0.663414634146342,
5566454,8574.21875,-3600,2.20723482526058,1472,0.902513795217658,-15888,9.74126302881668,-3,2.68292682926829,-44,0.182926829268293,-7,0.426829268292683,6,-0.0260869565217391,-47,-0.204347826086957,137,-0.668292682926829,
5567094,8593.75,-3552,2.17780502759044,1408,0.863274064990803,-15824,9.70202329858982,-38,2.6219512195122,-43,2.31707317073171,-2,0.121951219512195,4,-0.0173913043478261,-50,-0.217391304347826,138,-0.673170731707317,
5567734,8613.28125,-3408,2.08951563458001,1392,0.853464132434089,-15840,9.71183323114654,-16,2.25609756097561,-37,0.975609756097561,-7,0.426829268292683,2,-0.00869565217391304,-46,-0.2,136,-0.663414634146342,
5568374,8632.8125,-3408,2.08951563458001,1440,0.88289393010423,-15744,9.65297363580625,11,2.37804878048781,-39,-0.670731707317073,-5,0.304878048780488,4,-0.0173913043478261,-44,-0.191304347826087,136,-0.663414634146342,
5569014,8652.34375,-3488,2.13856529736358,1472,0.902513795217658,-15808,9.69221336603311,2,2.4390243902439,-40,-0.121951219512195,-2,0.121951219512195,4,-0.0173913043478261,-45,-0.195652173913043,137,-0.668292682926829,
5569654,8671.875,-3440,2.10913549969344,1376,0.843654199877376,-15840,9.71183323114654,-18,2.07317073170732,-34,1.09756097560976,-1,0.0609756097560976,4,-0.0173913043478261,-45,-0.195652173913043,139,-0.678048780487805,
5570294,8691.40625,-3408,2.08951563458001,1456,0.892703862660944,-15904,9.75107296137339,-3,1.89024390243902,-31,0.182926829268293,0,0,3,-0.0130434782608696,-45,-0.195652173913043,138,-0.673170731707317,
5570934,8710.9375,-3424,2.09932556713673,1424,0.873083997547517,-15920,9.7608828939301,18,1.82926829268293,-30,-1.09756097560976,-9,0.548780487804878,3,-0.0130434782608696,-45,-0.195652173913043,136,-0.663414634146342,
5571574,8730.46875,-3552,2.17780502759044,1376,0.843654199877376,-15920,9.7608828939301,-6,2.5609756097561,-42,0.365853658536585,-13,0.792682926829268,3,-0.0130434782608696,-47,-0.204347826086957,138,-0.673170731707317,
5572214,8750,-3504,2.14837522992029,1440,0.88289393010423,-15968,9.79031269160024,-23,2.80487804878049,-46,1.40243902439024,-8,0.487804878048781,4,-0.0173913043478261,-47,-0.204347826086957,139,-0.678048780487805,
5572854,8769.53125,-3408,2.08951563458001,1424,0.873083997547517,-16048,9.83936235438381,-17,2.68292682926829,-44,1.03658536585366,-2,0.121951219512195,3,-0.0130434782608696,-47,-0.204347826086957,137,-0.668292682926829,
5573494,8789.0625,-3472,2.12875536480687,1424,0.873083997547517,-15920,9.7608828939301,10,2.4390243902439,-40,-0.609756097560976,7,-0.426829268292683,5,-0.0217391304347826,-48,-0.208695652173913,137,-0.668292682926829,
5574134,8808.59375,-3616,2.21704475781729,1344,0.824034334763949,-16032,9.8295524218271,2,2.74390243902439,-45,-0.121951219512195,10,-0.609756097560976,4,-0.0173913043478261,-44,-0.191304347826087,136,-0.663414634146342,
5574774,8828.125,-3504,2.14837522992029,1264,0.77498467198038,-16000,9.80993255671367,-33,3.35365853658537,-55,2.01219512195122,1,-0.0609756097560976,2,-0.00869565217391304,-45,-0.195652173913043,137,-0.668292682926829,
5575414,8847.65625,-3424,2.09932556713673,1424,0.873083997547517,-15920,9.7608828939301,-39,3.78048780487805,-62,2.37804878048781,-11,0.670731707317073,3,-0.0130434782608696,-46,-0.2,138,-0.673170731707317,
5576054,8867.1875,-3376,2.06989576946658,1392,0.853464132434089,-15872,9.73145309625996,-17,3.96341463414634,-65,1.03658536585366,-12,0.731707317073171,2,-0.00869565217391304,-47,-0.204347826086957,138,-0.673170731707317,
5576694,8886.71875,-3456,2.11894543225015,1456,0.892703862660944,-15888,9.74126302881668,-1,3.96341463414634,-65,0.0609756097560976,-3,0.182926829268293,2,-0.00869565217391304,-48,-0.208695652173913,137,-0.668292682926829,
5577334,8906.25,-3504,2.14837522992029,1456,0.892703862660944,-15936,9.77069282648682,2,3.35365853658537,-55,-0.121951219512195,7,-0.426829268292683,0,0,-45,-0.195652173913043,137,-0.668292682926829,
5577974,8925.78125,-3408,2.08951563458001,1424,0.873083997547517,-15840,9.71183323114654,4,2.74390243902439,-45,-0.24390243902439,11,-0.670731707317073,4,-0.0173913043478261,-45,-0.195652173913043,136,-0.663414634146342,
5578614,8945.3125,-3376,2.06989576946658,1424,0.873083997547517,-15808,9.69221336603311,-5,2.5609756097561,-42,0.304878048780488,6,-0.365853658536585,4,-0.0173913043478261,-49,-0.21304347826087,138,-0.673170731707317,
5579254,8964.84375,-3296,2.02084610668302,1424,0.873083997547517,-15856,9.72164316370325,-26,3.10975609756098,-51,1.58536585365854,2,-0.121951219512195,2,-0.00869565217391304,-47,-0.204347826086957,137,-0.668292682926829,
5579894,8984.375,-3136,1.92274678111588,1408,0.863274064990803,-15936,9.77069282648682,-7,3.10975609756098,-51,0.426829268292683,-7,0.426829268292683,2,-0.00869565217391304,-42,-0.182608695652174,136,-0.663414634146342,
5580534,9003.90625,-3216,1.97179644389945,1376,0.843654199877376,-15952,9.78050275904353,38,2.98780487804878,-49,-2.31707317073171,-6,0.365853658536585,5,-0.0217391304347826,-46,-0.2,137,-0.668292682926829,
5581174,9023.4375,-3424,2.09932556713673,1312,0.804414469650521,-15888,9.74126302881668,23,3.17073170731707,-52,-1.40243902439024,-11,0.670731707317073,3,-0.0130434782608696,-46,-0.2,139,-0.678048780487805,
5581814,9042.96875,-3440,2.10913549969344,1344,0.824034334763949,-15872,9.73145309625996,-32,3.84146341463415,-63,1.95121951219512,-21,1.28048780487805,4,-0.0173913043478261,-46,-0.2,137,-0.668292682926829,
5582454,9062.5,-3248,1.99141630901288,1392,0.853464132434089,-15856,9.72164316370325,-52,3.90243902439024,-64,3.17073170731707,-20,1.21951219512195,3,-0.0130434782608696,-51,-0.221739130434783,139,-0.678048780487805,
5583094,9082.03125,-3264,2.00122624156959,1456,0.892703862660944,-15920,9.7608828939301,4,3.10975609756098,-51,-0.24390243902439,-17,1.03658536585366,5,-0.0217391304347826,-49,-0.21304347826087,137,-0.668292682926829,
5583734,9101.5625,-3568,2.18761496014715,1472,0.902513795217658,-15808,9.69221336603311,40,2.98780487804878,-49,-2.4390243902439,-17,1.03658536585366,2,-0.00869565217391304,-45,-0.195652173913043,137,-0.668292682926829,
5584374,9121.09375,-3536,2.16799509503372,1472,0.902513795217658,-15872,9.73145309625996,15,3.35365853658537,-55,-0.914634146341463,-20,1.21951219512195,5,-0.0217391304347826,-48,-0.208695652173913,137,-0.668292682926829,
5585014,9140.625,-3392,2.0797057020233,1504,0.922133660331085,-15776,9.67259350091968,-37,3.41463414634146,-56,2.25609756097561,-19,1.15853658536585,2,-0.00869565217391304,-48,-0.208695652173913,138,-0.673170731707317,
5585654,9160.15625,-3312,2.03065603923973,1504,0.922133660331085,-15872,9.73145309625996,-14,3.17073170731707,-52,0.853658536585366,-13,0.792682926829268,2,-0.00869565217391304,-44,-0.191304347826087,137,-0.668292682926829,
5586294,9179.6875,-3392,2.0797057020233,1472,0.902513795217658,-15808,9.69221336603311,31,2.31707317073171,-38,-1.89024390243902,-5,0.304878048780488,2,-0.00869565217391304,-46,-0.2,137,-0.668292682926829,
5586934,9199.21875,-3568,2.18761496014715,1360,0.833844267320662,-15872,9.73145309625996,32,2.5,-41,-1.95121951219512,-3,0.182926829268293,6,-0.0260869565217391,-49,-0.21304347826087,138,-0.673170731707317,
5587574,9218.75,-3552,2.17780502759044,1456,0.892703862660944,-15840,9.71183323114654,-16,3.23170731707317,-53,0.975609756097561,-15,0.914634146341463,2,-0.00869565217391304,-49,-0.21304347826087,138,-0.673170731707317,
5588214,9238.28125,-3344,2.05027590435316,1504,0.922133660331085,-15984,9.80012262415696,-42,3.59756097560976,-59,2.5609756097561,-23,1.40243902439024,3,-0.0130434782608696,-50,-0.217391304347826,138,-0.673170731707317,
5588854,9257.8125,-3280,2.0110361741263,1504,0.922133660331085,-15856,9.72164316370325,4,2.98780487804878,-49,-0.24390243902439,-12,0.731707317073171,5,-0.0217391304347826,-51,-0.221739130434783,137,-0.668292682926829,
5589494,9277.34375,-3504,2.14837522992029,1392,0.853464132434089,-15792,9.6824034334764,48,2.6219512195122,-43,-2.92682926829268,-2,0.121951219512195,2,-0.00869565217391304,-47,-0.204347826086957,137,-0.668292682926829,
5590134,9296.875,-3568,2.18761496014715,1408,0.863274064990803,-15792,9.6824034334764,7,3.41463414634146,-56,-0.426829268292683,-7,0.426829268292683,3,-0.0130434782608696,-46,-0.2,138,-0.673170731707317,
5590774,9316.40625,-3424,2.09932556713673,1456,0.892703862660944,-15792,9.6824034334764,-51,3.53658536585366,-58,3.10975609756098,-14,0.853658536585366,3,-0.0130434782608696,-45,-0.195652173913043,139,-0.678048780487805,
5591414,9335.9375,-3168,1.94236664622931,1440,0.88289393010423,-15872,9.73145309625996,-40,3.29268292682927,-54,2.4390243902439,-16,0.975609756097561,4,-0.0173913043478261,-51,-0.221739130434783,139,-0.678048780487805,
5592054,9355.46875,-3328,2.04046597179644,1408,0.863274064990803,-15856,9.72164316370325,25,2.5,-41,-1.52439024390244,-1,0.0609756097560976,5,-0.0217391304347826,-48,-0.208695652173913,137,-0.668292682926829,
5592694,9375,-3488,2.13856529736358,1392,0.853464132434089,-15840,9.71183323114654,41,2.19512195121951,-36,-2.5,-1,0.0609756097560976,4,-0.0173913043478261,-48,-0.208695652173913,138,-0.673170731707317,
5593334,9394.53125,-3424,2.09932556713673,1360,0.833844267320662,-15936,9.77069282648682,3,2.37804878048781,-39,-0.182926829268293,-11,0.670731707317073,4,-0.0173913043478261,-47,-0.204347826086957,138,-0.673170731707317,
5593974,9414.0625,-3312,2.03065603923973,1360,0.833844267320662,-15952,9.78050275904353,-12,2.74390243902439,-45,0.731707317073171,-12,0.731707317073171,5,-0.0217391304347826,-51,-0.221739130434783,138,-0.673170731707317,
5594614,9433.59375,-3312,2.03065603923973,1360,0.833844267320662,-15904,9.75107296137339,10,3.10975609756098,-51,-0.609756097560976,-14,0.853658536585366,1,-0.00434782608695652,-50,-0.217391304347826,138,-0.673170731707317,
5595254,9453.125,-3424,2.09932556713673,1312,0.804414469650521,-15952,9.78050275904353,16,3.47560975609756,-57,-0.975609756097561,-14,0.853658536585366,1,-0.00434782608695652,-44,-0.191304347826087,136,-0.663414634146342,
5595894,9472.65625,-3440,2.10913549969344,1392,0.853464132434089,-15936,9.77069282648682,-16,3.41463414634146,-56,0.975609756097561,-18,1.09756097560976,7,-0.0304347826086957,-49,-0.21304347826087,138,-0.673170731707317,
5596534,9492.1875,-3392,2.0797057020233,1408,0.863274064990803,-15872,9.73145309625996,-27,3.35365853658537,-55,1.64634146341463,-15,0.914634146341463,3,-0.0130434782608696,-49,-0.21304347826087,136,-0.663414634146342,
5597174,9511.71875,-3344,2.05027590435316,1456,0.892703862660944,-15920,9.7608828939301,9,3.10975609756098,-51,-0.548780487804878,-11,0.670731707317073,3,-0.0130434782608696,-48,-0.208695652173913,135,-0.658536585365854,
5597814,9531.25,-3504,2.14837522992029,1408,0.863274064990803,-15856,9.72164316370325,33,3.04878048780488,-50,-2.01219512195122,-2,0.121951219512195,5,-0.0217391304347826,-49,-0.21304347826087,137,-0.668292682926829,
5598454,9550.78125,-3552,2.17780502759044,1424,0.873083997547517,-15936,9.77069282648682,14,3.04878048780488,-50,-0.853658536585366,-6,0.365853658536585,5,-0.0217391304347826,-46,-0.2,136,-0.663414634146342,
5599094,9570.3125,-3488,2.13856529736358,1376,0.843654199877376,-15920,9.7608828939301,-3,3.35365853658537,-55,0.182926829268293,-2,0.121951219512195,3,-0.0130434782608696,-45,-0.195652173913043,137,-0.668292682926829,
5599734,9589.84375,-3424,2.09932556713673,1472,0.902513795217658,-15968,9.79031269160024,1,3.53658536585366,-58,-0.0609756097560976,4,-0.24390243902439,4,-0.0173913043478261,-48,-0.208695652173913,138,-0.673170731707317,
5600374,9609.375,-3504,2.14837522992029,1456,0.892703862660944,-15920,9.7608828939301,3,3.47560975609756,-57,-0.182926829268293,-3,0.182926829268293,5,-0.0217391304347826,-48,-0.208695652173913,137,-0.668292682926829,
5601014,9628.90625,-3552,2.17780502759044,1408,0.863274064990803,-16000,9.80993255671367,1,3.84146341463415,-63,-0.0609756097560976,-7,0.426829268292683,5,-0.0217391304347826,-48,-0.208695652173913,138,-0.673170731707317,
5601654,9648.4375,-3456,2.11894543225015,1472,0.902513795217658,-15952,9.78050275904353,-1,3.71951219512195,-61,0.0609756097560976,-9,0.548780487804878,3,-0.0130434782608696,-45,-0.195652173913043,136,-0.663414634146342,
5602294,9667.96875,-3440,2.10913549969344,1520,0.931943592887799,-15920,9.7608828939301,12,3.65853658536585,-60,-0.731707317073171,-3,0.182926829268293,5,-0.0217391304347826,-48,-0.208695652173913,137,-0.668292682926829,
5602934,9687.5,-3552,2.17780502759044,1472,0.902513795217658,-15872,9.73145309625996,24,3.84146341463415,-63,-1.46341463414634,1,-0.0609756097560976,5,-0.0217391304347826,-44,-0.191304347826087,135,-0.658536585365854,
5603574,9707.03125,-3552,2.17780502759044,1456,0.892703862660944,-15792,9.6824034334764,-6,3.90243902439024,-64,0.365853658536585,1,-0.0609756097560976,6,-0.0260869565217391,-47,-0.204347826086957,137,-0.668292682926829,
5604214,9726.5625,-3328,2.04046597179644,1440,0.88289393010423,-15856,9.72164316370325,-28,3.84146341463415,-63,1.70731707317073,2,-0.121951219512195,6,-0.0260869565217391,-47,-0.204347826086957,137,-0.668292682926829,
5604854,9746.09375,-3312,2.03065603923973,1440,0.88289393010423,-15808,9.69221336603311,-14,2.98780487804878,-49,0.853658536585366,7,-0.426829268292683,3,-0.0130434782608696,-50,-0.217391304347826,139,-0.678048780487805,
5605494,9765.625,-3440,2.10913549969344,1472,0.902513795217658,-15840,9.71183323114654,12,2.92682926829268,-48,-0.731707317073171,2,-0.121951219512195,3,-0.0130434782608696,-50,-0.217391304347826,137,-0.668292682926829,
5606134,9785.15625,-3456,2.11894543225015,1472,0.902513795217658,-15904,9.75107296137339,3,3.29268292682927,-54,-0.182926829268293,1,-0.0609756097560976,6,-0.0260869565217391,-49,-0.21304347826087,137,-0.668292682926829,
5606774,9804.6875,-3360,2.06008583690987,1472,0.902513795217658,-15856,9.72164316370325,-15,3.29268292682927,-54,0.914634146341463,-4,0.24390243902439,4,-0.0173913043478261,-47,-0.204347826086957,138,-0.673170731707317,
5607414,9824.21875,-3216,1.97179644389945,1408,0.863274064990803,-15808,9.69221336603311,5,3.10975609756098,-51,-0.304878048780488,-8,0.487804878048781,3,-0.0130434782608696,-46,-0.2,138,-0.673170731707317,
5608054,9843.75,-3408,2.08951563458001,1456,0.892703862660944,-15808,9.69221336603311,28,2.92682926829268,-48,-1.70731707317073,-6,0.365853658536585,2,-0.00869565217391304,-45,-0.195652173913043,135,-0.658536585365854,
5608694,9863.28125,-3488,2.13856529736358,1424,0.873083997547517,-15824,9.70202329858982,17,2.86585365853659,-47,-1.03658536585366,-8,0.487804878048781,3,-0.0130434782608696,-48,-0.208695652173913,137,-0.668292682926829,
5609334,9882.8125,-3360,2.06008583690987,1456,0.892703862660944,-15776,9.67259350091968,-6,2.92682926829268,-48,0.365853658536585,-13,0.792682926829268,4,-0.0173913043478261,-46,-0.2,138,-0.673170731707317,
5609974,9902.34375,-3408,2.08951563458001,1600,0.980993255671367,-15856,9.72164316370325,9,2.80487804878049,-46,-0.548780487804878,-9,0.548780487804878,1,-0.00434782608695652,-47,-0.204347826086957,137,-0.668292682926829,
5610614,9921.875,-3488,2.13856529736358,1520,0.931943592887799,-15904,9.75107296137339,18,2.4390243902439,-40,-1.09756097560976,-11,0.670731707317073,5,-0.0217391304347826,-49,-0.21304347826087,137,-0.668292682926829,
5611254,9941.40625,-3472,2.12875536480687,1360,0.833844267320662,-15920,9.7608828939301,6,2.80487804878049,-46,-0.365853658536585,-6,0.365853658536585,7,-0.0304347826086957,-50,-0.217391304347826,139,-0.678048780487805,
5611894,9960.9375,-3520,2.15818516247701,1456,0.892703862660944,-15840,9.71183323114654,-10,3.47560975609756,-57,0.609756097560976,-13,0.792682926829268,5,-0.0217391304347826,-46,-0.2,136,-0.663414634146342,
5612534,9980.46875,-3488,2.13856529736358,1520,0.931943592887799,-15760,9.66278356836297,-1,3.29268292682927,-54,0.0609756097560976,-15,0.914634146341463,6,-0.0260869565217391,-47,-0.204347826086957,137,-0.668292682926829,
5613174,10000,-3440,2.10913549969344,1456,0.892703862660944,-15744,9.65297363580625,7,3.04878048780488,-50,-0.426829268292683,-12,0.731707317073171,4,-0.0173913043478261,-46,-0.2,138,-0.673170731707317,
5613814,10019.53125,-3456,2.11894543225015,1408,0.863274064990803,-15872,9.73145309625996,27,2.13414634146341,-35,-1.64634146341463,-6,0.365853658536585,3,-0.0130434782608696,-50,-0.217391304347826,140,-0.682926829268293,
5614454,10039.0625,-3536,2.16799509503372,1424,0.873083997547517,-15952,9.78050275904353,28,1.95121951219512,-32,-1.70731707317073,0,0,4,-0.0173913043478261,-51,-0.221739130434783,139,-0.678048780487805,
5615094,10058.59375,-3584,2.19742489270386,1392,0.853464132434089,-15920,9.7608828939301,12,2.6219512195122,-43,-0.731707317073171,-3,0.182926829268293,6,-0.0260869565217391,-49,-0.21304347826087,137,-0.668292682926829,
5615734,10078.125,-3424,2.09932556713673,1328,0.814224402207235,-15856,9.72164316370325,-27,3.35365853658537,-55,1.64634146341463,-15,0.914634146341463,4,-0.0173913043478261,-46,-0.2,137,-0.668292682926829,
5616374,10097.65625,-3360,2.06008583690987,1344,0.824034334763949,-15808,9.69221336603311,-29,3.41463414634146,-56,1.76829268292683,-18,1.09756097560976,3,-0.0130434782608696,-45,-0.195652173913043,137,-0.668292682926829,
5617014,10117.1875,-3376,2.06989576946658,1408,0.863274064990803,-15856,9.72164316370325,1,3.10975609756098,-51,-0.0609756097560976,-22,1.34146341463415,3,-0.0130434782608696,-45,-0.195652173913043,138,-0.673170731707317,
5617654,10136.71875,-3712,2.27590435315757,1408,0.863274064990803,-15840,9.71183323114654,24,2.80487804878049,-46,-1.46341463414634,-12,0.731707317073171,6,-0.0260869565217391,-51,-0.221739130434783,138,-0.673170731707317,
5618294,10156.25,-3696,2.26609442060086,1392,0.853464132434089,-15904,9.75107296137339,6,2.4390243902439,-40,-0.365853658536585,-9,0.548780487804878,4,-0.0173913043478261,-43,-0.18695652173913,136,-0.663414634146342,
5618934,10175.78125,-3520,2.15818516247701,1392,0.853464132434089,-15808,9.69221336603311,-32,2.68292682926829,-44,1.95121951219512,-10,0.609756097560976,4,-0.0173913043478261,-43,-0.18695652173913,137,-0.668292682926829,
5619574,10195.3125,-3504,2.14837522992029,1408,0.863274064990803,-15824,9.70202329858982,-34,3.10975609756098,-51,2.07317073170732,-11,0.670731707317073,4,-0.0173913043478261,-47,-0.204347826086957,136,-0.663414634146342,
5620214,10214.84375,-3408,2.08951563458001,1392,0.853464132434089,-15744,9.65297363580625,-21,3.10975609756098,-51,1.28048780487805,-14,0.853658536585366,4,-0.0173913043478261,-47,-0.204347826086957,137,-0.668292682926829,
5620854,10234.375,-3408,2.08951563458001,1456,0.892703862660944,-15712,9.63335377069283,-10,3.04878048780488,-50,0.609756097560976,-17,1.03658536585366,3,-0.0130434782608696,-45,-0.195652173913043,135,-0.658536585365854,
5621494,10253.90625,-3408,2.08951563458001,1472,0.902513795217658,-15776,9.67259350091968,12,2.5609756097561,-42,-0.731707317073171,-18,1.09756097560976,3,-0.0130434782608696,-46,-0.2,136,-0.663414634146342,
5622134,10273.4375,-3520,2.15818516247701,1440,0.88289393010423,-15872,9.73145309625996,35,1.89024390243902,-31,-2.13414634146341,-14,0.853658536585366,3,-0.0130434782608696,-45,-0.195652173913043,136,-0.663414634146342,
5622774,10292.96875,-3648,2.23666462293072,1472,0.902513795217658,-15936,9.77069282648682,26,1.70731707317073,-28,-1.58536585365854,-7,0.426829268292683,3,-0.0130434782608696,-48,-0.208695652173913,139,-0.678048780487805,
5623414,10312.5,-3744,2.295524218271,1472,0.902513795217658,-15856,9.72164316370325,0,2.37804878048781,-39,0,-6,0.365853658536585,4,-0.0173913043478261,-49,-0.21304347826087,137,-0.668292682926829,
5624054,10332.03125,-3712,2.27590435315757,1424,0.873083997547517,-15920,9.7608828939301,-39,2.80487804878049,-46,2.37804878048781,-11,0.670731707317073,5,-0.0217391304347826,-50,-0.217391304347826,137,-0.668292682926829,
5624694,10351.5625,-3440,2.10913549969344,1440,0.88289393010423,-15984,9.80012262415696,-61,3.35365853658537,-55,3.71951219512195,-12,0.731707317073171,5,-0.0217391304347826,-50,-0.217391304347826,138,-0.673170731707317,
5625334,10371.09375,-3296,2.02084610668302,1472,0.902513795217658,-15952,9.78050275904353,-28,2.80487804878049,-46,1.70731707317073,-6,0.365853658536585,2,-0.00869565217391304,-48,-0.208695652173913,137,-0.668292682926829,
5625974,10390.625,-3424,2.09932556713673,1344,0.824034334763949,-16000,9.80993255671367,25,2.37804878048781,-39,-1.52439024390244,2,-0.121951219512195,4,-0.0173913043478261,-45,-0.195652173913043,138,-0.673170731707317,
5626614,10410.15625,-3488,2.13856529736358,1296,0.794604537093807,-15920,9.7608828939301,33,2.5,-41,-2.01219512195122,-1,0.0609756097560976,6,-0.0260869565217391,-51,-0.221739130434783,138,-0.673170731707317,
5627254,10429.6875,-3472,2.12875536480687,1312,0.804414469650521,-15968,9.79031269160024,-17,3.04878048780488,-50,1.03658536585366,-9,0.548780487804878,5,-0.0217391304347826,-51,-0.221739130434783,138,-0.673170731707317,
5627894,10449.21875,-3280,2.0110361741263,1424,0.873083997547517,-16064,9.84917228694053,-26,3.17073170731707,-52,1.58536585365854,-11,0.670731707317073,3,-0.0130434782608696,-46,-0.2,139,-0.678048780487805,
5628534,10468.75,-3344,2.05027590435316,1472,0.902513795217658,-15888,9.74126302881668,4,3.17073170731707,-52,-0.24390243902439,-9,0.548780487804878,5,-0.0217391304347826,-48,-0.208695652173913,137,-0.668292682926829,
5629174,10488.28125,-3456,2.11894543225015,1440,0.88289393010423,-15872,9.73145309625996,8,3.29268292682927,-54,-0.487804878048781,-8,0.487804878048781,4,-0.0173913043478261,-47,-0.204347826086957,138,-0.673170731707317,
5629814,10507.8125,-3408,2.08951563458001,1392,0.853464132434089,-15904,9.75107296137339,1,3.53658536585366,-58,-0.0609756097560976,-10,0.609756097560976,5,-0.0217391304347826,-44,-0.191304347826087,135,-0.658536585365854,
5630454,10527.34375,-3408,2.08951563458001,1408,0.863274064990803,-15792,9.6824034334764,-7,3.35365853658537,-55,0.426829268292683,-9,0.548780487804878,2,-0.00869565217391304,-45,-0.195652173913043,137,-0.668292682926829,
5631094,10546.875,-3440,2.10913549969344,1360,0.833844267320662,-15776,9.67259350091968,-10,3.53658536585366,-58,0.609756097560976,-15,0.914634146341463,6,-0.0260869565217391,-46,-0.2,138,-0.673170731707317,
5631734,10566.40625,-3424,2.09932556713673,1456,0.892703862660944,-15824,9.70202329858982,-22,3.23170731707317,-53,1.34146341463415,-12,0.731707317073171,4,-0.0173913043478261,-47,-0.204347826086957,137,-0.668292682926829,
5632374,10585.9375,-3264,2.00122624156959,1472,0.902513795217658,-15888,9.74126302881668,-16,2.74390243902439,-45,0.975609756097561,-13,0.792682926829268,3,-0.0130434782608696,-49,-0.21304347826087,138,-0.673170731707317,
5633014,10605.46875,-3312,2.03065603923973,1424,0.873083997547517,-15872,9.73145309625996,12,2.6219512195122,-43,-0.731707317073171,-10,0.609756097560976,0,0,-43,-0.18695652173913,137,-0.668292682926829,
5633654,10625,-3440,2.10913549969344,1328,0.814224402207235,-15952,9.78050275904353,12,3.10975609756098,-51,-0.731707317073171,-12,0.731707317073171,5,-0.0217391304347826,-46,-0.2,136,-0.663414634146342,
