Shimmer,Shimmer,Shimmer,Shimmer,Shimmer,Shimmer,Shimmer,Shimmer,Shimmer,Shimmer,Shimmer,Shimmer,Shimmer,Shimmer,Shimmer,Shimmer,Shimmer,Shimmer,Shimmer,Shimmer,
Timestamp,Timestamp,Wide Range Accelerometer X,Wide Range Accelerometer X,Wide Range Accelerometer Y,Wide Range Accelerometer Y,Wide Range Accelerometer Z,Wide Range Accelerometer Z,Gyroscope X,Gyroscope X,Gyroscope Y,Gyroscope Y,Gyroscope Z,Gyroscope Z,Magnetometer X,Magnetometer X,Magnetometer Y,Magnetometer Y,Magnetometer Z,Magnetometer Z,
RAW,CAL,RAW,CAL,RAW,CAL,RAW,CAL,RAW,CAL,RAW,CAL,RAW,CAL,RAW,CAL,RAW,CAL,RAW,CAL,
no units,mSecs,no units,m/(sec^2),no units,m/(sec^2),no units,m/(sec^2),no units,deg/sec,no units,deg/sec,no units,deg/sec,no units,local,no units,local,no units,local,
11609974,0,5232,-3.20784794604537,-15248,-9.34886572654813,-2048,1.25567136725935,-15,2.74390243902439,-45,0.914634146341463,24,-1.46341463414634,-84,0.365217391304348,36,0.156521739130435,134,-0.653658536585366,
11610614,19.53125,5280,-3.23727774371551,-15312,-9.38810545677498,-2048,1.25567136725935,-9,2.5609756097561,-42,0.548780487804878,16,-0.975609756097561,-81,0.352173913043478,38,0.165217391304348,133,-0.648780487804878,
11611254,39.0625,5344,-3.27651747394237,-15296,-9.37829552421827,-1984,1.2164316370325,3,2.68292682926829,-44,-0.182926829268293,10,-0.609756097560976,-81,0.352173913043478,37,0.160869565217391,132,-0.64390243902439,
11611894,58.59375,5408,-3.31575720416922,-15264,-9.35867565910484,-2080,1.27529123237278,5,2.6219512195122,-43,-0.304878048780488,7,-0.426829268292683,-84,0.365217391304348,37,0.160869565217391,132,-0.64390243902439,
11612534,78.125,5264,-3.2274678111588,-15216,-9.3292458614347,-1984,1.2164316370325,0,2.74390243902439,-45,0,10,-0.609756097560976,-82,0.356521739130435,36,0.156521739130435,134,-0.653658536585366,
11613174,97.65625,5328,-3.26670754138565,-15232,-9.33905579399141,-2048,1.25567136725935,-9,2.74390243902439,-45,0.548780487804878,13,-0.792682926829268,-81,0.352173913043478,35,0.152173913043478,133,-0.648780487804878,
11613814,117.1875,5248,-3.21765787860208,-15104,-9.26057633353771,-2032,1.24586143470264,-15,2.68292682926829,-44,0.914634146341463,13,-0.792682926829268,-81,0.352173913043478,37,0.160869565217391,133,-0.648780487804878,
11614454,136.71875,5248,-3.21765787860208,-15072,-9.24095646842428,-2096,1.28510116492949,-9,2.5,-41,0.548780487804878,8,-0.487804878048781,-82,0.356521739130435,42,0.182608695652174,133,-0.648780487804878,
11615094,156.25,5232,-3.20784794604537,-15200,-9.31943592887799,-1984,1.2164316370325,-9,2.07317073170732,-34,0.548780487804878,5,-0.304878048780488,-83,0.360869565217391,39,0.169565217391304,134,-0.653658536585366,
11615734,175.78125,5312,-3.25689760882894,-15344,-9.40772532188841,-2000,1.22624156958921,-11,2.01219512195122,-33,0.670731707317073,8,-0.487804878048781,-82,0.356521739130435,35,0.152173913043478,133,-0.648780487804878,
11616374,195.3125,5312,-3.25689760882894,-15472,-9.48620478234212,-2064,1.26548129981606,-14,2.4390243902439,-40,0.853658536585366,9,-0.548780487804878,-84,0.365217391304348,37,0.160869565217391,132,-0.64390243902439,
11617014,214.84375,5248,-3.21765787860208,-15296,-9.37829552421827,-2096,1.28510116492949,-28,2.5,-41,1.70731707317073,2,-0.121951219512195,-83,0.360869565217391,38,0.165217391304348,133,-0.648780487804878,
11617654,234.375,5136,-3.14898835070509,-15136,-9.28019619865113,-2128,1.30472103004292,-43,2.86585365853659,-47,2.6219512195122,-17,1.03658536585366,-81,0.352173913043478,39,0.169565217391304,132,-0.64390243902439,
11618294,253.90625,5264,-3.2274678111588,-14976,-9.182096873084,-2224,1.3635806253832,-42,2.98780487804878,-49,2.5609756097561,-30,1.82926829268293,-82,0.356521739130435,37,0.160869565217391,132,-0.64390243902439,
11618934,273.4375,5216,-3.19803801348866,-14880,-9.12323727774372,-2048,1.25567136725935,-30,3.17073170731707,-52,1.82926829268293,-26,1.58536585365854,-82,0.356521739130435,36,0.156521739130435,132,-0.64390243902439,
11619574,292.96875,5024,-3.08031882280809,-14992,-9.19190680564071,-1952,1.19681177191907,-37,3.23170731707317,-53,2.25609756097561,-15,0.914634146341463,-81,0.352173913043478,38,0.165217391304348,132,-0.64390243902439,
11620214,312.5,4928,-3.02145922746781,-15152,-9.29000613120785,-1936,1.18700183936235,-70,2.92682926829268,-48,4.26829268292683,1,-0.0609756097560976,-82,0.356521739130435,38,0.165217391304348,132,-0.64390243902439,
11620854,332.03125,5088,-3.11955855303495,-15264,-9.35867565910484,-1904,1.16738197424893,-91,2.68292682926829,-44,5.54878048780488,6,-0.365853658536585,-83,0.360869565217391,36,0.156521739130435,134,-0.653658536585366,
11621494,351.5625,5184,-3.17841814837523,-15328,-9.3979153893317,-1728,1.05947271612508,-77,2.5,-41,4.69512195121951,10,-0.609756097560976,-81,0.352173913043478,36,0.156521739130435,133,-0.648780487804878,
11622134,371.09375,5184,-3.17841814837523,-15248,-9.34886572654813,-1840,1.12814224402207,-40,2.01219512195122,-33,2.4390243902439,23,-1.40243902439024,-82,0.356521739130435,37,0.160869565217391,133,-0.648780487804878,
11622774,390.625,5152,-3.1587982832618,-15184,-9.30962599632127,-1760,1.0790925812385,-19,0.975609756097561,-16,1.15853658536585,34,-2.07317073170732,-83,0.360869565217391,36,0.156521739130435,133,-0.648780487804878,
11623414,410.15625,5024,-3.08031882280809,-14976,-9.182096873084,-1760,1.0790925812385,-7,0.548780487804878,-9,0.426829268292683,53,-3.23170731707317,-82,0.356521739130435,40,0.173913043478261,134,-0.653658536585366,
11624054,429.6875,4992,-3.06069895769467,-15008,-9.20171673819742,-1760,1.0790925812385,-10,-0.365853658536585,6,0.609756097560976,69,-4.20731707317073,-81,0.352173913043478,36,0.156521739130435,133,-0.648780487804878,
11624694,449.21875,5104,-3.12936848559166,-15088,-9.25076640098099,-1744,1.06928264868179,-20,-1.03658536585366,17,1.21951219512195,82,-5,-82,0.356521739130435,35,0.152173913043478,133,-0.648780487804878,
11625334,468.75,5136,-3.14898835070509,-15248,-9.34886572654813,-1824,1.11833231146536,-34,-0.975609756097561,16,2.07317073170732,76,-4.63414634146342,-83,0.360869565217391,39,0.169565217391304,134,-0.653658536585366,
11625974,488.28125,5184,-3.17841814837523,-15392,-9.43715511955855,-1808,1.10852237890864,-35,-0.548780487804878,9,2.13414634146341,68,-4.14634146341463,-82,0.356521739130435,39,0.169565217391304,133,-0.648780487804878,
11626614,507.8125,5200,-3.18822808093194,-15568,-9.5450643776824,-1904,1.16738197424893,-45,0.182926829268293,-3,2.74390243902439,50,-3.04878048780488,-82,0.356521739130435,35,0.152173913043478,133,-0.648780487804878,
11627254,527.34375,5152,-3.1587982832618,-15488,-9.49601471489883,-1872,1.1477621091355,-61,1.21951219512195,-20,3.71951219512195,28,-1.70731707317073,-82,0.356521739130435,36,0.156521739130435,133,-0.648780487804878,
11627894,546.875,5088,-3.11955855303495,-15344,-9.40772532188841,-1824,1.11833231146536,-86,2.07317073170732,-34,5.24390243902439,13,-0.792682926829268,-82,0.356521739130435,37,0.160869565217391,131,-0.639024390243902,
11628534,566.40625,4960,-3.04107909258124,-15264,-9.35867565910484,-1872,1.1477621091355,-115,2.5,-41,7.01219512195122,-4,0.24390243902439,-81,0.352173913043478,38,0.165217391304348,133,-0.648780487804878,
11629174,585.9375,4912,-3.0116492949111,-15168,-9.29981606376456,-1776,1.08890251379522,-135,3.23170731707317,-53,8.23170731707317,-12,0.731707317073171,-83,0.360869565217391,38,0.165217391304348,132,-0.64390243902439,
11629814,605.46875,4912,-3.0116492949111,-14944,-9.16247700797057,-1680,1.03004291845494,-135,3.10975609756098,-51,8.23170731707317,-8,0.487804878048781,-84,0.365217391304348,39,0.169565217391304,131,-0.639024390243902,
11630454,625,4912,-3.0116492949111,-14912,-9.14285714285714,-1664,1.02023298589822,-125,2.74390243902439,-45,7.6219512195122,-3,0.182926829268293,-81,0.352173913043478,38,0.165217391304348,131,-0.639024390243902,
11631094,644.53125,4880,-2.99202942979767,-15024,-9.21152667075414,-1680,1.03004291845494,-114,2.13414634146341,-35,6.95121951219512,15,-0.914634146341463,-82,0.356521739130435,37,0.160869565217391,131,-0.639024390243902,
11631734,664.0625,4896,-3.00183936235438,-15216,-9.3292458614347,-1696,1.03985285101165,-112,1.40243902439024,-23,6.82926829268293,24,-1.46341463414634,-85,0.369565217391304,35,0.152173913043478,133,-0.648780487804878,
11632374,683.59375,4912,-3.0116492949111,-15328,-9.3979153893317,-1824,1.11833231146536,-110,1.34146341463415,-22,6.70731707317073,34,-2.07317073170732,-83,0.360869565217391,38,0.165217391304348,132,-0.64390243902439,
11633014,703.125,4800,-2.9429797670141,-15360,-9.41753525444513,-1808,1.10852237890864,-147,2.01219512195122,-33,8.96341463414634,30,-1.82926829268293,-83,0.360869565217391,36,0.156521739130435,131,-0.639024390243902,
11633654,722.65625,4864,-2.98221949724096,-15376,-9.42734518700184,-1728,1.05947271612508,-194,2.74390243902439,-45,11.8292682926829,22,-1.34146341463415,-81,0.352173913043478,36,0.156521739130435,132,-0.64390243902439,
11634294,742.1875,5008,-3.07050889025138,-15360,-9.41753525444513,-1840,1.12814224402207,-208,3.47560975609756,-57,12.6829268292683,11,-0.670731707317073,-84,0.365217391304348,41,0.178260869565217,133,-0.648780487804878,
11634934,761.71875,5168,-3.16860821581852,-15616,-9.57449417535254,-1856,1.13795217657879,-184,3.84146341463415,-63,11.219512195122,8,-0.487804878048781,-85,0.369565217391304,40,0.173913043478261,132,-0.64390243902439,
11635574,781.25,5152,-3.1587982832618,-15760,-9.66278356836297,-1840,1.12814224402207,-167,4.32926829268293,-71,10.1829268292683,6,-0.365853658536585,-84,0.365217391304348,37,0.160869565217391,132,-0.64390243902439,
11636214,800.78125,5120,-3.13917841814837,-15760,-9.66278356836297,-1776,1.08890251379522,-175,5.30487804878049,-87,10.6707317073171,0,0,-84,0.365217391304348,36,0.156521739130435,133,-0.648780487804878,
11636854,820.3125,5072,-3.10974862047823,-15664,-9.60392397302268,-1792,1.09871244635193,-196,6.58536585365854,-108,11.9512195121951,-18,1.09756097560976,-85,0.369565217391304,38,0.165217391304348,131,-0.639024390243902,
11637494,839.84375,4912,-3.0116492949111,-15552,-9.53525444512569,-1824,1.11833231146536,-213,7.37804878048781,-121,12.9878048780488,-32,1.95121951219512,-85,0.369565217391304,39,0.169565217391304,131,-0.639024390243902,
11638134,859.375,4944,-3.03126916002452,-15488,-9.49601471489883,-1744,1.06928264868179,-217,8.47560975609756,-139,13.2317073170732,-39,2.37804878048781,-85,0.369565217391304,42,0.182608695652174,133,-0.648780487804878,
11638774,878.90625,4880,-2.99202942979767,-15424,-9.45677498467198,-1696,1.03985285101165,-217,9.45121951219512,-155,13.2317073170732,-38,2.31707317073171,-85,0.369565217391304,37,0.160869565217391,133,-0.648780487804878,
11639414,898.4375,4880,-2.99202942979767,-15472,-9.48620478234212,-1648,1.01042305334151,-226,10,-164,13.780487804878,-26,1.58536585365854,-85,0.369565217391304,39,0.169565217391304,133,-0.648780487804878,
11640054,917.96875,4864,-2.98221949724096,-15456,-9.47639484978541,-1616,0.990803188228081,-235,10.4878048780488,-172,14.3292682926829,-20,1.21951219512195,-85,0.369565217391304,37,0.160869565217391,131,-0.639024390243902,
11640694,937.5,4864,-2.98221949724096,-15488,-9.49601471489883,-1568,0.96137339055794,-250,10.9756097560976,-180,15.2439024390244,-19,1.15853658536585,-89,0.38695652173913,39,0.169565217391304,132,-0.64390243902439,
11641334,957.03125,4864,-2.98221949724096,-15456,-9.47639484978541,-1456,0.892703862660944,-258,10.9146341463415,-179,15.7317073170732,-13,0.792682926829268,-88,0.382608695652174,35,0.152173913043478,134,-0.653658536585366,
11641974,976.5625,4912,-3.0116492949111,-15568,-9.5450643776824,-1392,0.853464132434089,-262,10.6707317073171,-175,15.9756097560976,-8,0.487804878048781,-87,0.378260869565217,39,0.169565217391304,134,-0.653658536585366,
11642614,996.09375,4960,-3.04107909258124,-15696,-9.62354383813611,-1424,0.873083997547517,-260,10.2439024390244,-168,15.8536585365854,-5,0.304878048780488,-86,0.373913043478261,34,0.147826086956522,133,-0.648780487804878,
11643254,1015.625,4960,-3.04107909258124,-15632,-9.58430410790926,-1408,0.863274064990803,-257,9.87804878048781,-162,15.6707317073171,-3,0.182926829268293,-88,0.382608695652174,39,0.169565217391304,135,-0.658536585365854,
11643894,1035.15625,5040,-3.09012875536481,-15472,-9.48620478234212,-1408,0.863274064990803,-226,9.45121951219512,-155,13.780487804878,10,-0.609756097560976,-88,0.382608695652174,38,0.165217391304348,133,-0.648780487804878,
11644534,1054.6875,4976,-3.05088902513795,-15296,-9.37829552421827,-1392,0.853464132434089,-192,8.59756097560976,-141,11.7073170731707,24,-1.46341463414634,-89,0.38695652173913,39,0.169565217391304,134,-0.653658536585366,
11645174,1074.21875,4912,-3.0116492949111,-15200,-9.31943592887799,-1376,0.843654199877376,-165,7.98780487804878,-131,10.0609756097561,44,-2.68292682926829,-88,0.382608695652174,35,0.152173913043478,136,-0.663414634146342,
11645814,1093.75,4944,-3.03126916002452,-15088,-9.25076640098099,-1392,0.853464132434089,-149,6.58536585365854,-108,9.08536585365854,68,-4.14634146341463,-89,0.38695652173913,37,0.160869565217391,134,-0.653658536585366,
11646454,1113.28125,5056,-3.09993868792152,-14992,-9.19190680564071,-1408,0.863274064990803,-126,5,-82,7.68292682926829,105,-6.40243902439024,-88,0.382608695652174,39,0.169565217391304,134,-0.653658536585366,
11647094,1132.8125,5168,-3.16860821581852,-15024,-9.21152667075414,-1424,0.873083997547517,-108,3.78048780487805,-62,6.58536585365854,125,-7.6219512195122,-89,0.38695652173913,34,0.147826086956522,135,-0.658536585365854,
11647734,1152.34375,5392,-3.30594727161251,-15008,-9.20171673819742,-1568,0.96137339055794,-70,2.4390243902439,-40,4.26829268292683,141,-8.59756097560976,-88,0.382608695652174,39,0.169565217391304,134,-0.653658536585366,
11648374,1171.875,5456,-3.34518700183936,-15136,-9.28019619865113,-1584,0.971183323114654,-27,1.82926829268293,-30,1.64634146341463,142,-8.65853658536586,-87,0.378260869565217,38,0.165217391304348,134,-0.653658536585366,
11649014,1191.40625,5392,-3.30594727161251,-15184,-9.30962599632127,-1616,0.990803188228081,7,1.40243902439024,-23,-0.426829268292683,138,-8.41463414634146,-87,0.378260869565217,37,0.160869565217391,134,-0.653658536585366,
11649654,1210.9375,5408,-3.31575720416922,-15296,-9.37829552421827,-1648,1.01042305334151,8,0.975609756097561,-16,-0.487804878048781,121,-7.37804878048781,-89,0.38695652173913,35,0.152173913043478,135,-0.658536585365854,
11650294,1230.46875,5520,-3.38442673206622,-15344,-9.40772532188841,-1696,1.03985285101165,0,0.975609756097561,-16,0,98,-5.97560975609756,-89,0.38695652173913,36,0.156521739130435,135,-0.658536585365854,
11650934,1250,5600,-3.43347639484979,-15408,-9.44696505211527,-1776,1.08890251379522,13,0.792682926829268,-13,-0.792682926829268,76,-4.63414634146342,-86,0.373913043478261,35,0.152173913043478,134,-0.653658536585366,
11651574,1269.53125,5632,-3.45309625996321,-15360,-9.41753525444513,-1728,1.05947271612508,29,0.853658536585366,-14,-1.76829268292683,52,-3.17073170731707,-87,0.378260869565217,34,0.147826086956522,133,-0.648780487804878,
11652214,1289.0625,5520,-3.38442673206622,-15328,-9.3979153893317,-1872,1.1477621091355,38,1.15853658536585,-19,-2.31707317073171,28,-1.70731707317073,-87,0.378260869565217,35,0.152173913043478,134,-0.653658536585366,
11652854,1308.59375,5504,-3.3746167995095,-15264,-9.35867565910484,-1888,1.15757204169221,31,1.34146341463415,-22,-1.89024390243902,3,-0.182926829268293,-88,0.382608695652174,38,0.165217391304348,134,-0.653658536585366,
11653494,1328.125,5552,-3.40404659717964,-15456,-9.47639484978541,-1888,1.15757204169221,30,1.82926829268293,-30,-1.82926829268293,-14,0.853658536585366,-86,0.373913043478261,35,0.152173913043478,134,-0.653658536585366,
11654134,1347.65625,5520,-3.38442673206622,-15520,-9.51563458001226,-1984,1.2164316370325,49,2.01219512195122,-33,-2.98780487804878,-29,1.76829268292683,-88,0.382608695652174,40,0.173913043478261,134,-0.653658536585366,
11654774,1367.1875,5440,-3.33537706928265,-15328,-9.3979153893317,-1952,1.19681177191907,72,2.25609756097561,-37,-4.39024390243902,-44,2.68292682926829,-89,0.38695652173913,39,0.169565217391304,134,-0.653658536585366,
11655414,1386.71875,5408,-3.31575720416922,-15280,-9.36848559166156,-2096,1.28510116492949,98,2.19512195121951,-36,-5.97560975609756,-50,3.04878048780488,-86,0.373913043478261,34,0.147826086956522,134,-0.653658536585366,
11656054,1406.25,5280,-3.23727774371551,-15248,-9.34886572654813,-2128,1.30472103004292,109,2.98780487804878,-49,-6.64634146341464,-61,3.71951219512195,-87,0.378260869565217,38,0.165217391304348,134,-0.653658536585366,
11656694,1425.78125,5024,-3.08031882280809,-15280,-9.36848559166156,-2192,1.34396076026977,95,4.51219512195122,-74,-5.79268292682927,-78,4.75609756097561,-87,0.378260869565217,36,0.156521739130435,135,-0.658536585365854,
11657334,1445.3125,4896,-3.00183936235438,-15360,-9.41753525444513,-2112,1.2949110974862,46,6.89024390243902,-113,-2.80487804878049,-102,6.21951219512195,-88,0.382608695652174,39,0.169565217391304,133,-0.648780487804878,
11657974,1464.84375,4816,-2.95278969957082,-15584,-9.55487431023912,-2128,1.30472103004292,-3,8.78048780487805,-144,0.182926829268293,-132,8.04878048780488,-86,0.373913043478261,35,0.152173913043478,135,-0.658536585365854,
11658614,1484.375,4720,-2.89393010423053,-15536,-9.52544451256898,-2080,1.27529123237278,-42,10.4878048780488,-172,2.5609756097561,-156,9.51219512195122,-87,0.378260869565217,36,0.156521739130435,134,-0.653658536585366,
11659254,1503.90625,4752,-2.91354996934396,-15552,-9.53525444512569,-1840,1.12814224402207,-55,11.219512195122,-184,3.35365853658537,-164,10,-86,0.373913043478261,37,0.160869565217391,135,-0.658536585365854,
11659894,1523.4375,4688,-2.87431023911711,-15488,-9.49601471489883,-1728,1.05947271612508,-52,11.0975609756098,-182,3.17073170731707,-158,9.63414634146342,-87,0.378260869565217,37,0.160869565217391,133,-0.648780487804878,
11660534,1542.96875,4672,-2.86450030656039,-15536,-9.52544451256898,-1760,1.0790925812385,-44,10.7926829268293,-177,2.68292682926829,-136,8.29268292682927,-90,0.391304347826087,37,0.160869565217391,135,-0.658536585365854,
11661174,1562.5,4640,-2.84488044144697,-15456,-9.47639484978541,-1744,1.06928264868179,-22,10.1829268292683,-167,1.34146341463415,-107,6.52439024390244,-89,0.38695652173913,34,0.147826086956522,135,-0.658536585365854,
11661814,1582.03125,4688,-2.87431023911711,-15312,-9.38810545677498,-1744,1.06928264868179,2,9.39024390243902,-154,-0.121951219512195,-72,4.39024390243902,-87,0.378260869565217,36,0.156521739130435,136,-0.663414634146342,
11662454,1601.5625,4544,-2.78602084610668,-15136,-9.28019619865113,-1712,1.04966278356836,34,8.35365853658537,-137,-2.07317073170732,-45,2.74390243902439,-90,0.391304347826087,34,0.147826086956522,135,-0.658536585365854,
11663094,1621.09375,4464,-2.73697118332311,-14944,-9.16247700797057,-1648,1.01042305334151,42,6.95121951219512,-114,-2.5609756097561,-17,1.03658536585366,-90,0.391304347826087,35,0.152173913043478,135,-0.658536585365854,
11663734,1640.625,4432,-2.71735131820969,-14896,-9.13304721030043,-1696,1.03985285101165,47,5.79268292682927,-95,-2.86585365853659,7,-0.426829268292683,-88,0.382608695652174,37,0.160869565217391,136,-0.663414634146342,
11664374,1660.15625,4576,-2.80564071122011,-15056,-9.23114653586757,-1664,1.02023298589822,46,4.69512195121951,-77,-2.80487804878049,30,-1.82926829268293,-88,0.382608695652174,36,0.156521739130435,134,-0.653658536585366,
11665014,1679.6875,4640,-2.84488044144697,-15120,-9.27038626609442,-1744,1.06928264868179,56,4.08536585365854,-67,-3.41463414634146,57,-3.47560975609756,-87,0.378260869565217,32,0.139130434782609,135,-0.658536585365854,
11665654,1699.21875,4736,-2.90374003678725,-15248,-9.34886572654813,-1680,1.03004291845494,56,3.53658536585366,-58,-3.41463414634146,69,-4.20731707317073,-89,0.38695652173913,37,0.160869565217391,135,-0.658536585365854,
11666294,1718.75,4768,-2.92335990190067,-15360,-9.41753525444513,-1616,0.990803188228081,44,3.04878048780488,-50,-2.68292682926829,76,-4.63414634146342,-89,0.38695652173913,36,0.156521739130435,137,-0.668292682926829,
11666934,1738.28125,4848,-2.97240956468424,-15376,-9.42734518700184,-1584,0.971183323114654,23,2.74390243902439,-45,-1.40243902439024,74,-4.51219512195122,-87,0.378260869565217,32,0.139130434782609,137,-0.668292682926829,
11667574,1757.8125,4944,-3.03126916002452,-15424,-9.45677498467198,-1696,1.03985285101165,7,2.37804878048781,-39,-0.426829268292683,66,-4.02439024390244,-88,0.382608695652174,37,0.160869565217391,135,-0.658536585365854,
11668214,1777.34375,5008,-3.07050889025138,-15360,-9.41753525444513,-1664,1.02023298589822,0,2.13414634146341,-35,0,58,-3.53658536585366,-87,0.378260869565217,35,0.152173913043478,135,-0.658536585365854,
11668854,1796.875,5088,-3.11955855303495,-15296,-9.37829552421827,-1680,1.03004291845494,16,1.03658536585366,-17,-0.975609756097561,50,-3.04878048780488,-87,0.378260869565217,37,0.160869565217391,134,-0.653658536585366,
11669494,1816.40625,5120,-3.13917841814837,-15168,-9.29981606376456,-1712,1.04966278356836,40,0.426829268292683,-7,-2.4390243902439,52,-3.17073170731707,-87,0.378260869565217,39,0.169565217391304,135,-0.658536585365854,
11670134,1835.9375,5088,-3.11955855303495,-15264,-9.35867565910484,-1984,1.2164316370325,58,-0.24390243902439,4,-3.53658536585366,51,-3.10975609756098,-88,0.382608695652174,33,0.143478260869565,136,-0.663414634146342,
11670774,1855.46875,5040,-3.09012875536481,-15264,-9.35867565910484,-1984,1.2164316370325,49,0.0609756097560976,-1,-2.98780487804878,51,-3.10975609756098,-86,0.373913043478261,36,0.156521739130435,136,-0.663414634146342,
11671414,1875,4976,-3.05088902513795,-15344,-9.40772532188841,-2032,1.24586143470264,12,0.975609756097561,-16,-0.731707317073171,44,-2.68292682926829,-86,0.373913043478261,36,0.156521739130435,135,-0.658536585365854,
11672054,1894.53125,4992,-3.06069895769467,-15440,-9.46658491722869,-2160,1.32434089515635,-32,2.19512195121951,-36,1.95121951219512,31,-1.89024390243902,-88,0.382608695652174,34,0.147826086956522,136,-0.663414634146342,
11672694,1914.0625,5088,-3.11955855303495,-15440,-9.46658491722869,-2064,1.26548129981606,-56,3.23170731707317,-53,3.41463414634146,11,-0.670731707317073,-88,0.382608695652174,33,0.143478260869565,135,-0.658536585365854,
11673334,1933.59375,5088,-3.11955855303495,-15520,-9.51563458001226,-2064,1.26548129981606,-62,3.84146341463415,-63,3.78048780487805,-13,0.792682926829268,-86,0.373913043478261,32,0.139130434782609,135,-0.658536585365854,
11673974,1953.125,5184,-3.17841814837523,-15536,-9.52544451256898,-2128,1.30472103004292,-60,4.14634146341463,-68,3.65853658536585,-36,2.19512195121951,-86,0.373913043478261,34,0.147826086956522,134,-0.653658536585366,
11674614,1972.65625,5152,-3.1587982832618,-15584,-9.55487431023912,-2112,1.2949110974862,-58,3.90243902439024,-64,3.53658536585366,-54,3.29268292682927,-88,0.382608695652174,40,0.173913043478261,135,-0.658536585365854,
11675254,1992.1875,5216,-3.19803801348866,-15680,-9.6137339055794,-2128,1.30472103004292,-51,3.84146341463415,-63,3.10975609756098,-55,3.35365853658537,-88,0.382608695652174,38,0.165217391304348,136,-0.663414634146342,
11675894,2011.71875,5184,-3.17841814837523,-15680,-9.6137339055794,-2192,1.34396076026977,-31,3.96341463414634,-65,1.89024390243902,-54,3.29268292682927,-86,0.373913043478261,34,0.147826086956522,135,-0.658536585365854,
11676534,2031.25,5072,-3.10974862047823,-15536,-9.52544451256898,-2272,1.39301042305334,-2,3.96341463414634,-65,0.121951219512195,-53,3.23170731707317,-87,0.378260869565217,33,0.143478260869565,137,-0.668292682926829,
11677174,2050.78125,5040,-3.09012875536481,-15376,-9.42734518700184,-2288,1.40282035561006,20,4.32926829268293,-71,-1.21951219512195,-54,3.29268292682927,-87,0.378260869565217,35,0.152173913043478,135,-0.658536585365854,
11677814,2070.3125,4928,-3.02145922746781,-15152,-9.29000613120785,-2320,1.42244022072348,39,4.51219512195122,-74,-2.37804878048781,-57,3.47560975609756,-91,0.395652173913043,37,0.160869565217391,135,-0.658536585365854,
11678454,2089.84375,4800,-2.9429797670141,-14944,-9.16247700797057,-2288,1.40282035561006,50,4.32926829268293,-71,-3.04878048780488,-51,3.10975609756098,-87,0.378260869565217,32,0.139130434782609,136,-0.663414634146342,
11679094,2109.375,4816,-2.95278969957082,-14880,-9.12323727774372,-2224,1.3635806253832,65,3.71951219512195,-61,-3.96341463414634,-38,2.31707317073171,-88,0.382608695652174,35,0.152173913043478,136,-0.663414634146342,
11679734,2128.90625,4896,-3.00183936235438,-15040,-9.22133660331085,-2176,1.33415082771306,82,3.04878048780488,-50,-5,-15,0.914634146341463,-86,0.373913043478261,36,0.156521739130435,135,-0.658536585365854,
11680374,2148.4375,4800,-2.9429797670141,-15392,-9.43715511955855,-2176,1.33415082771306,85,3.29268292682927,-54,-5.18292682926829,8,-0.487804878048781,-88,0.382608695652174,38,0.165217391304348,134,-0.653658536585366,
11681014,2167.96875,4736,-2.90374003678725,-15488,-9.49601471489883,-2160,1.32434089515635,54,4.26829268292683,-70,-3.29268292682927,13,-0.792682926829268,-88,0.382608695652174,34,0.147826086956522,135,-0.658536585365854,
11681654,2187.5,4800,-2.9429797670141,-15472,-9.48620478234212,-2192,1.34396076026977,3,4.9390243902439,-81,-0.182926829268293,0,0,-88,0.382608695652174,33,0.143478260869565,136,-0.663414634146342,
11682294,2207.03125,4880,-2.99202942979767,-15376,-9.42734518700184,-2112,1.2949110974862,-30,5.60975609756098,-92,1.82926829268293,-15,0.914634146341463,-86,0.373913043478261,32,0.139130434782609,135,-0.658536585365854,
11682934,2226.5625,4992,-3.06069895769467,-15184,-9.30962599632127,-2016,1.23605150214592,-21,5.60975609756098,-92,1.28048780487805,-25,1.52439024390244,-87,0.378260869565217,32,0.139130434782609,136,-0.663414634146342,
11683574,2246.09375,4992,-3.06069895769467,-15024,-9.21152667075414,-2080,1.27529123237278,2,4.9390243902439,-81,-0.121951219512195,-20,1.21951219512195,-88,0.382608695652174,36,0.156521739130435,136,-0.663414634146342,
11684214,2265.625,4848,-2.97240956468424,-14864,-9.113427345187,-2032,1.24586143470264,11,4.26829268292683,-70,-0.670731707317073,-7,0.426829268292683,-88,0.382608695652174,37,0.160869565217391,137,-0.668292682926829,
11684854,2285.15625,4784,-2.93316983445739,-14880,-9.12323727774372,-2016,1.23605150214592,-13,3.90243902439024,-64,0.792682926829268,9,-0.548780487804878,-86,0.373913043478261,33,0.143478260869565,136,-0.663414634146342,
11685494,2304.6875,4880,-2.99202942979767,-14896,-9.13304721030043,-2048,1.25567136725935,-46,3.78048780487805,-62,2.80487804878049,14,-0.853658536585366,-87,0.378260869565217,33,0.143478260869565,137,-0.668292682926829,
11686134,2324.21875,5024,-3.08031882280809,-15120,-9.27038626609442,-2080,1.27529123237278,-67,3.47560975609756,-57,4.08536585365854,15,-0.914634146341463,-89,0.38695652173913,36,0.156521739130435,137,-0.668292682926829,
11686774,2343.75,5216,-3.19803801348866,-15360,-9.41753525444513,-2064,1.26548129981606,-60,3.35365853658537,-55,3.65853658536585,9,-0.548780487804878,-87,0.378260869565217,34,0.147826086956522,135,-0.658536585365854,
11687414,2363.28125,5200,-3.18822808093194,-15440,-9.46658491722869,-2112,1.2949110974862,-46,3.65853658536585,-60,2.80487804878049,7,-0.426829268292683,-89,0.38695652173913,36,0.156521739130435,136,-0.663414634146342,
11688054,2382.8125,5168,-3.16860821581852,-15584,-9.55487431023912,-2112,1.2949110974862,-37,3.96341463414634,-65,2.25609756097561,2,-0.121951219512195,-87,0.378260869565217,37,0.160869565217391,134,-0.653658536585366,
11688694,2402.34375,5280,-3.23727774371551,-15488,-9.49601471489883,-2128,1.30472103004292,-36,4.02439024390244,-66,2.19512195121951,-5,0.304878048780488,-86,0.373913043478261,36,0.156521739130435,135,-0.658536585365854,
11689334,2421.875,5232,-3.20784794604537,-15264,-9.35867565910484,-2016,1.23605150214592,-20,4.32926829268293,-71,1.21951219512195,-11,0.670731707317073,-86,0.373913043478261,36,0.156521739130435,136,-0.663414634146342,
11689974,2441.40625,5280,-3.23727774371551,-15120,-9.27038626609442,-2016,1.23605150214592,3,3.29268292682927,-54,-0.182926829268293,-4,0.24390243902439,-89,0.38695652173913,33,0.143478260869565,137,-0.668292682926829,
11690614,2460.9375,5264,-3.2274678111588,-15024,-9.21152667075414,-2048,1.25567136725935,37,2.4390243902439,-40,-2.25609756097561,10,-0.609756097560976,-87,0.378260869565217,34,0.147826086956522,137,-0.668292682926829,
11691254,2480.46875,5360,-3.28632740649908,-14864,-9.113427345187,-2016,1.23605150214592,76,1.58536585365854,-26,-4.63414634146342,26,-1.58536585365854,-89,0.38695652173913,39,0.169565217391304,135,-0.658536585365854,
11691894,2500,5408,-3.31575720416922,-14976,-9.182096873084,-2080,1.27529123237278,93,0.792682926829268,-13,-5.67073170731707,35,-2.13414634146341,-89,0.38695652173913,36,0.156521739130435,136,-0.663414634146342,
11692534,2519.53125,5328,-3.26670754138565,-14992,-9.19190680564071,-2048,1.25567136725935,99,0.182926829268293,-3,-6.03658536585366,40,-2.4390243902439,-87,0.378260869565217,34,0.147826086956522,136,-0.663414634146342,
11693174,2539.0625,5456,-3.34518700183936,-15040,-9.22133660331085,-2096,1.28510116492949,106,-0.426829268292683,7,-6.46341463414634,31,-1.89024390243902,-87,0.378260869565217,32,0.139130434782609,134,-0.653658536585366,
11693814,2558.59375,5488,-3.36480686695279,-15232,-9.33905579399141,-2128,1.30472103004292,108,-0.487804878048781,8,-6.58536585365854,20,-1.21951219512195,-88,0.382608695652174,32,0.139130434782609,135,-0.658536585365854,
11694454,2578.125,5360,-3.28632740649908,-15248,-9.34886572654813,-2160,1.32434089515635,116,-0.24390243902439,4,-7.07317073170732,1,-0.0609756097560976,-87,0.378260869565217,37,0.160869565217391,137,-0.668292682926829,
11695094,2597.65625,5328,-3.26670754138565,-15296,-9.37829552421827,-2192,1.34396076026977,94,0.304878048780488,-5,-5.73170731707317,-34,2.07317073170732,-86,0.373913043478261,35,0.152173913043478,136,-0.663414634146342,
11695734,2617.1875,5200,-3.18822808093194,-15376,-9.42734518700184,-2224,1.3635806253832,72,1.46341463414634,-24,-4.39024390243902,-67,4.08536585365854,-87,0.378260869565217,32,0.139130434782609,135,-0.658536585365854,
11696374,2636.71875,5136,-3.14898835070509,-15392,-9.43715511955855,-2272,1.39301042305334,35,2.37804878048781,-39,-2.13414634146341,-104,6.34146341463415,-85,0.369565217391304,34,0.147826086956522,137,-0.668292682926829,
11697014,2656.25,5104,-3.12936848559166,-15392,-9.43715511955855,-2304,1.41263028816677,3,3.47560975609756,-57,-0.182926829268293,-132,8.04878048780488,-85,0.369565217391304,35,0.152173913043478,135,-0.658536585365854,
11697654,2675.78125,5040,-3.09012875536481,-15488,-9.49601471489883,-2320,1.42244022072348,-15,4.39024390243902,-72,0.914634146341463,-154,9.39024390243902,-86,0.373913043478261,37,0.160869565217391,135,-0.658536585365854,
11698294,2695.3125,4896,-3.00183936235438,-15424,-9.45677498467198,-2304,1.41263028816677,-34,5.91463414634146,-97,2.07317073170732,-167,10.1829268292683,-86,0.373913043478261,33,0.143478260869565,136,-0.663414634146342,
11698934,2714.84375,4848,-2.97240956468424,-15408,-9.44696505211527,-2176,1.33415082771306,-55,6.34146341463415,-104,3.35365853658537,-177,10.7926829268293,-87,0.378260869565217,34,0.147826086956522,137,-0.668292682926829,
11699574,2734.375,4880,-2.99202942979767,-15344,-9.40772532188841,-2192,1.34396076026977,-63,6.82926829268293,-112,3.84146341463415,-174,10.609756097561,-87,0.378260869565217,36,0.156521739130435,136,-0.663414634146342,
11700214,2753.90625,4880,-2.99202942979767,-15280,-9.36848559166156,-2208,1.35377069282649,-56,6.70731707317073,-110,3.41463414634146,-166,10.1219512195122,-87,0.378260869565217,34,0.147826086956522,136,-0.663414634146342,
11700854,2773.4375,4848,-2.97240956468424,-15200,-9.31943592887799,-2176,1.33415082771306,-42,6.52439024390244,-107,2.5609756097561,-144,8.78048780487805,-89,0.38695652173913,34,0.147826086956522,137,-0.668292682926829,
11701494,2792.96875,4752,-2.91354996934396,-15120,-9.27038626609442,-2208,1.35377069282649,-21,5.85365853658537,-96,1.28048780487805,-114,6.95121951219512,-89,0.38695652173913,33,0.143478260869565,137,-0.668292682926829,
11702134,2812.5,4704,-2.88412017167382,-15072,-9.24095646842428,-2144,1.31453096259963,-9,5.0609756097561,-83,0.548780487804878,-75,4.57317073170732,-87,0.378260869565217,33,0.143478260869565,135,-0.658536585365854,
11702774,2832.03125,4736,-2.90374003678725,-15088,-9.25076640098099,-2144,1.31453096259963,-3,4.26829268292683,-70,0.182926829268293,-39,2.37804878048781,-88,0.382608695652174,32,0.139130434782609,136,-0.663414634146342,
11703414,2851.5625,4784,-2.93316983445739,-15168,-9.29981606376456,-2144,1.31453096259963,-5,3.65853658536585,-60,0.304878048780488,-1,0.0609756097560976,-89,0.38695652173913,39,0.169565217391304,136,-0.663414634146342,
11704054,2871.09375,4880,-2.99202942979767,-15200,-9.31943592887799,-2080,1.27529123237278,-2,3.29268292682927,-54,0.121951219512195,22,-1.34146341463415,-89,0.38695652173913,37,0.160869565217391,137,-0.668292682926829,
11704694,2890.625,4896,-3.00183936235438,-15344,-9.40772532188841,-2096,1.28510116492949,-3,2.98780487804878,-49,0.182926829268293,41,-2.5,-88,0.382608695652174,33,0.143478260869565,137,-0.668292682926829,
11705334,2910.15625,4944,-3.03126916002452,-15360,-9.41753525444513,-1984,1.2164316370325,-19,2.92682926829268,-48,1.15853658536585,50,-3.04878048780488,-87,0.378260869565217,32,0.139130434782609,138,-0.673170731707317,
11705974,2929.6875,4976,-3.05088902513795,-15360,-9.41753525444513,-2032,1.24586143470264,-24,2.92682926829268,-48,1.46341463414634,59,-3.59756097560976,-89,0.38695652173913,35,0.152173913043478,136,-0.663414634146342,
11706614,2949.21875,5008,-3.07050889025138,-15312,-9.38810545677498,-2080,1.27529123237278,-31,2.74390243902439,-45,1.89024390243902,62,-3.78048780487805,-88,0.382608695652174,34,0.147826086956522,135,-0.658536585365854,
11707254,2968.75,5040,-3.09012875536481,-15232,-9.33905579399141,-2176,1.33415082771306,-38,2.6219512195122,-43,2.31707317073171,61,-3.71951219512195,-87,0.378260869565217,32,0.139130434782609,138,-0.673170731707317,
11707894,2988.28125,5136,-3.14898835070509,-15232,-9.33905579399141,-2096,1.28510116492949,-40,2.37804878048781,-39,2.4390243902439,62,-3.78048780487805,-89,0.38695652173913,33,0.143478260869565,137,-0.668292682926829,
11708534,3007.8125,5168,-3.16860821581852,-15216,-9.3292458614347,-2096,1.28510116492949,-38,2.37804878048781,-39,2.31707317073171,63,-3.84146341463415,-89,0.38695652173913,35,0.152173913043478,136,-0.663414634146342,
11709174,3027.34375,5184,-3.17841814837523,-15216,-9.3292458614347,-2048,1.25567136725935,-30,2.37804878048781,-39,1.82926829268293,68,-4.14634146341463,-87,0.378260869565217,36,0.156521739130435,136,-0.663414634146342,
11709814,3046.875,5216,-3.19803801348866,-15264,-9.35867565910484,-2192,1.34396076026977,-35,2.25609756097561,-37,2.13414634146341,70,-4.26829268292683,-90,0.391304347826087,33,0.143478260869565,136,-0.663414634146342,
11710454,3066.40625,5280,-3.23727774371551,-15184,-9.30962599632127,-2144,1.31453096259963,-44,2.13414634146341,-35,2.68292682926829,73,-4.45121951219512,-89,0.38695652173913,32,0.139130434782609,137,-0.668292682926829,
11711094,3085.9375,5296,-3.24708767627223,-15184,-9.30962599632127,-2128,1.30472103004292,-47,2.13414634146341,-35,2.86585365853659,72,-4.39024390243902,-87,0.378260869565217,32,0.139130434782609,136,-0.663414634146342,
11711734,3105.46875,5392,-3.30594727161251,-15184,-9.30962599632127,-2112,1.2949110974862,-41,1.64634146341463,-27,2.5,67,-4.08536585365854,-88,0.382608695652174,37,0.160869565217391,135,-0.658536585365854,
11712374,3125,5360,-3.28632740649908,-15200,-9.31943592887799,-2208,1.35377069282649,-33,1.58536585365854,-26,2.01219512195122,66,-4.02439024390244,-87,0.378260869565217,37,0.160869565217391,136,-0.663414634146342,
11713014,3144.53125,5440,-3.33537706928265,-15232,-9.33905579399141,-2160,1.32434089515635,-23,1.82926829268293,-30,1.40243902439024,61,-3.71951219512195,-87,0.378260869565217,37,0.160869565217391,136,-0.663414634146342,
11713654,3164.0625,5376,-3.29613733905579,-15264,-9.35867565910484,-2240,1.37339055793991,-23,1.58536585365854,-26,1.40243902439024,50,-3.04878048780488,-87,0.378260869565217,32,0.139130434782609,136,-0.663414634146342,
11714294,3183.59375,5408,-3.31575720416922,-15248,-9.34886572654813,-2128,1.30472103004292,-25,1.64634146341463,-27,1.52439024390244,39,-2.37804878048781,-88,0.382608695652174,31,0.134782608695652,137,-0.668292682926829,
11714934,3203.125,5392,-3.30594727161251,-15264,-9.35867565910484,-2176,1.33415082771306,-32,2.01219512195122,-33,1.95121951219512,26,-1.58536585365854,-90,0.391304347826087,35,0.152173913043478,136,-0.663414634146342,
11715574,3222.65625,5408,-3.31575720416922,-15280,-9.36848559166156,-2272,1.39301042305334,-33,2.31707317073171,-38,2.01219512195122,14,-0.853658536585366,-87,0.378260869565217,37,0.160869565217391,135,-0.658536585365854,
11716214,3242.1875,5360,-3.28632740649908,-15248,-9.34886572654813,-2240,1.37339055793991,-34,2.5609756097561,-42,2.07317073170732,7,-0.426829268292683,-87,0.378260869565217,32,0.139130434782609,138,-0.673170731707317,
11716854,3261.71875,5312,-3.25689760882894,-15216,-9.3292458614347,-2256,1.38320049049663,-31,2.68292682926829,-44,1.89024390243902,-5,0.304878048780488,-86,0.373913043478261,33,0.143478260869565,137,-0.668292682926829,
11717494,3281.25,5328,-3.26670754138565,-15216,-9.3292458614347,-2240,1.37339055793991,-26,3.17073170731707,-52,1.58536585365854,-15,0.914634146341463,-87,0.378260869565217,36,0.156521739130435,136,-0.663414634146342,
11718134,3300.78125,5328,-3.26670754138565,-15184,-9.30962599632127,-2304,1.41263028816677,-26,2.92682926829268,-48,1.58536585365854,-22,1.34146341463415,-88,0.382608695652174,41,0.178260869565217,136,-0.663414634146342,
11718774,3320.3125,5280,-3.23727774371551,-15232,-9.33905579399141,-2320,1.42244022072348,-19,3.23170731707317,-53,1.15853658536585,-27,1.64634146341463,-89,0.38695652173913,33,0.143478260869565,136,-0.663414634146342,
11719414,3339.84375,5376,-3.29613733905579,-15200,-9.31943592887799,-2256,1.38320049049663,-19,3.35365853658537,-55,1.15853658536585,-26,1.58536585365854,-88,0.382608695652174,32,0.139130434782609,136,-0.663414634146342,
11720054,3359.375,5264,-3.2274678111588,-15248,-9.34886572654813,-2336,1.4322501532802,-14,3.35365853658537,-55,0.853658536585366,-31,1.89024390243902,-89,0.38695652173913,35,0.152173913043478,135,-0.658536585365854,
11720694,3378.90625,5296,-3.24708767627223,-15264,-9.35867565910484,-2256,1.38320049049663,-13,3.78048780487805,-62,0.792682926829268,-33,2.01219512195122,-87,0.378260869565217,31,0.134782608695652,135,-0.658536585365854,
11721334,3398.4375,5216,-3.19803801348866,-15280,-9.36848559166156,-2160,1.32434089515635,-13,4.08536585365854,-67,0.792682926829268,-38,2.31707317073171,-88,0.382608695652174,34,0.147826086956522,136,-0.663414634146342,
11721974,3417.96875,5184,-3.17841814837523,-15264,-9.35867565910484,-2176,1.33415082771306,-13,4.14634146341463,-68,0.792682926829268,-44,2.68292682926829,-89,0.38695652173913,36,0.156521739130435,135,-0.658536585365854,
11722614,3437.5,5200,-3.18822808093194,-15264,-9.35867565910484,-2208,1.35377069282649,-3,4.08536585365854,-67,0.182926829268293,-43,2.6219512195122,-87,0.378260869565217,32,0.139130434782609,136,-0.663414634146342,
11723254,3457.03125,5136,-3.14898835070509,-15280,-9.36848559166156,-2176,1.33415082771306,1,4.08536585365854,-67,-0.0609756097560976,-46,2.80487804878049,-87,0.378260869565217,33,0.143478260869565,136,-0.663414634146342,
11723894,3476.5625,5152,-3.1587982832618,-15248,-9.34886572654813,-2144,1.31453096259963,8,4.26829268292683,-70,-0.487804878048781,-41,2.5,-90,0.391304347826087,36,0.156521739130435,136,-0.663414634146342,
11724534,3496.09375,5088,-3.11955855303495,-15232,-9.33905579399141,-2096,1.28510116492949,5,4.02439024390244,-66,-0.304878048780488,-32,1.95121951219512,-89,0.38695652173913,34,0.147826086956522,136,-0.663414634146342,
11725174,3515.625,5056,-3.09993868792152,-15216,-9.3292458614347,-2096,1.28510116492949,0,4.02439024390244,-66,0,-28,1.70731707317073,-87,0.378260869565217,34,0.147826086956522,137,-0.668292682926829,
11725814,3535.15625,5104,-3.12936848559166,-15168,-9.29981606376456,-2064,1.26548129981606,-2,3.96341463414634,-65,0.121951219512195,-26,1.58536585365854,-88,0.382608695652174,39,0.169565217391304,136,-0.663414634146342,
11726454,3554.6875,5152,-3.1587982832618,-15200,-9.31943592887799,-2032,1.24586143470264,8,3.41463414634146,-56,-0.487804878048781,-18,1.09756097560976,-90,0.391304347826087,37,0.160869565217391,136,-0.663414634146342,
11727094,3574.21875,5136,-3.14898835070509,-15264,-9.35867565910484,-2048,1.25567136725935,19,3.29268292682927,-54,-1.15853658536585,-12,0.731707317073171,-86,0.373913043478261,36,0.156521739130435,135,-0.658536585365854,
11727734,3593.75,5024,-3.08031882280809,-15296,-9.37829552421827,-2064,1.26548129981606,23,3.10975609756098,-51,-1.40243902439024,-1,0.0609756097560976,-89,0.38695652173913,34,0.147826086956522,137,-0.668292682926829,
11728374,3613.28125,5072,-3.10974862047823,-15248,-9.34886572654813,-2112,1.2949110974862,21,2.74390243902439,-45,-1.28048780487805,0,0,-87,0.378260869565217,34,0.147826086956522,136,-0.663414634146342,
11729014,3632.8125,5136,-3.14898835070509,-15168,-9.29981606376456,-2112,1.2949110974862,24,2.5609756097561,-42,-1.46341463414634,-7,0.426829268292683,-86,0.373913043478261,34,0.147826086956522,136,-0.663414634146342,
11729654,3652.34375,5136,-3.14898835070509,-15184,-9.30962599632127,-2160,1.32434089515635,29,2.37804878048781,-39,-1.76829268292683,-7,0.426829268292683,-88,0.382608695652174,31,0.134782608695652,137,-0.668292682926829,
11730294,3671.875,5184,-3.17841814837523,-15200,-9.31943592887799,-2112,1.2949110974862,37,2.37804878048781,-39,-2.25609756097561,-2,0.121951219512195,-89,0.38695652173913,35,0.152173913043478,135,-0.658536585365854,
11730934,3691.40625,5024,-3.08031882280809,-15248,-9.34886572654813,-2112,1.2949110974862,24,2.4390243902439,-40,-1.46341463414634,0,0,-87,0.378260869565217,33,0.143478260869565,137,-0.668292682926829,
11731574,3710.9375,5040,-3.09012875536481,-15280,-9.36848559166156,-2176,1.33415082771306,7,2.5609756097561,-42,-0.426829268292683,6,-0.365853658536585,-87,0.378260869565217,32,0.139130434782609,135,-0.658536585365854,
11732214,3730.46875,5072,-3.10974862047823,-15312,-9.38810545677498,-2144,1.31453096259963,0,2.5609756097561,-42,0,2,-0.121951219512195,-89,0.38695652173913,37,0.160869565217391,137,-0.668292682926829,
11732854,3750,5120,-3.13917841814837,-15184,-9.30962599632127,-2128,1.30472103004292,8,2.37804878048781,-39,-0.487804878048781,3,-0.182926829268293,-89,0.38695652173913,37,0.160869565217391,135,-0.658536585365854,
11733494,3769.53125,5200,-3.18822808093194,-15184,-9.30962599632127,-2176,1.33415082771306,18,2.37804878048781,-39,-1.09756097560976,2,-0.121951219512195,-87,0.378260869565217,32,0.139130434782609,136,-0.663414634146342,
11734134,3789.0625,5168,-3.16860821581852,-15200,-9.31943592887799,-2160,1.32434089515635,15,2.19512195121951,-36,-0.914634146341463,2,-0.121951219512195,-86,0.373913043478261,34,0.147826086956522,137,-0.668292682926829,
11734774,3808.59375,5152,-3.1587982832618,-15216,-9.3292458614347,-2160,1.32434089515635,8,2.37804878048781,-39,-0.487804878048781,8,-0.487804878048781,-88,0.382608695652174,35,0.152173913043478,137,-0.668292682926829,
11735414,3828.125,5120,-3.13917841814837,-15248,-9.34886572654813,-2192,1.34396076026977,-2,2.5609756097561,-42,0.121951219512195,4,-0.24390243902439,-88,0.382608695652174,35,0.152173913043478,135,-0.658536585365854,
11736054,3847.65625,5136,-3.14898835070509,-15248,-9.34886572654813,-2096,1.28510116492949,-4,2.4390243902439,-40,0.24390243902439,3,-0.182926829268293,-87,0.378260869565217,32,0.139130434782609,136,-0.663414634146342,
11736694,3867.1875,5232,-3.20784794604537,-15216,-9.3292458614347,-2080,1.27529123237278,-2,2.31707317073171,-38,0.121951219512195,-4,0.24390243902439,-88,0.382608695652174,33,0.143478260869565,135,-0.658536585365854,
11737334,3886.71875,5216,-3.19803801348866,-15248,-9.34886572654813,-2128,1.30472103004292,2,2.74390243902439,-45,-0.121951219512195,-8,0.487804878048781,-86,0.373913043478261,37,0.160869565217391,136,-0.663414634146342,
11737974,3906.25,5216,-3.19803801348866,-15264,-9.35867565910484,-2064,1.26548129981606,3,2.5609756097561,-42,-0.182926829268293,-9,0.548780487804878,-86,0.373913043478261,36,0.156521739130435,136,-0.663414634146342,
11738614,3925.78125,5264,-3.2274678111588,-15312,-9.38810545677498,-2176,1.33415082771306,0,2.5609756097561,-42,0,-13,0.792682926829268,-89,0.38695652173913,32,0.139130434782609,138,-0.673170731707317,
11739254,3945.3125,5216,-3.19803801348866,-15248,-9.34886572654813,-2208,1.35377069282649,-9,2.74390243902439,-45,0.548780487804878,-14,0.853658536585366,-90,0.391304347826087,32,0.139130434782609,136,-0.663414634146342,
11739894,3964.84375,5216,-3.19803801348866,-15248,-9.34886572654813,-2144,1.31453096259963,-10,2.80487804878049,-46,0.609756097560976,-18,1.09756097560976,-87,0.378260869565217,34,0.147826086956522,136,-0.663414634146342,
11740534,3984.375,5184,-3.17841814837523,-15264,-9.35867565910484,-2144,1.31453096259963,-6,2.68292682926829,-44,0.365853658536585,-24,1.46341463414634,-88,0.382608695652174,37,0.160869565217391,135,-0.658536585365854,
11741174,4003.90625,5136,-3.14898835070509,-15296,-9.37829552421827,-2144,1.31453096259963,-8,3.04878048780488,-50,0.487804878048781,-26,1.58536585365854,-87,0.378260869565217,33,0.143478260869565,135,-0.658536585365854,
11741814,4023.4375,5136,-3.14898835070509,-15200,-9.31943592887799,-2176,1.33415082771306,-9,2.98780487804878,-49,0.548780487804878,-27,1.64634146341463,-89,0.38695652173913,37,0.160869565217391,136,-0.663414634146342,
11742454,4042.96875,5216,-3.19803801348866,-15264,-9.35867565910484,-2128,1.30472103004292,-12,3.17073170731707,-52,0.731707317073171,-25,1.52439024390244,-86,0.373913043478261,33,0.143478260869565,136,-0.663414634146342,
11743094,4062.5,5152,-3.1587982832618,-15216,-9.3292458614347,-2224,1.3635806253832,-13,2.98780487804878,-49,0.792682926829268,-21,1.28048780487805,-87,0.378260869565217,32,0.139130434782609,137,-0.668292682926829,
11743734,4082.03125,5104,-3.12936848559166,-15264,-9.35867565910484,-2192,1.34396076026977,1,2.74390243902439,-45,-0.0609756097560976,-13,0.792682926829268,-88,0.382608695652174,39,0.169565217391304,134,-0.653658536585366,
11744374,4101.5625,5152,-3.1587982832618,-15232,-9.33905579399141,-2176,1.33415082771306,20,2.68292682926829,-44,-1.21951219512195,-13,0.792682926829268,-89,0.38695652173913,39,0.169565217391304,135,-0.658536585365854,
11745014,4121.09375,5120,-3.13917841814837,-15280,-9.36848559166156,-2192,1.34396076026977,30,2.25609756097561,-37,-1.82926829268293,-7,0.426829268292683,-87,0.378260869565217,33,0.143478260869565,136,-0.663414634146342,
11745654,4140.625,5072,-3.10974862047823,-15248,-9.34886572654813,-2144,1.31453096259963,26,2.5609756097561,-42,-1.58536585365854,-2,0.121951219512195,-87,0.378260869565217,32,0.139130434782609,138,-0.673170731707317,
11746294,4160.15625,5024,-3.08031882280809,-15216,-9.3292458614347,-2208,1.35377069282649,16,2.31707317073171,-38,-0.975609756097561,2,-0.121951219512195,-87,0.378260869565217,37,0.160869565217391,135,-0.658536585365854,
11746934,4179.6875,5056,-3.09993868792152,-15200,-9.31943592887799,-2192,1.34396076026977,9,2.4390243902439,-40,-0.548780487804878,6,-0.365853658536585,-87,0.378260869565217,35,0.152173913043478,136,-0.663414634146342,
11747574,4199.21875,5136,-3.14898835070509,-15136,-9.28019619865113,-2192,1.34396076026977,16,2.4390243902439,-40,-0.975609756097561,12,-0.731707317073171,-88,0.382608695652174,33,0.143478260869565,135,-0.658536585365854,
11748214,4218.75,5152,-3.1587982832618,-15232,-9.33905579399141,-2080,1.27529123237278,24,2.4390243902439,-40,-1.46341463414634,14,-0.853658536585366,-88,0.382608695652174,34,0.147826086956522,136,-0.663414634146342,
11748854,4238.28125,5152,-3.1587982832618,-15328,-9.3979153893317,-2096,1.28510116492949,26,2.31707317073171,-38,-1.58536585365854,20,-1.21951219512195,-86,0.373913043478261,36,0.156521739130435,136,-0.663414634146342,
11749494,4257.8125,5120,-3.13917841814837,-15328,-9.3979153893317,-2160,1.32434089515635,28,2.4390243902439,-40,-1.70731707317073,20,-1.21951219512195,-88,0.382608695652174,39,0.169565217391304,136,-0.663414634146342,
11750134,4277.34375,5216,-3.19803801348866,-15264,-9.35867565910484,-2144,1.31453096259963,31,2.37804878048781,-39,-1.89024390243902,14,-0.853658536585366,-88,0.382608695652174,32,0.139130434782609,136,-0.663414634146342,
11750774,4296.875,5184,-3.17841814837523,-15168,-9.29981606376456,-2144,1.31453096259963,32,2.31707317073171,-38,-1.95121951219512,2,-0.121951219512195,-88,0.382608695652174,32,0.139130434782609,136,-0.663414634146342,
11751414,4316.40625,5184,-3.17841814837523,-15216,-9.3292458614347,-2160,1.32434089515635,32,2.5,-41,-1.95121951219512,-5,0.304878048780488,-86,0.373913043478261,33,0.143478260869565,135,-0.658536585365854,
11752054,4335.9375,5136,-3.14898835070509,-15296,-9.37829552421827,-2160,1.32434089515635,32,2.80487804878049,-46,-1.95121951219512,-6,0.365853658536585,-86,0.373913043478261,32,0.139130434782609,136,-0.663414634146342,
11752694,4355.46875,5104,-3.12936848559166,-15264,-9.35867565910484,-2224,1.3635806253832,22,3.10975609756098,-51,-1.34146341463415,-6,0.365853658536585,-88,0.382608695652174,38,0.165217391304348,136,-0.663414634146342,
11753334,4375,5040,-3.09012875536481,-15232,-9.33905579399141,-2160,1.32434089515635,0,3.35365853658537,-55,0,-6,0.365853658536585,-88,0.382608695652174,40,0.173913043478261,136,-0.663414634146342,
11753974,4394.53125,5056,-3.09993868792152,-15200,-9.31943592887799,-2096,1.28510116492949,-12,3.47560975609756,-57,0.731707317073171,-12,0.731707317073171,-86,0.373913043478261,33,0.143478260869565,136,-0.663414634146342,
11754614,4414.0625,5168,-3.16860821581852,-15120,-9.27038626609442,-2016,1.23605150214592,5,3.17073170731707,-52,-0.304878048780488,-14,0.853658536585366,-89,0.38695652173913,34,0.147826086956522,136,-0.663414634146342,
11755254,4433.59375,5312,-3.25689760882894,-15184,-9.30962599632127,-2080,1.27529123237278,19,3.04878048780488,-50,-1.15853658536585,-18,1.09756097560976,-87,0.378260869565217,35,0.152173913043478,136,-0.663414634146342,
11755894,4453.125,5280,-3.23727774371551,-15296,-9.37829552421827,-2016,1.23605150214592,24,2.86585365853659,-47,-1.46341463414634,-20,1.21951219512195,-87,0.378260869565217,36,0.156521739130435,135,-0.658536585365854,
11756534,4472.65625,5184,-3.17841814837523,-15232,-9.33905579399141,-2048,1.25567136725935,18,2.74390243902439,-45,-1.09756097560976,-20,1.21951219512195,-86,0.373913043478261,33,0.143478260869565,137,-0.668292682926829,
11757174,4492.1875,5168,-3.16860821581852,-15248,-9.34886572654813,-2032,1.24586143470264,5,2.68292682926829,-44,-0.304878048780488,-20,1.21951219512195,-88,0.382608695652174,33,0.143478260869565,137,-0.668292682926829,
11757814,4511.71875,5168,-3.16860821581852,-15200,-9.31943592887799,-2000,1.22624156958921,-2,2.6219512195122,-43,0.121951219512195,-24,1.46341463414634,-86,0.373913043478261,36,0.156521739130435,135,-0.658536585365854,
11758454,4531.25,5168,-3.16860821581852,-15216,-9.3292458614347,-1968,1.20662170447578,1,2.37804878048781,-39,-0.0609756097560976,-28,1.70731707317073,-87,0.378260869565217,35,0.152173913043478,136,-0.663414634146342,
11759094,4550.78125,5216,-3.19803801348866,-15136,-9.28019619865113,-2032,1.24586143470264,13,2.4390243902439,-40,-0.792682926829268,-27,1.64634146341463,-89,0.38695652173913,36,0.156521739130435,135,-0.658536585365854,
11759734,4570.3125,5152,-3.1587982832618,-15264,-9.35867565910484,-2112,1.2949110974862,16,2.07317073170732,-34,-0.975609756097561,-26,1.58536585365854,-88,0.382608695652174,35,0.152173913043478,136,-0.663414634146342,
11760374,4589.84375,5136,-3.14898835070509,-15216,-9.3292458614347,-2016,1.23605150214592,13,1.82926829268293,-30,-0.792682926829268,-22,1.34146341463415,-88,0.382608695652174,33,0.143478260869565,136,-0.663414634146342,
11761014,4609.375,5136,-3.14898835070509,-15184,-9.30962599632127,-2064,1.26548129981606,8,1.76829268292683,-29,-0.487804878048781,-20,1.21951219512195,-85,0.369565217391304,33,0.143478260869565,135,-0.658536585365854,
11761654,4628.90625,5232,-3.20784794604537,-15216,-9.3292458614347,-2128,1.30472103004292,13,1.58536585365854,-26,-0.792682926829268,-19,1.15853658536585,-87,0.378260869565217,36,0.156521739130435,136,-0.663414634146342,
11762294,4648.4375,5280,-3.23727774371551,-15280,-9.36848559166156,-2128,1.30472103004292,24,1.82926829268293,-30,-1.46341463414634,-21,1.28048780487805,-88,0.382608695652174,37,0.160869565217391,135,-0.658536585365854,
11762934,4667.96875,5184,-3.17841814837523,-15248,-9.34886572654813,-2144,1.31453096259963,29,1.58536585365854,-26,-1.76829268292683,-24,1.46341463414634,-86,0.373913043478261,32,0.139130434782609,136,-0.663414634146342,
11763574,4687.5,5136,-3.14898835070509,-15248,-9.34886572654813,-2144,1.31453096259963,28,1.58536585365854,-26,-1.70731707317073,-25,1.52439024390244,-89,0.38695652173913,38,0.165217391304348,135,-0.658536585365854,
11764214,4707.03125,5136,-3.14898835070509,-15200,-9.31943592887799,-2176,1.33415082771306,23,1.64634146341463,-27,-1.40243902439024,-21,1.28048780487805,-88,0.382608695652174,37,0.160869565217391,136,-0.663414634146342,
11764854,4726.5625,5168,-3.16860821581852,-15216,-9.3292458614347,-2112,1.2949110974862,20,1.64634146341463,-27,-1.21951219512195,-18,1.09756097560976,-87,0.378260869565217,33,0.143478260869565,136,-0.663414634146342,
11765494,4746.09375,5104,-3.12936848559166,-15200,-9.31943592887799,-2128,1.30472103004292,21,1.58536585365854,-26,-1.28048780487805,-17,1.03658536585366,-86,0.373913043478261,33,0.143478260869565,137,-0.668292682926829,
11766134,4765.625,5168,-3.16860821581852,-15232,-9.33905579399141,-2160,1.32434089515635,35,1.70731707317073,-28,-2.13414634146341,-15,0.914634146341463,-87,0.378260869565217,38,0.165217391304348,134,-0.653658536585366,
11766774,4785.15625,5120,-3.13917841814837,-15232,-9.33905579399141,-2208,1.35377069282649,35,1.95121951219512,-32,-2.13414634146341,-17,1.03658536585366,-87,0.378260869565217,36,0.156521739130435,135,-0.658536585365854,
11767414,4804.6875,5008,-3.07050889025138,-15280,-9.36848559166156,-2144,1.31453096259963,22,2.13414634146341,-35,-1.34146341463415,-12,0.731707317073171,-86,0.373913043478261,34,0.147826086956522,136,-0.663414634146342,
11768054,4824.21875,5088,-3.11955855303495,-15312,-9.38810545677498,-2080,1.27529123237278,6,2.4390243902439,-40,-0.365853658536585,-11,0.670731707317073,-88,0.382608695652174,34,0.147826086956522,136,-0.663414634146342,
11768694,4843.75,5136,-3.14898835070509,-15248,-9.34886572654813,-2176,1.33415082771306,-3,2.80487804878049,-46,0.182926829268293,-13,0.792682926829268,-86,0.373913043478261,36,0.156521739130435,135,-0.658536585365854,
11769334,4863.28125,5232,-3.20784794604537,-15168,-9.29981606376456,-2144,1.31453096259963,4,2.80487804878049,-46,-0.24390243902439,-14,0.853658536585366,-88,0.382608695652174,34,0.147826086956522,135,-0.658536585365854,
11769974,4882.8125,5248,-3.21765787860208,-15216,-9.3292458614347,-2112,1.2949110974862,15,2.6219512195122,-43,-0.914634146341463,-15,0.914634146341463,-91,0.395652173913043,35,0.152173913043478,133,-0.648780487804878,
11770614,4902.34375,5184,-3.17841814837523,-15328,-9.3979153893317,-2128,1.30472103004292,20,2.92682926829268,-48,-1.21951219512195,-9,0.548780487804878,-88,0.382608695652174,34,0.147826086956522,136,-0.663414634146342,
11771254,4921.875,5152,-3.1587982832618,-15328,-9.3979153893317,-2128,1.30472103004292,15,2.98780487804878,-49,-0.914634146341463,-2,0.121951219512195,-87,0.378260869565217,32,0.139130434782609,135,-0.658536585365854,
11771894,4941.40625,5200,-3.18822808093194,-15280,-9.36848559166156,-2160,1.32434089515635,6,2.98780487804878,-49,-0.365853658536585,-4,0.24390243902439,-87,0.378260869565217,33,0.143478260869565,135,-0.658536585365854,
11772534,4960.9375,5184,-3.17841814837523,-15168,-9.29981606376456,-2144,1.31453096259963,0,3.23170731707317,-53,0,-7,0.426829268292683,-89,0.38695652173913,37,0.160869565217391,135,-0.658536585365854,
11773174,4980.46875,5200,-3.18822808093194,-15184,-9.30962599632127,-2176,1.33415082771306,3,3.47560975609756,-57,-0.182926829268293,-13,0.792682926829268,-87,0.378260869565217,38,0.165217391304348,136,-0.663414634146342,
11773814,5000,5200,-3.18822808093194,-15216,-9.3292458614347,-2112,1.2949110974862,7,3.23170731707317,-53,-0.426829268292683,-14,0.853658536585366,-86,0.373913043478261,33,0.143478260869565,135,-0.658536585365854,
11774454,5019.53125,5200,-3.18822808093194,-15184,-9.30962599632127,-2080,1.27529123237278,11,3.47560975609756,-57,-0.670731707317073,-12,0.731707317073171,-87,0.378260869565217,33,0.143478260869565,137,-0.668292682926829,
11775094,5039.0625,5120,-3.13917841814837,-15248,-9.34886572654813,-2112,1.2949110974862,6,3.47560975609756,-57,-0.365853658536585,-9,0.548780487804878,-88,0.382608695652174,36,0.156521739130435,135,-0.658536585365854,
11775734,5058.59375,5104,-3.12936848559166,-15312,-9.38810545677498,-2080,1.27529123237278,-13,3.71951219512195,-61,0.792682926829268,-7,0.426829268292683,-88,0.382608695652174,35,0.152173913043478,135,-0.658536585365854,
11776374,5078.125,5152,-3.1587982832618,-15280,-9.36848559166156,-2032,1.24586143470264,-20,3.53658536585366,-58,1.21951219512195,-6,0.365853658536585,-86,0.373913043478261,33,0.143478260869565,137,-0.668292682926829,
11777014,5097.65625,5152,-3.1587982832618,-15200,-9.31943592887799,-2080,1.27529123237278,-15,3.65853658536585,-60,0.914634146341463,-12,0.731707317073171,-86,0.373913043478261,35,0.152173913043478,135,-0.658536585365854,
11777654,5117.1875,5184,-3.17841814837523,-15248,-9.34886572654813,-2048,1.25567136725935,-8,3.59756097560976,-59,0.487804878048781,-9,0.548780487804878,-86,0.373913043478261,35,0.152173913043478,136,-0.663414634146342,
11778294,5136.71875,5104,-3.12936848559166,-15200,-9.31943592887799,-1952,1.19681177191907,-11,3.65853658536585,-60,0.670731707317073,-10,0.609756097560976,-86,0.373913043478261,35,0.152173913043478,136,-0.663414634146342,
11778934,5156.25,5136,-3.14898835070509,-15200,-9.31943592887799,-2016,1.23605150214592,-16,3.35365853658537,-55,0.975609756097561,-2,0.121951219512195,-89,0.38695652173913,34,0.147826086956522,135,-0.658536585365854,
11779574,5175.78125,5232,-3.20784794604537,-15248,-9.34886572654813,-1968,1.20662170447578,-13,3.04878048780488,-50,0.792682926829268,0,0,-88,0.382608695652174,34,0.147826086956522,135,-0.658536585365854,
11780214,5195.3125,5264,-3.2274678111588,-15152,-9.29000613120785,-2112,1.2949110974862,-6,2.98780487804878,-49,0.365853658536585,2,-0.121951219512195,-87,0.378260869565217,34,0.147826086956522,135,-0.658536585365854,
11780854,5214.84375,5248,-3.21765787860208,-15184,-9.30962599632127,-2000,1.22624156958921,-1,2.92682926829268,-48,0.0609756097560976,4,-0.24390243902439,-87,0.378260869565217,36,0.156521739130435,135,-0.658536585365854,
11781494,5234.375,5184,-3.17841814837523,-15184,-9.30962599632127,-2016,1.23605150214592,-2,2.68292682926829,-44,0.121951219512195,4,-0.24390243902439,-87,0.378260869565217,34,0.147826086956522,136,-0.663414634146342,
11782134,5253.90625,5232,-3.20784794604537,-15200,-9.31943592887799,-2016,1.23605150214592,-6,2.74390243902439,-45,0.365853658536585,6,-0.365853658536585,-88,0.382608695652174,38,0.165217391304348,135,-0.658536585365854,
11782774,5273.4375,5264,-3.2274678111588,-15232,-9.33905579399141,-1984,1.2164316370325,-3,2.5,-41,0.182926829268293,8,-0.487804878048781,-86,0.373913043478261,33,0.143478260869565,135,-0.658536585365854,
11783414,5292.96875,5296,-3.24708767627223,-15264,-9.35867565910484,-1984,1.2164316370325,-3,2.31707317073171,-38,0.182926829268293,3,-0.182926829268293,-86,0.373913043478261,35,0.152173913043478,135,-0.658536585365854,
11784054,5312.5,5264,-3.2274678111588,-15264,-9.35867565910484,-2080,1.27529123237278,-2,2.19512195121951,-36,0.121951219512195,-3,0.182926829268293,-88,0.382608695652174,36,0.156521739130435,135,-0.658536585365854,
11784694,5332.03125,5280,-3.23727774371551,-15216,-9.3292458614347,-2096,1.28510116492949,0,2.13414634146341,-35,0,-4,0.24390243902439,-86,0.373913043478261,38,0.165217391304348,135,-0.658536585365854,
11785334,5351.5625,5184,-3.17841814837523,-15232,-9.33905579399141,-2144,1.31453096259963,-2,2.37804878048781,-39,0.121951219512195,-6,0.365853658536585,-89,0.38695652173913,32,0.139130434782609,136,-0.663414634146342,
11785974,5371.09375,5200,-3.18822808093194,-15232,-9.33905579399141,-2096,1.28510116492949,-2,2.5,-41,0.121951219512195,-7,0.426829268292683,-88,0.382608695652174,36,0.156521739130435,135,-0.658536585365854,
11786614,5390.625,5264,-3.2274678111588,-15280,-9.36848559166156,-2160,1.32434089515635,-6,2.5,-41,0.365853658536585,-8,0.487804878048781,-87,0.378260869565217,37,0.160869565217391,134,-0.653658536585366,
11787254,5410.15625,5312,-3.25689760882894,-15264,-9.35867565910484,-2160,1.32434089515635,-6,2.68292682926829,-44,0.365853658536585,-9,0.548780487804878,-88,0.382608695652174,38,0.165217391304348,134,-0.653658536585366,
11787894,5429.6875,5280,-3.23727774371551,-15232,-9.33905579399141,-2112,1.2949110974862,1,2.68292682926829,-44,-0.0609756097560976,-11,0.670731707317073,-87,0.378260869565217,34,0.147826086956522,136,-0.663414634146342,
11788534,5449.21875,5280,-3.23727774371551,-15168,-9.29981606376456,-2160,1.32434089515635,8,2.5609756097561,-42,-0.487804878048781,-12,0.731707317073171,-88,0.382608695652174,36,0.156521739130435,134,-0.653658536585366,
11789174,5468.75,5296,-3.24708767627223,-15200,-9.31943592887799,-2096,1.28510116492949,13,2.68292682926829,-44,-0.792682926829268,-16,0.975609756097561,-87,0.378260869565217,35,0.152173913043478,136,-0.663414634146342,
11789814,5488.28125,5248,-3.21765787860208,-15200,-9.31943592887799,-2144,1.31453096259963,18,2.74390243902439,-45,-1.09756097560976,-11,0.670731707317073,-86,0.373913043478261,35,0.152173913043478,135,-0.658536585365854,
11790454,5507.8125,5232,-3.20784794604537,-15248,-9.34886572654813,-2128,1.30472103004292,16,2.92682926829268,-48,-0.975609756097561,-12,0.731707317073171,-88,0.382608695652174,33,0.143478260869565,135,-0.658536585365854,
11791094,5527.34375,5232,-3.20784794604537,-15280,-9.36848559166156,-2240,1.37339055793991,10,3.23170731707317,-53,-0.609756097560976,-12,0.731707317073171,-88,0.382608695652174,34,0.147826086956522,135,-0.658536585365854,
11791734,5546.875,5248,-3.21765787860208,-15264,-9.35867565910484,-2240,1.37339055793991,3,3.35365853658537,-55,-0.182926829268293,-15,0.914634146341463,-86,0.373913043478261,32,0.139130434782609,136,-0.663414634146342,
11792374,5566.40625,5312,-3.25689760882894,-15136,-9.28019619865113,-2144,1.31453096259963,-3,3.90243902439024,-64,0.182926829268293,-19,1.15853658536585,-86,0.373913043478261,32,0.139130434782609,135,-0.658536585365854,
11793014,5585.9375,5248,-3.21765787860208,-15232,-9.33905579399141,-2096,1.28510116492949,-2,3.71951219512195,-61,0.121951219512195,-19,1.15853658536585,-88,0.382608695652174,37,0.160869565217391,136,-0.663414634146342,
11793654,5605.46875,5296,-3.24708767627223,-15312,-9.38810545677498,-2064,1.26548129981606,7,3.71951219512195,-61,-0.426829268292683,-14,0.853658536585366,-88,0.382608695652174,37,0.160869565217391,136,-0.663414634146342,
11794294,5625,5264,-3.2274678111588,-15280,-9.36848559166156,-2016,1.23605150214592,17,3.53658536585366,-58,-1.03658536585366,-7,0.426829268292683,-88,0.382608695652174,38,0.165217391304348,136,-0.663414634146342,
11794934,5644.53125,5248,-3.21765787860208,-15264,-9.35867565910484,-2112,1.2949110974862,20,3.23170731707317,-53,-1.21951219512195,-6,0.365853658536585,-87,0.378260869565217,34,0.147826086956522,137,-0.668292682926829,
11795574,5664.0625,5264,-3.2274678111588,-15168,-9.29981606376456,-2160,1.32434089515635,23,3.23170731707317,-53,-1.40243902439024,-13,0.792682926829268,-87,0.378260869565217,34,0.147826086956522,135,-0.658536585365854,
11796214,5683.59375,5232,-3.20784794604537,-15184,-9.30962599632127,-2176,1.33415082771306,17,3.17073170731707,-52,-1.03658536585366,-20,1.21951219512195,-87,0.378260869565217,36,0.156521739130435,135,-0.658536585365854,
11796854,5703.125,5280,-3.23727774371551,-15184,-9.30962599632127,-2144,1.31453096259963,16,3.29268292682927,-54,-0.975609756097561,-24,1.46341463414634,-86,0.373913043478261,33,0.143478260869565,136,-0.663414634146342,
11797494,5722.65625,5328,-3.26670754138565,-15232,-9.33905579399141,-2112,1.2949110974862,26,3.17073170731707,-52,-1.58536585365854,-24,1.46341463414634,-88,0.382608695652174,34,0.147826086956522,135,-0.658536585365854,
11798134,5742.1875,5264,-3.2274678111588,-15248,-9.34886572654813,-2128,1.30472103004292,28,3.29268292682927,-54,-1.70731707317073,-16,0.975609756097561,-85,0.369565217391304,35,0.152173913043478,135,-0.658536585365854,
11798774,5761.71875,5216,-3.19803801348866,-15232,-9.33905579399141,-2176,1.33415082771306,14,3.10975609756098,-51,-0.853658536585366,-17,1.03658536585366,-87,0.378260869565217,35,0.152173913043478,134,-0.653658536585366,
11799414,5781.25,5184,-3.17841814837523,-15184,-9.30962599632127,-2096,1.28510116492949,13,3.17073170731707,-52,-0.792682926829268,-20,1.21951219512195,-87,0.378260869565217,34,0.147826086956522,136,-0.663414634146342,
11800054,5800.78125,5264,-3.2274678111588,-15056,-9.23114653586757,-2176,1.33415082771306,23,3.04878048780488,-50,-1.40243902439024,-25,1.52439024390244,-86,0.373913043478261,34,0.147826086956522,135,-0.658536585365854,
11800694,5820.3125,5264,-3.2274678111588,-15184,-9.30962599632127,-2176,1.33415082771306,28,2.86585365853659,-47,-1.70731707317073,-20,1.21951219512195,-88,0.382608695652174,31,0.134782608695652,135,-0.658536585365854,
11801334,5839.84375,5232,-3.20784794604537,-15248,-9.34886572654813,-2032,1.24586143470264,25,3.04878048780488,-50,-1.52439024390244,-18,1.09756097560976,-88,0.382608695652174,33,0.143478260869565,134,-0.653658536585366,
11801974,5859.375,5200,-3.18822808093194,-15216,-9.3292458614347,-2080,1.27529123237278,20,3.17073170731707,-52,-1.21951219512195,-15,0.914634146341463,-87,0.378260869565217,39,0.169565217391304,135,-0.658536585365854,
11802614,5878.90625,5248,-3.21765787860208,-15216,-9.3292458614347,-2080,1.27529123237278,15,2.68292682926829,-44,-0.914634146341463,-12,0.731707317073171,-88,0.382608695652174,34,0.147826086956522,135,-0.658536585365854,
11803254,5898.4375,5296,-3.24708767627223,-15280,-9.36848559166156,-2048,1.25567136725935,16,2.74390243902439,-45,-0.975609756097561,-14,0.853658536585366,-86,0.373913043478261,32,0.139130434782609,136,-0.663414634146342,
11803894,5917.96875,5248,-3.21765787860208,-15200,-9.31943592887799,-2096,1.28510116492949,13,2.74390243902439,-45,-0.792682926829268,-17,1.03658536585366,-87,0.378260869565217,35,0.152173913043478,137,-0.668292682926829,
11804534,5937.5,5264,-3.2274678111588,-15136,-9.28019619865113,-2016,1.23605150214592,13,2.68292682926829,-44,-0.792682926829268,-17,1.03658536585366,-87,0.378260869565217,36,0.156521739130435,137,-0.668292682926829,
11805174,5957.03125,5328,-3.26670754138565,-15200,-9.31943592887799,-2064,1.26548129981606,12,2.68292682926829,-44,-0.731707317073171,-15,0.914634146341463,-86,0.373913043478261,33,0.143478260869565,136,-0.663414634146342,
11805814,5976.5625,5344,-3.27651747394237,-15104,-9.26057633353771,-2064,1.26548129981606,15,2.4390243902439,-40,-0.914634146341463,-11,0.670731707317073,-86,0.373913043478261,36,0.156521739130435,135,-0.658536585365854,
11806454,5996.09375,5328,-3.26670754138565,-15168,-9.29981606376456,-2064,1.26548129981606,17,2.37804878048781,-39,-1.03658536585366,-12,0.731707317073171,-87,0.378260869565217,35,0.152173913043478,135,-0.658536585365854,
11807094,6015.625,5328,-3.26670754138565,-15216,-9.3292458614347,-2112,1.2949110974862,22,2.19512195121951,-36,-1.34146341463415,-17,1.03658536585366,-86,0.373913043478261,36,0.156521739130435,135,-0.658536585365854,
11807734,6035.15625,5328,-3.26670754138565,-15200,-9.31943592887799,-2144,1.31453096259963,23,2.5,-41,-1.40243902439024,-23,1.40243902439024,-86,0.373913043478261,33,0.143478260869565,136,-0.663414634146342,
11808374,6054.6875,5232,-3.20784794604537,-15248,-9.34886572654813,-2160,1.32434089515635,14,2.6219512195122,-43,-0.853658536585366,-27,1.64634146341463,-88,0.382608695652174,35,0.152173913043478,135,-0.658536585365854,
11809014,6074.21875,5200,-3.18822808093194,-15280,-9.36848559166156,-2160,1.32434089515635,2,2.92682926829268,-48,-0.121951219512195,-31,1.89024390243902,-86,0.373913043478261,36,0.156521739130435,135,-0.658536585365854,
11809654,6093.75,5200,-3.18822808093194,-15280,-9.36848559166156,-2128,1.30472103004292,-3,3.04878048780488,-50,0.182926829268293,-29,1.76829268292683,-88,0.382608695652174,41,0.178260869565217,134,-0.653658536585366,
11810294,6113.28125,5184,-3.17841814837523,-15200,-9.31943592887799,-2080,1.27529123237278,-9,3.29268292682927,-54,0.548780487804878,-26,1.58536585365854,-88,0.382608695652174,33,0.143478260869565,136,-0.663414634146342,
11810934,6132.8125,5104,-3.12936848559166,-15152,-9.29000613120785,-2160,1.32434089515635,-7,3.17073170731707,-52,0.426829268292683,-24,1.46341463414634,-87,0.378260869565217,34,0.147826086956522,136,-0.663414634146342,
11811574,6152.34375,5152,-3.1587982832618,-15120,-9.27038626609442,-2128,1.30472103004292,-7,3.41463414634146,-56,0.426829268292683,-17,1.03658536585366,-86,0.373913043478261,33,0.143478260869565,136,-0.663414634146342,
11812214,6171.875,5184,-3.17841814837523,-15152,-9.29000613120785,-2112,1.2949110974862,-3,3.10975609756098,-51,0.182926829268293,-13,0.792682926829268,-86,0.373913043478261,33,0.143478260869565,135,-0.658536585365854,
11812854,6191.40625,5232,-3.20784794604537,-15120,-9.27038626609442,-2176,1.33415082771306,-2,2.98780487804878,-49,0.121951219512195,-4,0.24390243902439,-87,0.378260869565217,38,0.165217391304348,136,-0.663414634146342,
11813494,6210.9375,5216,-3.19803801348866,-15264,-9.35867565910484,-2080,1.27529123237278,-11,2.86585365853659,-47,0.670731707317073,0,0,-88,0.382608695652174,38,0.165217391304348,135,-0.658536585365854,
11814134,6230.46875,5184,-3.17841814837523,-15184,-9.30962599632127,-2112,1.2949110974862,-12,3.04878048780488,-50,0.731707317073171,7,-0.426829268292683,-86,0.373913043478261,32,0.139130434782609,136,-0.663414634146342,
11814774,6250,5200,-3.18822808093194,-15152,-9.29000613120785,-2176,1.33415082771306,-16,2.80487804878049,-46,0.975609756097561,8,-0.487804878048781,-85,0.369565217391304,35,0.152173913043478,135,-0.658536585365854,
11815414,6269.53125,5216,-3.19803801348866,-15136,-9.28019619865113,-2160,1.32434089515635,-13,2.74390243902439,-45,0.792682926829268,12,-0.731707317073171,-88,0.382608695652174,37,0.160869565217391,136,-0.663414634146342,
11816054,6289.0625,5248,-3.21765787860208,-15248,-9.34886572654813,-2080,1.27529123237278,-12,2.6219512195122,-43,0.731707317073171,9,-0.548780487804878,-89,0.38695652173913,35,0.152173913043478,135,-0.658536585365854,
11816694,6308.59375,5392,-3.30594727161251,-15248,-9.34886572654813,-2128,1.30472103004292,-6,2.4390243902439,-40,0.365853658536585,12,-0.731707317073171,-86,0.373913043478261,32,0.139130434782609,137,-0.668292682926829,
11817334,6328.125,5408,-3.31575720416922,-15264,-9.35867565910484,-2112,1.2949110974862,2,2.4390243902439,-40,-0.121951219512195,18,-1.09756097560976,-86,0.373913043478261,33,0.143478260869565,135,-0.658536585365854,
11817974,6347.65625,5456,-3.34518700183936,-15152,-9.29000613120785,-2144,1.31453096259963,7,2.4390243902439,-40,-0.426829268292683,14,-0.853658536585366,-86,0.373913043478261,36,0.156521739130435,135,-0.658536585365854,
11818614,6367.1875,5392,-3.30594727161251,-15088,-9.25076640098099,-2256,1.38320049049663,1,2.25609756097561,-37,-0.0609756097560976,4,-0.24390243902439,-86,0.373913043478261,36,0.156521739130435,135,-0.658536585365854,
11819254,6386.71875,5424,-3.32556713672594,-15120,-9.27038626609442,-2272,1.39301042305334,-4,2.68292682926829,-44,0.24390243902439,-3,0.182926829268293,-86,0.373913043478261,34,0.147826086956522,136,-0.663414634146342,
11819894,6406.25,5552,-3.40404659717964,-15168,-9.29981606376456,-2240,1.37339055793991,4,2.92682926829268,-48,-0.24390243902439,-17,1.03658536585366,-88,0.382608695652174,36,0.156521739130435,134,-0.653658536585366,
11820534,6425.78125,5616,-3.4432863274065,-15248,-9.34886572654813,-2336,1.4322501532802,22,3.10975609756098,-51,-1.34146341463415,-24,1.46341463414634,-86,0.373913043478261,36,0.156521739130435,136,-0.663414634146342,
11821174,6445.3125,5456,-3.34518700183936,-15264,-9.35867565910484,-2288,1.40282035561006,22,3.53658536585366,-58,-1.34146341463415,-32,1.95121951219512,-88,0.382608695652174,35,0.152173913043478,135,-0.658536585365854,
11821814,6464.84375,5408,-3.31575720416922,-15264,-9.35867565910484,-2256,1.38320049049663,8,3.71951219512195,-61,-0.487804878048781,-38,2.31707317073171,-88,0.382608695652174,33,0.143478260869565,135,-0.658536585365854,
11822454,6484.375,5392,-3.30594727161251,-15136,-9.28019619865113,-2256,1.38320049049663,1,3.96341463414634,-65,-0.0609756097560976,-39,2.37804878048781,-87,0.378260869565217,35,0.152173913043478,135,-0.658536585365854,
11823094,6503.90625,5424,-3.32556713672594,-15072,-9.24095646842428,-2208,1.35377069282649,0,4.02439024390244,-66,0,-39,2.37804878048781,-86,0.373913043478261,32,0.139130434782609,135,-0.658536585365854,
11823734,6523.4375,5408,-3.31575720416922,-15120,-9.27038626609442,-2240,1.37339055793991,4,3.84146341463415,-63,-0.24390243902439,-36,2.19512195121951,-89,0.38695652173913,33,0.143478260869565,134,-0.653658536585366,
11824374,6542.96875,5360,-3.28632740649908,-15088,-9.25076640098099,-2160,1.32434089515635,15,3.84146341463415,-63,-0.914634146341463,-30,1.82926829268293,-88,0.382608695652174,38,0.165217391304348,137,-0.668292682926829,
11825014,6562.5,5328,-3.26670754138565,-15120,-9.27038626609442,-2128,1.30472103004292,20,3.59756097560976,-59,-1.21951219512195,-28,1.70731707317073,-87,0.378260869565217,35,0.152173913043478,137,-0.668292682926829,
11825654,6582.03125,5392,-3.30594727161251,-15168,-9.29981606376456,-2064,1.26548129981606,17,3.17073170731707,-52,-1.03658536585366,-32,1.95121951219512,-87,0.378260869565217,32,0.139130434782609,136,-0.663414634146342,
11826294,6601.5625,5344,-3.27651747394237,-15184,-9.30962599632127,-2048,1.25567136725935,23,3.23170731707317,-53,-1.40243902439024,-32,1.95121951219512,-86,0.373913043478261,35,0.152173913043478,137,-0.668292682926829,
11826934,6621.09375,5248,-3.21765787860208,-15232,-9.33905579399141,-2160,1.32434089515635,26,2.98780487804878,-49,-1.58536585365854,-27,1.64634146341463,-87,0.378260869565217,36,0.156521739130435,134,-0.653658536585366,
11827574,6640.625,5216,-3.19803801348866,-15216,-9.3292458614347,-2112,1.2949110974862,25,2.80487804878049,-46,-1.52439024390244,-25,1.52439024390244,-86,0.373913043478261,36,0.156521739130435,134,-0.653658536585366,
11828214,6660.15625,5168,-3.16860821581852,-15088,-9.25076640098099,-2016,1.23605150214592,17,2.68292682926829,-44,-1.03658536585366,-20,1.21951219512195,-88,0.382608695652174,36,0.156521739130435,136,-0.663414634146342,
11828854,6679.6875,5216,-3.19803801348866,-15056,-9.23114653586757,-2064,1.26548129981606,9,2.68292682926829,-44,-0.548780487804878,-16,0.975609756097561,-87,0.378260869565217,35,0.152173913043478,135,-0.658536585365854,
11829494,6699.21875,5216,-3.19803801348866,-15120,-9.27038626609442,-2032,1.24586143470264,6,2.4390243902439,-40,-0.365853658536585,-13,0.792682926829268,-88,0.382608695652174,37,0.160869565217391,134,-0.653658536585366,
11830134,6718.75,5264,-3.2274678111588,-15200,-9.31943592887799,-2128,1.30472103004292,8,2.25609756097561,-37,-0.487804878048781,-12,0.731707317073171,-85,0.369565217391304,37,0.160869565217391,135,-0.658536585365854,
11830774,6738.28125,5232,-3.20784794604537,-15232,-9.33905579399141,-2176,1.33415082771306,14,2.31707317073171,-38,-0.853658536585366,-10,0.609756097560976,-88,0.382608695652174,33,0.143478260869565,137,-0.668292682926829,
11831414,6757.8125,5312,-3.25689760882894,-15248,-9.34886572654813,-2112,1.2949110974862,4,2.37804878048781,-39,-0.24390243902439,-9,0.548780487804878,-89,0.38695652173913,33,0.143478260869565,136,-0.663414634146342,
11832054,6777.34375,5296,-3.24708767627223,-15200,-9.31943592887799,-2128,1.30472103004292,2,2.25609756097561,-37,-0.121951219512195,-10,0.609756097560976,-88,0.382608695652174,35,0.152173913043478,134,-0.653658536585366,
11832694,6796.875,5408,-3.31575720416922,-15200,-9.31943592887799,-2112,1.2949110974862,-3,2.25609756097561,-37,0.182926829268293,-8,0.487804878048781,-87,0.378260869565217,35,0.152173913043478,135,-0.658536585365854,
11833334,6816.40625,5440,-3.33537706928265,-15120,-9.27038626609442,-2128,1.30472103004292,0,2.31707317073171,-38,0,-6,0.365853658536585,-87,0.378260869565217,34,0.147826086956522,136,-0.663414634146342,
11833974,6835.9375,5376,-3.29613733905579,-15184,-9.30962599632127,-2128,1.30472103004292,4,2.25609756097561,-37,-0.24390243902439,-3,0.182926829268293,-85,0.369565217391304,38,0.165217391304348,136,-0.663414634146342,
11834614,6855.46875,5376,-3.29613733905579,-15184,-9.30962599632127,-2176,1.33415082771306,9,2.25609756097561,-37,-0.548780487804878,-4,0.24390243902439,-86,0.373913043478261,33,0.143478260869565,134,-0.653658536585366,
11835254,6875,5392,-3.30594727161251,-15152,-9.29000613120785,-2288,1.40282035561006,1,2.5,-41,-0.0609756097560976,-3,0.182926829268293,-88,0.382608695652174,36,0.156521739130435,135,-0.658536585365854,
11835894,6894.53125,5376,-3.29613733905579,-15184,-9.30962599632127,-2144,1.31453096259963,-1,2.5,-41,0.0609756097560976,-11,0.670731707317073,-87,0.378260869565217,37,0.160869565217391,136,-0.663414634146342,
11836534,6914.0625,5456,-3.34518700183936,-15168,-9.29981606376456,-2176,1.33415082771306,-5,2.98780487804878,-49,0.304878048780488,-19,1.15853658536585,-87,0.378260869565217,33,0.143478260869565,136,-0.663414634146342,
11837174,6933.59375,5472,-3.35499693439608,-15120,-9.27038626609442,-2208,1.35377069282649,-3,3.23170731707317,-53,0.182926829268293,-20,1.21951219512195,-87,0.378260869565217,32,0.139130434782609,137,-0.668292682926829,
11837814,6953.125,5472,-3.35499693439608,-14992,-9.19190680564071,-2240,1.37339055793991,-4,3.35365853658537,-55,0.24390243902439,-22,1.34146341463415,-88,0.382608695652174,35,0.152173913043478,135,-0.658536585365854,
11838454,6972.65625,5472,-3.35499693439608,-15024,-9.21152667075414,-2144,1.31453096259963,-3,3.35365853658537,-55,0.182926829268293,-23,1.40243902439024,-88,0.382608695652174,36,0.156521739130435,134,-0.653658536585366,
11839094,6992.1875,5600,-3.43347639484979,-15072,-9.24095646842428,-2208,1.35377069282649,3,3.04878048780488,-50,-0.182926829268293,-22,1.34146341463415,-86,0.373913043478261,34,0.147826086956522,135,-0.658536585365854,
11839734,7011.71875,5536,-3.39423666462293,-15136,-9.28019619865113,-2256,1.38320049049663,14,3.17073170731707,-52,-0.853658536585366,-20,1.21951219512195,-86,0.373913043478261,33,0.143478260869565,135,-0.658536585365854,
11840374,7031.25,5536,-3.39423666462293,-15168,-9.29981606376456,-2176,1.33415082771306,20,2.80487804878049,-46,-1.21951219512195,-16,0.975609756097561,-87,0.378260869565217,36,0.156521739130435,135,-0.658536585365854,
11841014,7050.78125,5472,-3.35499693439608,-15168,-9.29981606376456,-2192,1.34396076026977,17,2.92682926829268,-48,-1.03658536585366,-22,1.34146341463415,-87,0.378260869565217,36,0.156521739130435,134,-0.653658536585366,
11841654,7070.3125,5440,-3.33537706928265,-15104,-9.26057633353771,-2256,1.38320049049663,10,3.23170731707317,-53,-0.609756097560976,-33,2.01219512195122,-87,0.378260869565217,37,0.160869565217391,136,-0.663414634146342,
11842294,7089.84375,5488,-3.36480686695279,-15104,-9.26057633353771,-2208,1.35377069282649,7,3.10975609756098,-51,-0.426829268292683,-38,2.31707317073171,-88,0.382608695652174,33,0.143478260869565,136,-0.663414634146342,
11842934,7109.375,5504,-3.3746167995095,-15040,-9.22133660331085,-2096,1.28510116492949,15,3.29268292682927,-54,-0.914634146341463,-40,2.4390243902439,-86,0.373913043478261,34,0.147826086956522,135,-0.658536585365854,
11843574,7128.90625,5456,-3.34518700183936,-15136,-9.28019619865113,-2192,1.34396076026977,25,3.23170731707317,-53,-1.52439024390244,-34,2.07317073170732,-86,0.373913043478261,32,0.139130434782609,136,-0.663414634146342,
11844214,7148.4375,5456,-3.34518700183936,-15136,-9.28019619865113,-2192,1.34396076026977,22,2.92682926829268,-48,-1.34146341463415,-25,1.52439024390244,-88,0.382608695652174,34,0.147826086956522,136,-0.663414634146342,
11844854,7167.96875,5504,-3.3746167995095,-15216,-9.3292458614347,-2144,1.31453096259963,14,2.92682926829268,-48,-0.853658536585366,-26,1.58536585365854,-87,0.378260869565217,37,0.160869565217391,136,-0.663414634146342,
11845494,7187.5,5504,-3.3746167995095,-15120,-9.27038626609442,-2112,1.2949110974862,16,3.23170731707317,-53,-0.975609756097561,-29,1.76829268292683,-85,0.369565217391304,33,0.143478260869565,135,-0.658536585365854,
11846134,7207.03125,5456,-3.34518700183936,-15104,-9.26057633353771,-2064,1.26548129981606,30,2.80487804878049,-46,-1.82926829268293,-29,1.76829268292683,-86,0.373913043478261,34,0.147826086956522,136,-0.663414634146342,
11846774,7226.5625,5440,-3.33537706928265,-15120,-9.27038626609442,-2144,1.31453096259963,36,2.92682926829268,-48,-2.19512195121951,-30,1.82926829268293,-90,0.391304347826087,36,0.156521739130435,136,-0.663414634146342,
11847414,7246.09375,5408,-3.31575720416922,-15168,-9.29981606376456,-2160,1.32434089515635,30,3.10975609756098,-51,-1.82926829268293,-28,1.70731707317073,-88,0.382608695652174,36,0.156521739130435,135,-0.658536585365854,
11848054,7265.625,5504,-3.3746167995095,-15136,-9.28019619865113,-2144,1.31453096259963,23,3.04878048780488,-50,-1.40243902439024,-25,1.52439024390244,-87,0.378260869565217,35,0.152173913043478,135,-0.658536585365854,
11848694,7285.15625,5472,-3.35499693439608,-15168,-9.29981606376456,-2208,1.35377069282649,19,2.92682926829268,-48,-1.15853658536585,-33,2.01219512195122,-86,0.373913043478261,32,0.139130434782609,136,-0.663414634146342,
11849334,7304.6875,5440,-3.33537706928265,-15216,-9.3292458614347,-2192,1.34396076026977,28,3.23170731707317,-53,-1.70731707317073,-34,2.07317073170732,-86,0.373913043478261,36,0.156521739130435,135,-0.658536585365854,
11849974,7324.21875,5408,-3.31575720416922,-15184,-9.30962599632127,-2272,1.39301042305334,31,2.86585365853659,-47,-1.89024390243902,-31,1.89024390243902,-86,0.373913043478261,36,0.156521739130435,135,-0.658536585365854,
11850614,7343.75,5376,-3.29613733905579,-15168,-9.29981606376456,-2144,1.31453096259963,33,2.98780487804878,-49,-2.01219512195122,-32,1.95121951219512,-89,0.38695652173913,34,0.147826086956522,136,-0.663414634146342,
11851254,7363.28125,5344,-3.27651747394237,-15152,-9.29000613120785,-2208,1.35377069282649,22,3.17073170731707,-52,-1.34146341463415,-27,1.64634146341463,-88,0.382608695652174,32,0.139130434782609,136,-0.663414634146342,
11851894,7382.8125,5328,-3.26670754138565,-15120,-9.27038626609442,-2128,1.30472103004292,12,2.98780487804878,-49,-0.731707317073171,-23,1.40243902439024,-87,0.378260869565217,35,0.152173913043478,135,-0.658536585365854,
11852534,7402.34375,5392,-3.30594727161251,-15120,-9.27038626609442,-2128,1.30472103004292,8,3.17073170731707,-52,-0.487804878048781,-21,1.28048780487805,-86,0.373913043478261,34,0.147826086956522,135,-0.658536585365854,
11853174,7421.875,5344,-3.27651747394237,-15200,-9.31943592887799,-2128,1.30472103004292,8,3.17073170731707,-52,-0.487804878048781,-22,1.34146341463415,-88,0.382608695652174,34,0.147826086956522,136,-0.663414634146342,
11853814,7441.40625,5360,-3.28632740649908,-15168,-9.29981606376456,-2112,1.2949110974862,8,3.29268292682927,-54,-0.487804878048781,-21,1.28048780487805,-87,0.378260869565217,36,0.156521739130435,136,-0.663414634146342,
11854454,7460.9375,5392,-3.30594727161251,-15120,-9.27038626609442,-2144,1.31453096259963,4,3.04878048780488,-50,-0.24390243902439,-20,1.21951219512195,-89,0.38695652173913,34,0.147826086956522,135,-0.658536585365854,
11855094,7480.46875,5344,-3.27651747394237,-15104,-9.26057633353771,-2160,1.32434089515635,1,3.17073170731707,-52,-0.0609756097560976,-17,1.03658536585366,-87,0.378260869565217,33,0.143478260869565,136,-0.663414634146342,
11855734,7500,5296,-3.24708767627223,-15072,-9.24095646842428,-2048,1.25567136725935,-2,2.80487804878049,-46,0.121951219512195,-7,0.426829268292683,-89,0.38695652173913,40,0.173913043478261,135,-0.658536585365854,
11856374,7519.53125,5280,-3.23727774371551,-15088,-9.25076640098099,-2112,1.2949110974862,-9,2.80487804878049,-46,0.548780487804878,2,-0.121951219512195,-88,0.382608695652174,38,0.165217391304348,136,-0.663414634146342,
11857014,7539.0625,5312,-3.25689760882894,-15104,-9.26057633353771,-2112,1.2949110974862,-8,2.74390243902439,-45,0.487804878048781,8,-0.487804878048781,-88,0.382608695652174,33,0.143478260869565,135,-0.658536585365854,
11857654,7558.59375,5376,-3.29613733905579,-15120,-9.27038626609442,-2160,1.32434089515635,-3,2.5609756097561,-42,0.182926829268293,10,-0.609756097560976,-88,0.382608695652174,34,0.147826086956522,134,-0.653658536585366,
11858294,7578.125,5360,-3.28632740649908,-15104,-9.26057633353771,-2176,1.33415082771306,1,2.4390243902439,-40,-0.0609756097560976,10,-0.609756097560976,-86,0.373913043478261,36,0.156521739130435,134,-0.653658536585366,
11858934,7597.65625,5376,-3.29613733905579,-15120,-9.27038626609442,-2080,1.27529123237278,-2,2.37804878048781,-39,0.121951219512195,11,-0.670731707317073,-86,0.373913043478261,36,0.156521739130435,135,-0.658536585365854,
11859574,7617.1875,5392,-3.30594727161251,-15168,-9.29981606376456,-2112,1.2949110974862,-10,2.31707317073171,-38,0.609756097560976,17,-1.03658536585366,-88,0.382608695652174,34,0.147826086956522,137,-0.668292682926829,
11860214,7636.71875,5424,-3.32556713672594,-15136,-9.28019619865113,-2080,1.27529123237278,-16,2.37804878048781,-39,0.975609756097561,17,-1.03658536585366,-88,0.382608695652174,35,0.152173913043478,137,-0.668292682926829,
11860854,7656.25,5456,-3.34518700183936,-15072,-9.24095646842428,-2096,1.28510116492949,-19,2.31707317073171,-38,1.15853658536585,18,-1.09756097560976,-86,0.373913043478261,37,0.160869565217391,136,-0.663414634146342,
11861494,7675.78125,5424,-3.32556713672594,-15088,-9.25076640098099,-2176,1.33415082771306,-19,2.25609756097561,-37,1.15853658536585,19,-1.15853658536585,-86,0.373913043478261,34,0.147826086956522,134,-0.653658536585366,
11862134,7695.3125,5536,-3.39423666462293,-15184,-9.30962599632127,-2144,1.31453096259963,-18,2.01219512195122,-33,1.09756097560976,24,-1.46341463414634,-89,0.38695652173913,32,0.139130434782609,135,-0.658536585365854,
11862774,7714.84375,5600,-3.43347639484979,-15184,-9.30962599632127,-2128,1.30472103004292,-11,2.01219512195122,-33,0.670731707317073,26,-1.58536585365854,-88,0.382608695652174,35,0.152173913043478,136,-0.663414634146342,
11863414,7734.375,5568,-3.41385652973636,-15056,-9.23114653586757,-2208,1.35377069282649,-8,2.07317073170732,-34,0.487804878048781,28,-1.70731707317073,-86,0.373913043478261,33,0.143478260869565,135,-0.658536585365854,
11864054,7753.90625,5584,-3.42366646229307,-15040,-9.22133660331085,-2144,1.31453096259963,-13,2.19512195121951,-36,0.792682926829268,23,-1.40243902439024,-86,0.373913043478261,38,0.165217391304348,135,-0.658536585365854,
11864694,7773.4375,5600,-3.43347639484979,-15024,-9.21152667075414,-2176,1.33415082771306,-21,2.19512195121951,-36,1.28048780487805,17,-1.03658536585366,-87,0.378260869565217,37,0.160869565217391,135,-0.658536585365854,
11865334,7792.96875,5568,-3.41385652973636,-15072,-9.24095646842428,-2256,1.38320049049663,-17,2.19512195121951,-36,1.03658536585366,11,-0.670731707317073,-88,0.382608695652174,38,0.165217391304348,134,-0.653658536585366,
11865974,7812.5,5600,-3.43347639484979,-15168,-9.29981606376456,-2336,1.4322501532802,-12,2.6219512195122,-43,0.731707317073171,11,-0.670731707317073,-87,0.378260869565217,32,0.139130434782609,136,-0.663414634146342,
11866614,7832.03125,5488,-3.36480686695279,-15120,-9.27038626609442,-2272,1.39301042305334,-6,2.6219512195122,-43,0.365853658536585,17,-1.03658536585366,-87,0.378260869565217,33,0.143478260869565,137,-0.668292682926829,
11867254,7851.5625,5504,-3.3746167995095,-15136,-9.28019619865113,-2320,1.42244022072348,-9,2.86585365853659,-47,0.548780487804878,9,-0.548780487804878,-87,0.378260869565217,35,0.152173913043478,135,-0.658536585365854,
11867894,7871.09375,5648,-3.46290619251993,-15136,-9.28019619865113,-2272,1.39301042305334,-17,3.04878048780488,-50,1.03658536585366,5,-0.304878048780488,-87,0.378260869565217,37,0.160869565217391,134,-0.653658536585366,
11868534,7890.625,5584,-3.42366646229307,-15088,-9.25076640098099,-2272,1.39301042305334,-11,3.17073170731707,-52,0.670731707317073,-5,0.304878048780488,-86,0.373913043478261,39,0.169565217391304,135,-0.658536585365854,
11869174,7910.15625,5488,-3.36480686695279,-15120,-9.27038626609442,-2208,1.35377069282649,-3,3.23170731707317,-53,0.182926829268293,-11,0.670731707317073,-87,0.378260869565217,35,0.152173913043478,136,-0.663414634146342,
11869814,7929.6875,5456,-3.34518700183936,-15168,-9.29981606376456,-2176,1.33415082771306,3,3.41463414634146,-56,-0.182926829268293,-14,0.853658536585366,-87,0.378260869565217,37,0.160869565217391,134,-0.653658536585366,
11870454,7949.21875,5456,-3.34518700183936,-15136,-9.28019619865113,-2096,1.28510116492949,1,3.59756097560976,-59,-0.0609756097560976,-15,0.914634146341463,-87,0.378260869565217,35,0.152173913043478,136,-0.663414634146342,
11871094,7968.75,5520,-3.38442673206622,-15168,-9.29981606376456,-2080,1.27529123237278,-5,3.29268292682927,-54,0.304878048780488,-18,1.09756097560976,-88,0.382608695652174,34,0.147826086956522,136,-0.663414634146342,
11871734,7988.28125,5440,-3.33537706928265,-15184,-9.30962599632127,-2192,1.34396076026977,-3,3.41463414634146,-56,0.182926829268293,-18,1.09756097560976,-86,0.373913043478261,36,0.156521739130435,135,-0.658536585365854,
11872374,8007.8125,5504,-3.3746167995095,-15088,-9.25076640098099,-2112,1.2949110974862,4,3.41463414634146,-56,-0.24390243902439,-19,1.15853658536585,-86,0.373913043478261,34,0.147826086956522,135,-0.658536585365854,
11873014,8027.34375,5440,-3.33537706928265,-15072,-9.24095646842428,-2096,1.28510116492949,6,3.23170731707317,-53,-0.365853658536585,-21,1.28048780487805,-88,0.382608695652174,34,0.147826086956522,137,-0.668292682926829,
11873654,8046.875,5504,-3.3746167995095,-15120,-9.27038626609442,-2080,1.27529123237278,12,3.17073170731707,-52,-0.731707317073171,-21,1.28048780487805,-88,0.382608695652174,35,0.152173913043478,133,-0.648780487804878,
11874294,8066.40625,5488,-3.36480686695279,-15136,-9.28019619865113,-2176,1.33415082771306,19,3.10975609756098,-51,-1.15853658536585,-20,1.21951219512195,-86,0.373913043478261,32,0.139130434782609,135,-0.658536585365854,
11874934,8085.9375,5488,-3.36480686695279,-15152,-9.29000613120785,-2112,1.2949110974862,19,2.92682926829268,-48,-1.15853658536585,-18,1.09756097560976,-89,0.38695652173913,34,0.147826086956522,134,-0.653658536585366,
11875574,8105.46875,5440,-3.33537706928265,-15184,-9.30962599632127,-2144,1.31453096259963,4,3.04878048780488,-50,-0.24390243902439,-19,1.15853658536585,-88,0.382608695652174,38,0.165217391304348,135,-0.658536585365854,
11876214,8125,5456,-3.34518700183936,-15200,-9.31943592887799,-2128,1.30472103004292,6,2.98780487804878,-49,-0.365853658536585,-20,1.21951219512195,-87,0.378260869565217,37,0.160869565217391,135,-0.658536585365854,
11876854,8144.53125,5520,-3.38442673206622,-15184,-9.30962599632127,-2144,1.31453096259963,8,2.92682926829268,-48,-0.487804878048781,-24,1.46341463414634,-88,0.382608695652174,34,0.147826086956522,135,-0.658536585365854,
11877494,8164.0625,5456,-3.34518700183936,-15120,-9.27038626609442,-2144,1.31453096259963,7,3.10975609756098,-51,-0.426829268292683,-24,1.46341463414634,-90,0.391304347826087,33,0.143478260869565,136,-0.663414634146342,
11878134,8183.59375,5424,-3.32556713672594,-15168,-9.29981606376456,-2096,1.28510116492949,9,3.17073170731707,-52,-0.548780487804878,-23,1.40243902439024,-88,0.382608695652174,37,0.160869565217391,135,-0.658536585365854,
11878774,8203.125,5440,-3.33537706928265,-15072,-9.24095646842428,-2064,1.26548129981606,10,3.10975609756098,-51,-0.609756097560976,-22,1.34146341463415,-87,0.378260869565217,37,0.160869565217391,134,-0.653658536585366,
11879414,8222.65625,5440,-3.33537706928265,-15152,-9.29000613120785,-2176,1.33415082771306,9,3.10975609756098,-51,-0.548780487804878,-22,1.34146341463415,-86,0.373913043478261,33,0.143478260869565,135,-0.658536585365854,
11880054,8242.1875,5440,-3.33537706928265,-15136,-9.28019619865113,-2240,1.37339055793991,11,3.29268292682927,-54,-0.670731707317073,-25,1.52439024390244,-87,0.378260869565217,36,0.156521739130435,135,-0.658536585365854,
11880694,8261.71875,5536,-3.39423666462293,-15072,-9.24095646842428,-2224,1.3635806253832,24,3.04878048780488,-50,-1.46341463414634,-41,2.5,-89,0.38695652173913,41,0.178260869565217,135,-0.658536585365854,
11881334,8281.25,5856,-3.5904353157572,-15024,-9.21152667075414,-2416,1.48129981606376,66,2.80487804878049,-46,-4.02439024390244,-71,4.32926829268293,-86,0.373913043478261,36,0.156521739130435,135,-0.658536585365854,
11881974,8300.78125,6336,-3.88473329245861,-15008,-9.20171673819742,-2720,1.66768853464132,156,2.68292682926829,-44,-9.51219512195122,-98,5.97560975609756,-88,0.382608695652174,33,0.143478260869565,137,-0.668292682926829,
11882614,8320.3125,6768,-4.14960147148988,-15184,-9.30962599632127,-2864,1.75597792765175,288,3.23170731707317,-53,-17.5609756097561,-128,7.80487804878049,-88,0.382608695652174,37,0.160869565217391,135,-0.658536585365854,
11883254,8339.84375,6992,-4.28694052728387,-15120,-9.27038626609442,-3024,1.85407725321888,377,4.57317073170732,-75,-22.9878048780488,-160,9.75609756097561,-86,0.373913043478261,34,0.147826086956522,135,-0.658536585365854,
11883894,8359.375,6992,-4.28694052728387,-14880,-9.12323727774372,-3200,1.96198651134273,335,5.42682926829268,-89,-20.4268292682927,-222,13.5365853658537,-87,0.378260869565217,34,0.147826086956522,135,-0.658536585365854,
11884534,8378.90625,7104,-4.35561005518087,-14688,-9.00551808706315,-3456,2.11894543225015,243,5.60975609756098,-92,-14.8170731707317,-285,17.3780487804878,-87,0.378260869565217,37,0.160869565217391,135,-0.658536585365854,
11885174,8398.4375,7920,-4.85591661557327,-14368,-8.80931943592888,-3728,2.28571428571429,295,4.63414634146342,-76,-17.9878048780488,-322,19.6341463414634,-87,0.378260869565217,40,0.173913043478261,135,-0.658536585365854,
11885814,8417.96875,9200,-5.64071122011036,-14240,-8.73083997547517,-3984,2.4426732066217,586,4.26829268292683,-70,-35.7317073170732,-308,18.780487804878,-89,0.38695652173913,38,0.165217391304348,135,-0.658536585365854,
11886454,8437.5,9632,-5.90557939914163,-14112,-8.65236051502146,-4112,2.52115266707541,876,5,-82,-53.4146341463415,-306,18.6585365853659,-86,0.373913043478261,37,0.160869565217391,136,-0.663414634146342,
11887094,8457.03125,9872,-6.05272838749234,-14064,-8.62293071735132,-4320,2.64868179031269,928,7.86585365853659,-129,-56.5853658536585,-384,23.4146341463415,-87,0.378260869565217,37,0.160869565217391,135,-0.658536585365854,
11887734,8476.5625,10416,-6.3862660944206,-14352,-8.79950950337216,-4688,2.87431023911711,897,10.7317073170732,-176,-54.6951219512195,-523,31.890243902439,-85,0.369565217391304,36,0.156521739130435,135,-0.658536585365854,
11888374,8496.09375,11920,-7.30839975475169,-14224,-8.72103004291846,-5264,3.2274678111588,1060,12.5,-205,-64.6341463414634,-662,40.3658536585366,-83,0.360869565217391,33,0.143478260869565,137,-0.668292682926829,
11889014,8515.625,13344,-8.1814837522992,-14048,-8.6131207847946,-6208,3.8062538320049,1592,18.1707317073171,-298,-97.0731707317073,-729,44.4512195121951,-84,0.365217391304348,39,0.169565217391304,136,-0.663414634146342,
11889654,8535.15625,13248,-8.12262415695892,-13840,-8.48559166155733,-7200,4.41446965052115,2003,23.3536585365854,-383,-122.134146341463,-804,49.0243902439024,-81,0.352173913043478,36,0.156521739130435,136,-0.663414634146342,
11890294,8554.6875,12576,-7.71060698957695,-14400,-8.8289393010423,-7392,4.53218884120172,1989,33.3536585365854,-547,-121.280487804878,-899,54.8170731707317,-83,0.360869565217391,37,0.160869565217391,137,-0.668292682926829,
11890934,8574.21875,11984,-7.34763948497854,-14944,-9.16247700797057,-7632,4.67933782955242,1783,44.5731707317073,-731,-108.719512195122,-977,59.5731707317073,-80,0.347826086956522,35,0.152173913043478,139,-0.678048780487805,
11891574,8593.75,11808,-7.23973022685469,-15040,-9.22133660331085,-8064,4.94420600858369,1556,51.5853658536585,-846,-94.8780487804878,-996,60.7317073170732,-81,0.352173913043478,37,0.160869565217391,138,-0.673170731707317,
11892214,8613.28125,11728,-7.19068056407112,-15200,-9.31943592887799,-8800,5.39546290619252,1416,58.2926829268293,-956,-86.3414634146341,-1047,63.8414634146342,-81,0.352173913043478,37,0.160869565217391,139,-0.678048780487805,
11892854,8632.8125,12080,-7.40649908031882,-15488,-9.49601471489883,-9520,5.83690987124464,1367,63.8414634146342,-1047,-83.3536585365854,-1134,69.1463414634146,-79,0.343478260869565,30,0.130434782608696,142,-0.692682926829268,
11893494,8652.34375,12208,-7.48497854077253,-16080,-9.85898221949724,-9408,5.76824034334764,1417,68.719512195122,-1127,-86.4024390243902,-1270,77.4390243902439,-77,0.334782608695652,32,0.139130434782609,143,-0.697560975609756,
11894134,8671.875,11920,-7.30839975475169,-16848,-10.3298589822195,-9344,5.72900061312078,1512,76.7073170731707,-1258,-92.1951219512195,-1395,85.0609756097561,-78,0.339130434782609,31,0.134782608695652,146,-0.712195121951219,
11894774,8691.40625,11216,-6.87676272225628,-16928,-10.3789086450031,-9360,5.7388105456775,1584,82.8048780487805,-1358,-96.5853658536585,-1456,88.7804878048781,-76,0.330434782608696,24,0.104347826086957,145,-0.707317073170732,
11895414,8710.9375,10688,-6.55303494788473,-16384,-10.0453709380748,-9200,5.64071122011036,1803,85.8536585365854,-1408,-109.939024390244,-1422,86.7073170731707,-78,0.339130434782609,31,0.134782608695652,148,-0.721951219512195,
11896054,8730.46875,10752,-6.59227467811159,-15872,-9.73145309625996,-9648,5.91538933169834,2078,85.3048780487805,-1399,-126.707317073171,-1343,81.890243902439,-77,0.334782608695652,25,0.108695652173913,150,-0.731707317073171,
11896694,8750,10048,-6.16063764561619,-15504,-9.50582464745555,-10272,6.29797670141018,2334,84.5731707317073,-1387,-142.317073170732,-1215,74.0853658536585,-73,0.317391304347826,22,0.0956521739130435,150,-0.731707317073171,
11897334,8769.53125,8736,-5.35622317596567,-15152,-9.29000613120785,-10672,6.54322501532802,2320,88.3536585365854,-1449,-141.463414634146,-1018,62.0731707317073,-71,0.308695652173913,24,0.104347826086957,152,-0.741463414634146,
11897974,8789.0625,7456,-4.57142857142857,-14976,-9.182096873084,-10624,6.51379521765788,2028,91.890243902439,-1507,-123.658536585366,-908,55.3658536585366,-65,0.282608695652174,19,0.0826086956521739,155,-0.75609756097561,
11898614,8808.59375,6912,-4.23789086450031,-14352,-8.79950950337216,-10640,6.52360515021459,1734,95.1219512195122,-1560,-105.731707317073,-827,50.4268292682927,-66,0.28695652173913,19,0.0826086956521739,154,-0.751219512195122,
11899254,8828.125,7648,-4.68914776210914,-13808,-8.4659717964439,-10976,6.72961373390558,1672,92.3780487804878,-1515,-101.951219512195,-705,42.9878048780488,-62,0.269565217391304,14,0.0608695652173913,156,-0.760975609756098,
11899894,8847.65625,7568,-4.64009809932557,-13664,-8.37768240343348,-11552,7.08277130594727,1842,92.8048780487805,-1522,-112.317073170732,-599,36.5243902439024,-59,0.256521739130435,13,0.0565217391304348,155,-0.75609756097561,
11900534,8867.1875,6944,-4.25751072961373,-13056,-8.00490496627836,-11920,7.30839975475169,1891,93.4146341463415,-1532,-115.30487804878,-507,30.9146341463415,-55,0.239130434782609,6,0.0260869565217391,159,-0.775609756097561,
11901174,8886.71875,5904,-3.61986511342735,-12464,-7.64193746167995,-12640,7.7498467198038,1901,96.7073170731707,-1586,-115.914634146341,-418,25.4878048780488,-50,0.217391304347826,5,0.0217391304347826,159,-0.775609756097561,
11901814,8906.25,5120,-3.13917841814837,-11840,-7.25935009196812,-13104,8.0343347639485,1763,99.6341463414634,-1634,-107.5,-371,22.6219512195122,-46,0.2,0,0,159,-0.775609756097561,
11902454,8925.78125,4320,-2.64868179031269,-11536,-7.07296137339056,-12128,7.43592887798896,1487,101.219512195122,-1660,-90.6707317073171,-364,22.1951219512195,-46,0.2,-2,-0.00869565217391304,160,-0.780487804878049,
11903094,8945.3125,3904,-2.39362354383814,-11296,-6.92581238503985,-11056,6.77866339668915,1221,102.378048780488,-1679,-74.4512195121951,-364,22.1951219512195,-41,0.178260869565217,-7,-0.0304347826086957,159,-0.775609756097561,
11903734,8964.84375,3824,-2.34457388105457,-10848,-6.65113427345187,-10464,6.41569589209074,1110,102.80487804878,-1686,-67.6829268292683,-412,25.1219512195122,-39,0.169565217391304,-9,-0.0391304347826087,159,-0.775609756097561,
11904374,8984.375,2976,-1.82464745554874,-9984,-6.12139791538933,-9984,6.12139791538933,990,101.524390243902,-1665,-60.3658536585366,-429,26.1585365853659,-35,0.152173913043478,-13,-0.0565217391304348,160,-0.780487804878049,
11905014,9003.90625,1904,-1.16738197424893,-8768,-5.37584304107909,-9344,5.72900061312078,736,98.1707317073171,-1610,-44.8780487804878,-459,27.9878048780488,-36,0.156521739130435,-10,-0.0434782608695652,161,-0.785365853658537,
11905654,9023.4375,1904,-1.16738197424893,-7680,-4.70876762722256,-9568,5.86633966891478,557,91.8292682926829,-1506,-33.9634146341463,-430,26.219512195122,-35,0.152173913043478,-14,-0.0608695652173913,161,-0.785365853658537,
11906294,9042.96875,1984,-1.2164316370325,-6944,-4.25751072961373,-9408,5.76824034334764,510,87.0121951219512,-1427,-31.0975609756098,-397,24.2073170731707,-32,0.139130434782609,-16,-0.0695652173913043,159,-0.775609756097561,
11906934,9062.5,1200,-0.735744941753525,-6240,-3.82587369711833,-8096,4.96382587369712,493,80.0609756097561,-1313,-30.0609756097561,-340,20.7317073170732,-34,0.147826086956522,-17,-0.0739130434782609,159,-0.775609756097561,
11907574,9082.03125,464,-0.284488044144696,-5008,-3.07050889025138,-7472,4.58123850398528,401,71.5853658536585,-1174,-24.4512195121951,-351,21.4024390243902,-33,0.143478260869565,-18,-0.0782608695652174,160,-0.780487804878049,
11908214,9101.5625,464,-0.284488044144696,-4032,-2.47210300429185,-7600,4.65971796443899,381,62.9878048780488,-1033,-23.2317073170732,-341,20.7926829268293,-30,0.130434782608696,-26,-0.11304347826087,161,-0.785365853658537,
11908854,9121.09375,784,-0.48068669527897,-3248,-1.99141630901288,-7904,4.84610668301655,543,53.2317073170732,-873,-33.109756097561,-314,19.1463414634146,-28,0.121739130434783,-24,-0.104347826086957,162,-0.790243902439024,
11909494,9140.625,768,-0.470876762722256,-2512,-1.54015941140405,-8448,5.17964438994482,762,41.1585365853659,-675,-46.4634146341463,-236,14.390243902439,-27,0.117391304347826,-23,-0.1,160,-0.780487804878049,
11910134,9160.15625,336,-0.206008583690987,-2080,-1.27529123237278,-9632,5.90557939914163,883,30.7317073170732,-504,-53.8414634146341,-145,8.84146341463415,-26,0.11304347826087,-26,-0.11304347826087,160,-0.780487804878049,
11910774,9179.6875,-176,0.10790925812385,-1936,-1.18700183936235,-10752,6.59227467811159,789,25.1219512195122,-412,-48.109756097561,-95,5.79268292682927,-26,0.11304347826087,-24,-0.104347826086957,156,-0.760975609756098,
11911414,9199.21875,-688,0.421827099938688,-1872,-1.1477621091355,-11360,6.96505211526671,520,21.5853658536585,-354,-31.7073170731707,-80,4.87804878048781,-23,0.1,-29,-0.126086956521739,158,-0.770731707317073,
11912054,9218.75,-608,0.37277743715512,-1680,-1.03004291845494,-11904,7.29858982219497,225,17.5,-287,-13.719512195122,-99,6.03658536585366,-22,0.0956521739130435,-31,-0.134782608695652,157,-0.765853658536585,
11912694,9238.28125,304,-0.18638871857756,-1472,-0.902513795217658,-12544,7.69098712446352,67,13.780487804878,-226,-4.08536585365854,-89,5.42682926829268,-23,0.1,-24,-0.104347826086957,157,-0.765853658536585,
11913334,9257.8125,1312,-0.804414469650521,-1312,-0.804414469650521,-13264,8.13243408951563,166,10.5487804878049,-173,-10.1219512195122,-54,3.29268292682927,-21,0.091304347826087,-26,-0.11304347826087,159,-0.775609756097561,
11913974,9277.34375,1408,-0.863274064990803,-1296,-0.794604537093807,-13920,8.53464132434089,307,6.82926829268293,-112,-18.719512195122,-32,1.95121951219512,-22,0.0956521739130435,-25,-0.108695652173913,156,-0.760975609756098,
11914614,9296.875,752,-0.461066830165543,-1296,-0.794604537093807,-14560,8.92703862660944,310,5.36585365853659,-88,-18.9024390243902,-52,3.17073170731707,-19,0.0826086956521739,-27,-0.117391304347826,155,-0.75609756097561,
11915254,9316.40625,272,-0.166768853464132,-1168,-0.716125076640098,-14896,9.13304721030043,148,5.79268292682927,-95,-9.02439024390244,-98,5.97560975609756,-19,0.0826086956521739,-32,-0.139130434782609,156,-0.760975609756098,
11915894,9335.9375,208,-0.127529123237278,-1312,-0.804414469650521,-14960,9.17228694052728,-34,6.21951219512195,-102,2.07317073170732,-110,6.70731707317073,-20,0.0869565217391304,-29,-0.126086956521739,156,-0.760975609756098,
11916534,9355.46875,352,-0.215818516247701,-1168,-0.716125076640098,-15184,9.30962599632127,-114,6.09756097560976,-100,6.95121951219512,-89,5.42682926829268,-22,0.0956521739130435,-26,-0.11304347826087,155,-0.75609756097561,
11917174,9375,704,-0.431637032495402,-928,-0.568976088289393,-15744,9.65297363580625,-103,3.96341463414634,-65,6.28048780487805,-60,3.65853658536585,-20,0.0869565217391304,-30,-0.130434782608696,156,-0.760975609756098,
11917814,9394.53125,1024,-0.627835683629675,-832,-0.510116492949111,-16160,9.90803188228081,-8,3.17073170731707,-52,0.487804878048781,-49,2.98780487804878,-20,0.0869565217391304,-29,-0.126086956521739,157,-0.765853658536585,
11918454,9414.0625,896,-0.549356223175966,-816,-0.500306560392397,-16352,10.0257510729614,125,3.04878048780488,-50,-7.6219512195122,-52,3.17073170731707,-19,0.0826086956521739,-27,-0.117391304347826,155,-0.75609756097561,
11919094,9433.59375,656,-0.402207234825261,-880,-0.539546290619252,-16528,10.1336603310852,179,3.65853658536585,-60,-10.9146341463415,-48,2.92682926829268,-21,0.091304347826087,-23,-0.1,155,-0.75609756097561,
11919734,9453.125,560,-0.343347639484979,-1168,-0.716125076640098,-16512,10.1238503985285,155,3.90243902439024,-64,-9.45121951219512,-20,1.21951219512195,-21,0.091304347826087,-27,-0.117391304347826,154,-0.751219512195122,
11920374,9472.65625,416,-0.255058246474555,-1232,-0.755364806866953,-16784,10.2906192519926,91,4.63414634146342,-76,-5.54878048780488,-10,0.609756097560976,-20,0.0869565217391304,-30,-0.130434782608696,153,-0.746341463414634,
11921014,9492.1875,528,-0.323727774371551,-976,-0.598405885959534,-17056,10.4573881054568,7,5.30487804878049,-87,-0.426829268292683,-9,0.548780487804878,-19,0.0826086956521739,-26,-0.11304347826087,154,-0.751219512195122,
11921654,9511.71875,848,-0.519926425505825,-880,-0.539546290619252,-16960,10.3985285101165,-10,5.73170731707317,-94,0.609756097560976,-4,0.24390243902439,-19,0.0826086956521739,-26,-0.11304347826087,155,-0.75609756097561,
11922294,9531.25,928,-0.568976088289393,-1056,-0.647455548743102,-16608,10.1827099938688,74,6.03658536585366,-99,-4.51219512195122,-1,0.0609756097560976,-21,0.091304347826087,-26,-0.11304347826087,154,-0.751219512195122,
11922934,9550.78125,608,-0.37277743715512,-1008,-0.618025751072961,-16448,10.0846106683017,137,7.31707317073171,-120,-8.35365853658537,-8,0.487804878048781,-19,0.0826086956521739,-24,-0.104347826086957,155,-0.75609756097561,
11923574,9570.3125,304,-0.18638871857756,-960,-0.58859595340282,-16288,9.98651134273452,86,8.41463414634146,-138,-5.24390243902439,-28,1.70731707317073,-21,0.091304347826087,-27,-0.117391304347826,153,-0.746341463414634,
11924214,9589.84375,320,-0.196198651134273,-1040,-0.637645616186389,-16032,9.8295524218271,36,9.63414634146342,-158,-2.19512195121951,-42,2.5609756097561,-19,0.0826086956521739,-26,-0.11304347826087,155,-0.75609756097561,
11924854,9609.375,544,-0.333537706928265,-944,-0.578786020846107,-15920,9.7608828939301,39,8.53658536585366,-140,-2.37804878048781,-31,1.89024390243902,-22,0.0956521739130435,-29,-0.126086956521739,154,-0.751219512195122,
11925494,9628.90625,512,-0.313917841814838,-992,-0.608215818516248,-15840,9.71183323114654,62,6.76829268292683,-111,-3.78048780487805,0,0,-20,0.0869565217391304,-27,-0.117391304347826,153,-0.746341463414634,
11926134,9648.4375,496,-0.304107909258124,-1008,-0.618025751072961,-15664,9.60392397302268,29,5.1219512195122,-84,-1.76829268292683,14,-0.853658536585366,-18,0.0782608695652174,-25,-0.108695652173913,152,-0.741463414634146,
11926774,9667.96875,640,-0.392397302268547,-1056,-0.647455548743102,-15568,9.5450643776824,-37,4.26829268292683,-70,2.25609756097561,28,-1.70731707317073,-19,0.0826086956521739,-29,-0.126086956521739,155,-0.75609756097561,
11927414,9687.5,896,-0.549356223175966,-848,-0.519926425505825,-15616,9.57449417535254,-65,3.71951219512195,-61,3.96341463414634,5,-0.304878048780488,-19,0.0826086956521739,-26,-0.11304347826087,153,-0.746341463414634,
11928054,9707.03125,1248,-0.765174739423666,-880,-0.539546290619252,-15808,9.69221336603311,-21,3.29268292682927,-54,1.28048780487805,-7,0.426829268292683,-21,0.091304347826087,-27,-0.117391304347826,153,-0.746341463414634,
11928694,9726.5625,1184,-0.725935009196812,-864,-0.529736358062538,-15952,9.78050275904353,77,3.59756097560976,-59,-4.69512195121951,-43,2.6219512195122,-21,0.091304347826087,-28,-0.121739130434783,155,-0.75609756097561,
11929334,9746.09375,880,-0.539546290619252,-816,-0.500306560392397,-16128,9.88841201716738,117,3.59756097560976,-59,-7.13414634146342,-58,3.53658536585366,-18,0.0782608695652174,-32,-0.139130434782609,156,-0.760975609756098,
11929974,9765.625,544,-0.333537706928265,-816,-0.500306560392397,-16176,9.91784181483752,81,3.53658536585366,-58,-4.9390243902439,-59,3.59756097560976,-16,0.0695652173913043,-31,-0.134782608695652,155,-0.75609756097561,
11930614,9785.15625,400,-0.245248313917842,-768,-0.470876762722256,-16160,9.90803188228081,36,3.59756097560976,-59,-2.19512195121951,-49,2.98780487804878,-20,0.0869565217391304,-26,-0.11304347826087,154,-0.751219512195122,
11931254,9804.6875,384,-0.235438381361128,-816,-0.500306560392397,-16288,9.98651134273452,-13,3.29268292682927,-54,0.792682926829268,-33,2.01219512195122,-19,0.0826086956521739,-27,-0.117391304347826,153,-0.746341463414634,
11931894,9824.21875,416,-0.255058246474555,-768,-0.470876762722256,-16336,10.0159411404047,-34,3.23170731707317,-53,2.07317073170732,-27,1.64634146341463,-19,0.0826086956521739,-25,-0.108695652173913,155,-0.75609756097561,
11932534,9843.75,656,-0.402207234825261,-832,-0.510116492949111,-16336,10.0159411404047,-36,2.68292682926829,-44,2.19512195121951,-14,0.853658536585366,-18,0.0782608695652174,-22,-0.0956521739130435,153,-0.746341463414634,
11933174,9863.28125,544,-0.333537706928265,-864,-0.529736358062538,-16320,10.0061312078479,-8,3.47560975609756,-57,0.487804878048781,-10,0.609756097560976,-19,0.0826086956521739,-25,-0.108695652173913,153,-0.746341463414634,
11933814,9882.8125,576,-0.353157572041692,-912,-0.559166155732679,-16336,10.0159411404047,-14,3.35365853658537,-55,0.853658536585366,-6,0.365853658536585,-20,0.0869565217391304,-28,-0.121739130434783,154,-0.751219512195122,
11934454,9902.34375,576,-0.353157572041692,-960,-0.58859595340282,-16240,9.95708154506438,-12,4.08536585365854,-67,0.731707317073171,-24,1.46341463414634,-18,0.0782608695652174,-30,-0.130434782608696,154,-0.751219512195122,
11935094,9921.875,640,-0.392397302268547,-944,-0.578786020846107,-16176,9.91784181483752,1,4.69512195121951,-77,-0.0609756097560976,-41,2.5,-18,0.0782608695652174,-27,-0.117391304347826,155,-0.75609756097561,
11935734,9941.40625,496,-0.304107909258124,-976,-0.598405885959534,-16176,9.91784181483752,12,5.24390243902439,-86,-0.731707317073171,-42,2.5609756097561,-17,0.0739130434782609,-31,-0.134782608695652,155,-0.75609756097561,
11936374,9960.9375,544,-0.333537706928265,-880,-0.539546290619252,-16080,9.85898221949724,-16,4.75609756097561,-78,0.975609756097561,-38,2.31707317073171,-18,0.0782608695652174,-26,-0.11304347826087,154,-0.751219512195122,
11937014,9980.46875,736,-0.451256897608829,-848,-0.519926425505825,-16048,9.83936235438381,-5,3.71951219512195,-61,0.304878048780488,-29,1.76829268292683,-17,0.0739130434782609,-27,-0.117391304347826,154,-0.751219512195122,
11937654,10000,816,-0.500306560392397,-736,-0.451256897608829,-16080,9.85898221949724,28,2.5,-41,-1.70731707317073,-24,1.46341463414634,-18,0.0782608695652174,-30,-0.130434782608696,155,-0.75609756097561,
11938294,10019.53125,768,-0.470876762722256,-720,-0.441446965052115,-16192,9.92765174739424,87,2.4390243902439,-40,-5.30487804878049,-25,1.52439024390244,-18,0.0782608695652174,-32,-0.139130434782609,155,-0.75609756097561,
11938934,10039.0625,560,-0.343347639484979,-768,-0.470876762722256,-16208,9.93746167995095,83,2.80487804878049,-46,-5.0609756097561,-24,1.46341463414634,-20,0.0869565217391304,-30,-0.130434782608696,155,-0.75609756097561,
11939574,10058.59375,336,-0.206008583690987,-848,-0.519926425505825,-16304,9.99632127529123,48,3.84146341463415,-63,-2.92682926829268,-28,1.70731707317073,-18,0.0782608695652174,-30,-0.130434782608696,154,-0.751219512195122,
11940214,10078.125,288,-0.176578786020846,-976,-0.598405885959534,-16320,10.0061312078479,-41,5,-82,2.5,-36,2.19512195121951,-18,0.0782608695652174,-30,-0.130434782608696,152,-0.741463414634146,
11940854,10097.65625,448,-0.274678111587983,-960,-0.58859595340282,-16304,9.99632127529123,-134,5.79268292682927,-95,8.17073170731707,-56,3.41463414634146,-18,0.0782608695652174,-29,-0.126086956521739,154,-0.751219512195122,
11941494,10117.1875,848,-0.519926425505825,-912,-0.559166155732679,-16256,9.96689147762109,-98,5.1219512195122,-84,5.97560975609756,-59,3.59756097560976,-18,0.0782608695652174,-27,-0.117391304347826,153,-0.746341463414634,
11942134,10136.71875,1072,-0.657265481299816,-928,-0.568976088289393,-16096,9.86879215205395,24,4.02439024390244,-66,-1.46341463414634,-46,2.80487804878049,-17,0.0739130434782609,-32,-0.139130434782609,154,-0.751219512195122,
11942774,10156.25,752,-0.461066830165543,-880,-0.539546290619252,-16032,9.8295524218271,93,3.23170731707317,-53,-5.67073170731707,-31,1.89024390243902,-19,0.0826086956521739,-27,-0.117391304347826,155,-0.75609756097561,
11943414,10175.78125,400,-0.245248313917842,-896,-0.549356223175966,-16000,9.80993255671367,72,3.23170731707317,-53,-4.39024390243902,-32,1.95121951219512,-17,0.0739130434782609,-27,-0.117391304347826,153,-0.746341463414634,
11944054,10195.3125,320,-0.196198651134273,-800,-0.490496627835684,-16032,9.8295524218271,13,3.10975609756098,-51,-0.792682926829268,-35,2.13414634146341,-17,0.0739130434782609,-29,-0.126086956521739,154,-0.751219512195122,
11944694,10214.84375,448,-0.274678111587983,-768,-0.470876762722256,-16064,9.84917228694053,-5,3.04878048780488,-50,0.304878048780488,-37,2.25609756097561,-20,0.0869565217391304,-29,-0.126086956521739,155,-0.75609756097561,
11945334,10234.375,448,-0.274678111587983,-800,-0.490496627835684,-16080,9.85898221949724,7,2.74390243902439,-45,-0.426829268292683,-35,2.13414634146341,-20,0.0869565217391304,-26,-0.11304347826087,153,-0.746341463414634,
11945974,10253.90625,400,-0.245248313917842,-752,-0.461066830165543,-16176,9.91784181483752,36,2.68292682926829,-44,-2.19512195121951,-30,1.82926829268293,-17,0.0739130434782609,-30,-0.130434782608696,154,-0.751219512195122,
11946614,10273.4375,400,-0.245248313917842,-768,-0.470876762722256,-16128,9.88841201716738,49,2.6219512195122,-43,-2.98780487804878,-28,1.70731707317073,-17,0.0739130434782609,-29,-0.126086956521739,153,-0.746341463414634,
11947254,10292.96875,336,-0.206008583690987,-848,-0.519926425505825,-16176,9.91784181483752,32,2.68292682926829,-44,-1.95121951219512,-25,1.52439024390244,-18,0.0782608695652174,-26,-0.11304347826087,154,-0.751219512195122,
11947894,10312.5,336,-0.206008583690987,-864,-0.529736358062538,-16224,9.94727161250766,11,2.80487804878049,-46,-0.670731707317073,-20,1.21951219512195,-18,0.0782608695652174,-28,-0.121739130434783,154,-0.751219512195122,
11948534,10332.03125,416,-0.255058246474555,-928,-0.568976088289393,-16208,9.93746167995095,-12,2.68292682926829,-44,0.731707317073171,-16,0.975609756097561,-18,0.0782608695652174,-27,-0.117391304347826,152,-0.741463414634146,
11949174,10351.5625,464,-0.284488044144696,-800,-0.490496627835684,-16304,9.99632127529123,-9,2.74390243902439,-45,0.548780487804878,-13,0.792682926829268,-17,0.0739130434782609,-30,-0.130434782608696,155,-0.75609756097561,
11949814,10371.09375,512,-0.313917841814838,-768,-0.470876762722256,-16304,9.99632127529123,-8,2.5,-41,0.487804878048781,-12,0.731707317073171,-18,0.0782608695652174,-30,-0.130434782608696,154,-0.751219512195122,
11950454,10390.625,528,-0.323727774371551,-784,-0.48068669527897,-16304,9.99632127529123,-20,2.86585365853659,-47,1.21951219512195,-17,1.03658536585366,-19,0.0826086956521739,-26,-0.11304347826087,153,-0.746341463414634,
11951094,10410.15625,496,-0.304107909258124,-800,-0.490496627835684,-16336,10.0159411404047,-33,3.71951219512195,-61,2.01219512195122,-27,1.64634146341463,-18,0.0782608695652174,-27,-0.117391304347826,153,-0.746341463414634,
11951734,10429.6875,704,-0.431637032495402,-784,-0.48068669527897,-16448,10.0846106683017,-12,3.96341463414634,-65,0.731707317073171,-41,2.5,-18,0.0782608695652174,-27,-0.117391304347826,155,-0.75609756097561,
11952374,10449.21875,8592,-5.26793378295524,-3680,-2.25628448804414,-24560,15.0582464745555,-6799,-206.524390243902,3387,414.573170731707,1352,-82.4390243902439,-21,0.091304347826087,-24,-0.104347826086957,156,-0.760975609756098,
11953014,10468.75,4720,-2.89393010423053,4368,2.67811158798283,-14880,9.12323727774372,695,-57.0731707317073,936,-42.3780487804878,-564,34.390243902439,-18,0.0782608695652174,-23,-0.1,154,-0.751219512195122,
11953654,10488.28125,-4896,3.00183936235438,-992,-0.608215818516248,-16752,10.2709993868792,873,3.84146341463415,-63,-53.2317073170732,555,-33.8414634146341,-18,0.0782608695652174,-24,-0.104347826086957,154,-0.751219512195122,
11954294,10507.8125,-3888,2.38381361128142,-3568,-2.18761496014715,-17744,10.8792152053955,-816,28.7804878048781,-472,49.7560975609756,-247,15.0609756097561,-19,0.0826086956521739,-26,-0.11304347826087,155,-0.75609756097561,
11954934,10527.34375,1024,-0.627835683629675,-1408,-0.863274064990803,-17008,10.4279583077866,-1083,37.2560975609756,-611,66.0365853658537,-264,16.0975609756098,-20,0.0869565217391304,-28,-0.121739130434783,156,-0.760975609756098,
11955574,10546.875,4000,-2.45248313917842,-320,-0.196198651134273,-15936,9.77069282648682,-43,20,-328,2.6219512195122,-275,16.7682926829268,-20,0.0869565217391304,-30,-0.130434782608696,156,-0.760975609756098,
