Shimmer,Shimmer,Shimmer,Shimmer,Shimmer,Shimmer,Shimmer,Shimmer,Shimmer,Shimmer,Shimmer,Shimmer,Shimmer,Shimmer,Shimmer,Shimmer,Shimmer,Shimmer,Shimmer,Shimmer,
Timestamp,Timestamp,Wide Range Accelerometer X,Wide Range Accelerometer X,Wide Range Accelerometer Y,Wide Range Accelerometer Y,Wide Range Accelerometer Z,Wide Range Accelerometer Z,Gyroscope X,Gyroscope X,Gyroscope Y,Gyroscope Y,Gyroscope Z,Gyroscope Z,Magnetometer X,Magnetometer X,Magnetometer Y,Magnetometer Y,Magnetometer Z,Magnetometer Z,
RAW,CAL,RAW,CAL,RAW,CAL,RAW,CAL,RAW,CAL,RAW,CAL,RAW,CAL,RAW,CAL,RAW,CAL,RAW,CAL,
no units,mSecs,no units,m/(sec^2),no units,m/(sec^2),no units,m/(sec^2),no units,deg/sec,no units,deg/sec,no units,deg/sec,no units,local,no units,local,no units,local,
15022454,0,6416,-3.93378295524218,-14096,-8.64255058246474,-5296,3.24708767627223,6,3.04878048780488,-50,-0.365853658536585,-1,0.0609756097560976,-62,0.269565217391304,46,0.2,123,-0.6,
15023094,19.53125,6384,-3.91416309012876,-14016,-8.59350091968118,-5344,3.27651747394237,14,3.10975609756098,-51,-0.853658536585366,-1,0.0609756097560976,-62,0.269565217391304,41,0.178260869565217,121,-0.590243902439024,
15023734,39.0625,6368,-3.90435315757204,-13984,-8.57388105456775,-5248,3.21765787860208,7,3.47560975609756,-57,-0.426829268292683,-7,0.426829268292683,-64,0.278260869565217,44,0.191304347826087,123,-0.6,
15024374,58.59375,6368,-3.90435315757204,-14016,-8.59350091968118,-5248,3.21765787860208,-3,3.78048780487805,-62,0.182926829268293,-11,0.670731707317073,-63,0.273913043478261,44,0.191304347826087,122,-0.595121951219512,
15025014,78.125,6352,-3.89454322501533,-14000,-8.58369098712446,-5280,3.23727774371551,-13,4.32926829268293,-71,0.792682926829268,-14,0.853658536585366,-62,0.269565217391304,41,0.178260869565217,123,-0.6,
15025654,97.65625,6368,-3.90435315757204,-13984,-8.57388105456775,-5264,3.2274678111588,-14,4.45121951219512,-73,0.853658536585366,-15,0.914634146341463,-64,0.278260869565217,47,0.204347826086957,122,-0.595121951219512,
15026294,117.1875,6416,-3.93378295524218,-14000,-8.58369098712446,-5264,3.2274678111588,-10,4.81707317073171,-79,0.609756097560976,-20,1.21951219512195,-62,0.269565217391304,44,0.191304347826087,121,-0.590243902439024,
15026934,136.71875,6400,-3.92397302268547,-13968,-8.56407112201104,-5328,3.26670754138565,-1,4.81707317073171,-79,0.0609756097560976,-21,1.28048780487805,-64,0.278260869565217,44,0.191304347826087,121,-0.590243902439024,
15027574,156.25,6368,-3.90435315757204,-14064,-8.62293071735132,-5280,3.23727774371551,-3,5.18292682926829,-85,0.182926829268293,-24,1.46341463414634,-61,0.265217391304348,40,0.173913043478261,122,-0.595121951219512,
15028214,175.78125,6336,-3.88473329245861,-14080,-8.63274064990803,-5216,3.19803801348866,-6,5.1219512195122,-84,0.365853658536585,-30,1.82926829268293,-63,0.273913043478261,41,0.178260869565217,121,-0.590243902439024,
15028854,195.3125,6304,-3.86511342734519,-14000,-8.58369098712446,-5152,3.1587982832618,-14,5.36585365853659,-88,0.853658536585366,-27,1.64634146341463,-62,0.269565217391304,44,0.191304347826087,121,-0.590243902439024,
15029494,214.84375,6272,-3.84549356223176,-13904,-8.52483139178418,-5152,3.1587982832618,-7,4.81707317073171,-79,0.426829268292683,-22,1.34146341463415,-63,0.273913043478261,45,0.195652173913043,122,-0.595121951219512,
15030134,234.375,6208,-3.8062538320049,-13936,-8.54445125689761,-5072,3.10974862047823,0,4.57317073170732,-75,0,-19,1.15853658536585,-65,0.282608695652174,41,0.178260869565217,123,-0.6,
15030774,253.90625,6160,-3.77682403433476,-13920,-8.53464132434089,-5040,3.09012875536481,-5,4.39024390243902,-72,0.304878048780488,-14,0.853658536585366,-65,0.282608695652174,46,0.2,121,-0.590243902439024,
15031414,273.4375,6208,-3.8062538320049,-14032,-8.60331085223789,-5168,3.16860821581852,-11,4.75609756097561,-78,0.670731707317073,-9,0.548780487804878,-64,0.278260869565217,44,0.191304347826087,122,-0.595121951219512,
15032054,292.96875,6256,-3.83568362967505,-14016,-8.59350091968118,-5296,3.24708767627223,-22,5.0609756097561,-83,1.34146341463415,-4,0.24390243902439,-63,0.273913043478261,46,0.2,122,-0.595121951219512,
15032694,312.5,6208,-3.8062538320049,-14064,-8.62293071735132,-5296,3.24708767627223,-36,5.42682926829268,-89,2.19512195121951,-1,0.0609756097560976,-65,0.282608695652174,45,0.195652173913043,122,-0.595121951219512,
15033334,332.03125,6144,-3.76701410177805,-13952,-8.55426118945432,-5440,3.33537706928265,-53,5.48780487804878,-90,3.23170731707317,0,0,-64,0.278260869565217,45,0.195652173913043,123,-0.6,
15033974,351.5625,6224,-3.81606376456162,-13936,-8.54445125689761,-5424,3.32556713672594,-57,5.97560975609756,-98,3.47560975609756,0,0,-63,0.273913043478261,41,0.178260869565217,123,-0.6,
15034614,371.09375,6320,-3.8749233599019,-13872,-8.50521152667075,-5328,3.26670754138565,-37,5.73170731707317,-94,2.25609756097561,6,-0.365853658536585,-64,0.278260869565217,48,0.208695652173913,121,-0.590243902439024,
15035254,390.625,6368,-3.90435315757204,-13984,-8.57388105456775,-5264,3.2274678111588,-24,5.91463414634146,-97,1.46341463414634,6,-0.365853658536585,-63,0.273913043478261,43,0.18695652173913,122,-0.595121951219512,
15035894,410.15625,6336,-3.88473329245861,-13904,-8.52483139178418,-5312,3.25689760882894,-44,6.09756097560976,-100,2.68292682926829,4,-0.24390243902439,-63,0.273913043478261,43,0.18695652173913,122,-0.595121951219512,
15036534,429.6875,6432,-3.9435928877989,-13952,-8.55426118945432,-5296,3.24708767627223,-51,5.91463414634146,-97,3.10975609756098,4,-0.24390243902439,-64,0.278260869565217,45,0.195652173913043,124,-0.604878048780488,
15037174,449.21875,6528,-4.00245248313918,-13968,-8.56407112201104,-5312,3.25689760882894,-30,5.60975609756098,-92,1.82926829268293,5,-0.304878048780488,-63,0.273913043478261,47,0.204347826086957,121,-0.590243902439024,
15037814,468.75,6416,-3.93378295524218,-13824,-8.47578172900061,-5328,3.26670754138565,-4,5.24390243902439,-86,0.24390243902439,6,-0.365853658536585,-62,0.269565217391304,44,0.191304347826087,123,-0.6,
15038454,488.28125,6304,-3.86511342734519,-13824,-8.47578172900061,-5328,3.26670754138565,-13,5.67073170731707,-93,0.792682926829268,-4,0.24390243902439,-63,0.273913043478261,44,0.191304347826087,123,-0.6,
15039094,507.8125,6320,-3.8749233599019,-13920,-8.53464132434089,-5312,3.25689760882894,-25,5.73170731707317,-94,1.52439024390244,-10,0.609756097560976,-65,0.282608695652174,41,0.178260869565217,125,-0.609756097560976,
15039734,527.34375,6304,-3.86511342734519,-13936,-8.54445125689761,-5344,3.27651747394237,-30,6.34146341463415,-104,1.82926829268293,-9,0.548780487804878,-65,0.282608695652174,41,0.178260869565217,124,-0.604878048780488,
15040374,546.875,6256,-3.83568362967505,-13984,-8.57388105456775,-5504,3.3746167995095,-41,6.52439024390244,-107,2.5,-12,0.731707317073171,-62,0.269565217391304,42,0.182608695652174,124,-0.604878048780488,
15041014,566.40625,6304,-3.86511342734519,-14016,-8.59350091968118,-5536,3.39423666462293,-52,6.95121951219512,-114,3.17073170731707,-11,0.670731707317073,-65,0.282608695652174,42,0.182608695652174,124,-0.604878048780488,
15041654,585.9375,6288,-3.85530349478847,-13968,-8.56407112201104,-5584,3.42366646229307,-53,7.25609756097561,-119,3.23170731707317,-13,0.792682926829268,-65,0.282608695652174,45,0.195652173913043,123,-0.6,
15042294,605.46875,6240,-3.82587369711833,-13904,-8.52483139178418,-5520,3.38442673206622,-54,7.5609756097561,-124,3.29268292682927,-10,0.609756097560976,-65,0.282608695652174,44,0.191304347826087,125,-0.609756097560976,
15042934,625,6224,-3.81606376456162,-13872,-8.50521152667075,-5520,3.38442673206622,-53,7.98780487804878,-131,3.23170731707317,-10,0.609756097560976,-65,0.282608695652174,45,0.195652173913043,122,-0.595121951219512,
15043574,644.53125,6272,-3.84549356223176,-13904,-8.52483139178418,-5440,3.33537706928265,-64,7.86585365853659,-129,3.90243902439024,-6,0.365853658536585,-63,0.273913043478261,39,0.169565217391304,125,-0.609756097560976,
15044214,664.0625,6192,-3.79644389944819,-13840,-8.48559166155733,-5456,3.34518700183936,-74,7.92682926829268,-130,4.51219512195122,-3,0.182926829268293,-64,0.278260869565217,43,0.18695652173913,124,-0.604878048780488,
15044854,683.59375,6288,-3.85530349478847,-13840,-8.48559166155733,-5440,3.33537706928265,-76,7.86585365853659,-129,4.63414634146342,-1,0.0609756097560976,-64,0.278260869565217,46,0.2,124,-0.604878048780488,
15045494,703.125,6336,-3.88473329245861,-13840,-8.48559166155733,-5536,3.39423666462293,-73,8.29268292682927,-136,4.45121951219512,-1,0.0609756097560976,-64,0.278260869565217,40,0.173913043478261,125,-0.609756097560976,
15046134,722.65625,6256,-3.83568362967505,-13856,-8.49540159411404,-5520,3.38442673206622,-81,8.29268292682927,-136,4.9390243902439,0,0,-65,0.282608695652174,46,0.2,125,-0.609756097560976,
15046774,742.1875,6336,-3.88473329245861,-13824,-8.47578172900061,-5520,3.38442673206622,-92,8.53658536585366,-140,5.60975609756098,-1,0.0609756097560976,-63,0.273913043478261,43,0.18695652173913,124,-0.604878048780488,
15047414,761.71875,6368,-3.90435315757204,-13792,-8.45616186388719,-5488,3.36480686695279,-94,8.53658536585366,-140,5.73170731707317,-1,0.0609756097560976,-64,0.278260869565217,44,0.191304347826087,125,-0.609756097560976,
15048054,781.25,6368,-3.90435315757204,-13808,-8.4659717964439,-5600,3.43347639484979,-84,8.17073170731707,-134,5.1219512195122,2,-0.121951219512195,-63,0.273913043478261,41,0.178260869565217,126,-0.614634146341463,
15048694,800.78125,6416,-3.93378295524218,-13760,-8.43654199877376,-5600,3.43347639484979,-80,8.35365853658537,-137,4.87804878048781,7,-0.426829268292683,-65,0.282608695652174,41,0.178260869565217,127,-0.619512195121951,
15049334,820.3125,6432,-3.9435928877989,-13776,-8.44635193133047,-5600,3.43347639484979,-78,8.35365853658537,-137,4.75609756097561,5,-0.304878048780488,-64,0.278260869565217,42,0.182608695652174,126,-0.614634146341463,
15049974,839.84375,6448,-3.95340282035561,-13808,-8.4659717964439,-5632,3.45309625996321,-78,8.29268292682927,-136,4.75609756097561,-2,0.121951219512195,-64,0.278260869565217,43,0.18695652173913,125,-0.609756097560976,
15050614,859.375,6448,-3.95340282035561,-13760,-8.43654199877376,-5648,3.46290619251993,-78,8.59756097560976,-141,4.75609756097561,-8,0.487804878048781,-66,0.28695652173913,43,0.18695652173913,126,-0.614634146341463,
15051254,878.90625,6656,-4.08093194359289,-13680,-8.38749233599019,-5696,3.49233599019007,-78,8.90243902439025,-146,4.75609756097561,-10,0.609756097560976,-66,0.28695652173913,42,0.182608695652174,125,-0.609756097560976,
15051894,898.4375,6576,-4.03188228080932,-13648,-8.36787247087676,-5712,3.50214592274678,-72,8.96341463414634,-147,4.39024390243902,-15,0.914634146341463,-64,0.278260869565217,39,0.169565217391304,127,-0.619512195121951,
15052534,917.96875,6656,-4.08093194359289,-13664,-8.37768240343348,-5744,3.52176578786021,-61,8.71951219512195,-143,3.71951219512195,-17,1.03658536585366,-68,0.295652173913043,45,0.195652173913043,125,-0.609756097560976,
15053174,937.5,6656,-4.08093194359289,-13680,-8.38749233599019,-5760,3.53157572041692,-45,9.14634146341463,-150,2.74390243902439,-20,1.21951219512195,-65,0.282608695652174,45,0.195652173913043,127,-0.619512195121951,
15053814,957.03125,6704,-4.11036174126303,-13696,-8.3973022685469,-5760,3.53157572041692,-31,9.14634146341463,-150,1.89024390243902,-22,1.34146341463415,-67,0.291304347826087,44,0.191304347826087,127,-0.619512195121951,
15054454,976.5625,6704,-4.11036174126303,-13760,-8.43654199877376,-5792,3.55119558553035,-21,9.20731707317073,-151,1.28048780487805,-30,1.82926829268293,-64,0.278260869565217,38,0.165217391304348,128,-0.624390243902439,
15055094,996.09375,6704,-4.11036174126303,-13680,-8.38749233599019,-5824,3.57081545064378,-16,9.32926829268293,-153,0.975609756097561,-36,2.19512195121951,-65,0.282608695652174,38,0.165217391304348,129,-0.629268292682927,
15055734,1015.625,6688,-4.10055180870631,-13600,-8.33844267320662,-5904,3.61986511342735,-7,9.14634146341463,-150,0.426829268292683,-40,2.4390243902439,-66,0.28695652173913,41,0.178260869565217,128,-0.624390243902439,
15056374,1035.15625,6640,-4.07112201103617,-13600,-8.33844267320662,-5952,3.64929491109749,27,9.02439024390244,-148,-1.64634146341463,-47,2.86585365853659,-65,0.282608695652174,40,0.173913043478261,127,-0.619512195121951,
15057014,1054.6875,6592,-4.04169221336603,-13680,-8.38749233599019,-5824,3.57081545064378,54,8.84146341463415,-145,-3.29268292682927,-46,2.80487804878049,-65,0.282608695652174,38,0.165217391304348,129,-0.629268292682927,
15057654,1074.21875,6512,-3.99264255058246,-13632,-8.35806253832005,-5632,3.45309625996321,44,9.08536585365854,-149,-2.68292682926829,-45,2.74390243902439,-66,0.28695652173913,38,0.165217391304348,129,-0.629268292682927,
15058294,1093.75,6464,-3.96321275291232,-13648,-8.36787247087676,-5648,3.46290619251993,30,8.59756097560976,-141,-1.82926829268293,-43,2.6219512195122,-67,0.291304347826087,43,0.18695652173913,128,-0.624390243902439,
15058934,1113.28125,6608,-4.05150214592275,-13632,-8.35806253832005,-5760,3.53157572041692,40,7.74390243902439,-127,-2.4390243902439,-32,1.95121951219512,-66,0.28695652173913,42,0.182608695652174,127,-0.619512195121951,
15059574,1132.8125,6640,-4.07112201103617,-13600,-8.33844267320662,-5808,3.56100551808706,80,7.07317073170732,-116,-4.87804878048781,-22,1.34146341463415,-67,0.291304347826087,40,0.173913043478261,130,-0.634146341463415,
15060214,1152.34375,6592,-4.04169221336603,-13664,-8.37768240343348,-5680,3.48252605763335,100,6.40243902439024,-105,-6.09756097560976,-24,1.46341463414634,-64,0.278260869565217,41,0.178260869565217,129,-0.629268292682927,
15060854,1171.875,6336,-3.88473329245861,-13680,-8.38749233599019,-5648,3.46290619251993,98,6.82926829268293,-112,-5.97560975609756,-33,2.01219512195122,-64,0.278260869565217,40,0.173913043478261,128,-0.624390243902439,
15061494,1191.40625,6208,-3.8062538320049,-13552,-8.30901287553648,-5664,3.47271612507664,56,6.70731707317073,-110,-3.41463414634146,-42,2.5609756097561,-66,0.28695652173913,38,0.165217391304348,129,-0.629268292682927,
15062134,1210.9375,6336,-3.88473329245861,-13520,-8.28939301042305,-5648,3.46290619251993,5,6.76829268292683,-111,-0.304878048780488,-48,2.92682926829268,-66,0.28695652173913,38,0.165217391304348,130,-0.634146341463415,
15062774,1230.46875,6432,-3.9435928877989,-13360,-8.19129368485592,-5648,3.46290619251993,-8,5.91463414634146,-97,0.487804878048781,-37,2.25609756097561,-64,0.278260869565217,37,0.160869565217391,129,-0.629268292682927,
15063414,1250,6560,-4.02207234825261,-13392,-8.21091354996934,-5616,3.4432863274065,9,4.45121951219512,-73,-0.548780487804878,-21,1.28048780487805,-68,0.295652173913043,47,0.204347826086957,127,-0.619512195121951,
15064054,1269.53125,6608,-4.05150214592275,-13424,-8.23053341508277,-5760,3.53157572041692,40,2.92682926829268,-48,-2.4390243902439,0,0,-68,0.295652173913043,41,0.178260869565217,130,-0.634146341463415,
15064694,1289.0625,6592,-4.04169221336603,-13568,-8.31882280809319,-5824,3.57081545064378,73,1.52439024390244,-25,-4.45121951219512,15,-0.914634146341463,-66,0.28695652173913,41,0.178260869565217,129,-0.629268292682927,
15065334,1308.59375,6592,-4.04169221336603,-13600,-8.33844267320662,-5904,3.61986511342735,92,0.975609756097561,-16,-5.60975609756098,20,-1.21951219512195,-63,0.273913043478261,38,0.165217391304348,130,-0.634146341463415,
15065974,1328.125,6640,-4.07112201103617,-13600,-8.33844267320662,-5872,3.60024524831392,94,0.670731707317073,-11,-5.73170731707317,13,-0.792682926829268,-65,0.282608695652174,37,0.160869565217391,129,-0.629268292682927,
15066614,1347.65625,6656,-4.08093194359289,-13648,-8.36787247087676,-5808,3.56100551808706,92,0.304878048780488,-5,-5.60975609756098,8,-0.487804878048781,-67,0.291304347826087,41,0.178260869565217,128,-0.624390243902439,
15067254,1367.1875,6656,-4.08093194359289,-13568,-8.31882280809319,-5696,3.49233599019007,84,-0.487804878048781,8,-5.1219512195122,2,-0.121951219512195,-64,0.278260869565217,40,0.173913043478261,127,-0.619512195121951,
15067894,1386.71875,6688,-4.10055180870631,-13488,-8.26977314530963,-5648,3.46290619251993,77,-0.914634146341463,15,-4.69512195121951,3,-0.182926829268293,-64,0.278260869565217,37,0.160869565217391,129,-0.629268292682927,
15068534,1406.25,6736,-4.12998160637646,-13440,-8.24034334763948,-5632,3.45309625996321,79,-1.76829268292683,29,-4.81707317073171,-1,0.0609756097560976,-63,0.273913043478261,38,0.165217391304348,130,-0.634146341463415,
15069174,1425.78125,6832,-4.18884120171674,-13344,-8.1814837522992,-5440,3.33537706928265,80,-2.86585365853659,47,-4.87804878048781,-5,0.304878048780488,-64,0.278260869565217,41,0.178260869565217,127,-0.619512195121951,
15069814,1445.3125,6864,-4.20846106683017,-13376,-8.20110361741263,-5392,3.30594727161251,85,-4.08536585365854,67,-5.18292682926829,-11,0.670731707317073,-63,0.273913043478261,41,0.178260869565217,128,-0.624390243902439,
15070454,1464.84375,6912,-4.23789086450031,-13456,-8.2501532801962,-5328,3.26670754138565,119,-5.48780487804878,90,-7.25609756097561,-10,0.609756097560976,-66,0.28695652173913,40,0.173913043478261,128,-0.624390243902439,
15071094,1484.375,6928,-4.24770079705702,-13504,-8.27958307786634,-5312,3.25689760882894,157,-6.82926829268293,112,-9.57317073170732,-8,0.487804878048781,-66,0.28695652173913,42,0.182608695652174,125,-0.609756097560976,
15071734,1503.90625,6768,-4.14960147148988,-13648,-8.36787247087676,-5376,3.29613733905579,177,-7.92682926829268,130,-10.7926829268293,-9,0.548780487804878,-62,0.269565217391304,40,0.173913043478261,127,-0.619512195121951,
15072374,1523.4375,6624,-4.06131207847946,-13680,-8.38749233599019,-5440,3.33537706928265,193,-8.71951219512195,143,-11.7682926829268,-15,0.914634146341463,-63,0.273913043478261,40,0.173913043478261,126,-0.614634146341463,
15073014,1542.96875,6480,-3.97302268546904,-13728,-8.41692213366033,-5424,3.32556713672594,202,-8.65853658536586,142,-12.3170731707317,-22,1.34146341463415,-66,0.28695652173913,42,0.182608695652174,126,-0.614634146341463,
15073654,1562.5,6384,-3.91416309012876,-13712,-8.40711220110362,-5488,3.36480686695279,206,-8.35365853658537,137,-12.5609756097561,-20,1.21951219512195,-63,0.273913043478261,44,0.191304347826087,126,-0.614634146341463,
15074294,1582.03125,6112,-3.74739423666462,-13856,-8.49540159411404,-5760,3.53157572041692,179,-8.10975609756098,133,-10.9146341463415,-10,0.609756097560976,-65,0.282608695652174,40,0.173913043478261,125,-0.609756097560976,
15074934,1601.5625,5920,-3.62967504598406,-13856,-8.49540159411404,-5984,3.66891477621091,131,-7.31707317073171,120,-7.98780487804878,2,-0.121951219512195,-62,0.269565217391304,40,0.173913043478261,125,-0.609756097560976,
15075574,1621.09375,5952,-3.64929491109749,-13968,-8.56407112201104,-6224,3.81606376456162,81,-6.03658536585366,99,-4.9390243902439,11,-0.670731707317073,-64,0.278260869565217,45,0.195652173913043,124,-0.604878048780488,
15076214,1640.625,5920,-3.62967504598406,-14016,-8.59350091968118,-6256,3.83568362967505,58,-4.69512195121951,77,-3.53658536585366,19,-1.15853658536585,-63,0.273913043478261,44,0.191304347826087,125,-0.609756097560976,
15076854,1660.15625,5968,-3.6591048436542,-13904,-8.52483139178418,-6304,3.86511342734519,31,-2.92682926829268,48,-1.89024390243902,32,-1.95121951219512,-63,0.273913043478261,40,0.173913043478261,124,-0.604878048780488,
15077494,1679.6875,5920,-3.62967504598406,-13776,-8.44635193133047,-6272,3.84549356223176,-16,-1.15853658536585,19,0.975609756097561,47,-2.86585365853659,-64,0.278260869565217,42,0.182608695652174,124,-0.604878048780488,
15078134,1699.21875,6016,-3.68853464132434,-13712,-8.40711220110362,-6144,3.76701410177805,-88,0.24390243902439,-4,5.36585365853659,58,-3.53658536585366,-62,0.269565217391304,44,0.191304347826087,122,-0.595121951219512,
15078774,1718.75,6320,-3.8749233599019,-13680,-8.38749233599019,-6016,3.68853464132434,-175,1.76829268292683,-29,10.6707317073171,70,-4.26829268292683,-61,0.265217391304348,44,0.191304347826087,124,-0.604878048780488,
15079414,1738.28125,6384,-3.91416309012876,-13584,-8.32863274064991,-5888,3.61005518087063,-239,2.92682926829268,-48,14.5731707317073,71,-4.32926829268293,-63,0.273913043478261,41,0.178260869565217,123,-0.6,
15080054,1757.8125,6640,-4.07112201103617,-13568,-8.31882280809319,-5648,3.46290619251993,-265,2.68292682926829,-44,16.1585365853659,66,-4.02439024390244,-64,0.278260869565217,40,0.173913043478261,125,-0.609756097560976,
15080694,1777.34375,6928,-4.24770079705702,-13584,-8.32863274064991,-5408,3.31575720416922,-249,2.01219512195122,-33,15.1829268292683,60,-3.65853658536585,-62,0.269565217391304,43,0.18695652173913,125,-0.609756097560976,
15081334,1796.875,7088,-4.34580012262416,-13504,-8.27958307786634,-5232,3.20784794604537,-224,0.975609756097561,-16,13.6585365853659,51,-3.10975609756098,-62,0.269565217391304,41,0.178260869565217,124,-0.604878048780488,
15081974,1816.40625,7088,-4.34580012262416,-13504,-8.27958307786634,-5024,3.08031882280809,-207,-0.182926829268293,3,12.6219512195122,36,-2.19512195121951,-64,0.278260869565217,40,0.173913043478261,126,-0.614634146341463,
15082614,1835.9375,7184,-4.40465971796444,-13600,-8.33844267320662,-4896,3.00183936235438,-187,-1.09756097560976,18,11.4024390243902,20,-1.21951219512195,-63,0.273913043478261,43,0.18695652173913,124,-0.604878048780488,
15083254,1855.46875,7264,-4.45370938074801,-13584,-8.32863274064991,-4896,3.00183936235438,-136,-1.89024390243902,31,8.29268292682927,-1,0.0609756097560976,-63,0.273913043478261,41,0.178260869565217,124,-0.604878048780488,
15083894,1875,7120,-4.36541998773758,-13584,-8.32863274064991,-5056,3.09993868792152,-77,-2.74390243902439,45,4.69512195121951,-20,1.21951219512195,-63,0.273913043478261,40,0.173913043478261,125,-0.609756097560976,
15084534,1894.53125,7056,-4.32618025751073,-13616,-8.34825260576334,-5488,3.36480686695279,-21,-2.74390243902439,45,1.28048780487805,-38,2.31707317073171,-64,0.278260869565217,46,0.2,124,-0.604878048780488,
15085174,1914.0625,6784,-4.1594114040466,-13632,-8.35806253832005,-5904,3.61986511342735,8,-2.19512195121951,36,-0.487804878048781,-39,2.37804878048781,-65,0.282608695652174,45,0.195652173913043,124,-0.604878048780488,
15085814,1933.59375,6704,-4.11036174126303,-13760,-8.43654199877376,-6256,3.83568362967505,8,-0.975609756097561,16,-0.487804878048781,-32,1.95121951219512,-63,0.273913043478261,41,0.178260869565217,124,-0.604878048780488,
15086454,1953.125,6720,-4.12017167381974,-13936,-8.54445125689761,-6192,3.79644389944819,0,0.731707317073171,-12,0,-29,1.76829268292683,-64,0.278260869565217,39,0.169565217391304,125,-0.609756097560976,
15087094,1972.65625,6592,-4.04169221336603,-13936,-8.54445125689761,-6016,3.68853464132434,-26,3.04878048780488,-50,1.58536585365854,-30,1.82926829268293,-64,0.278260869565217,42,0.182608695652174,124,-0.604878048780488,
15087734,1992.1875,6416,-3.93378295524218,-13952,-8.55426118945432,-5888,3.61005518087063,-72,4.9390243902439,-81,4.39024390243902,-34,2.07317073170732,-64,0.278260869565217,44,0.191304347826087,122,-0.595121951219512,
15088374,2011.71875,6400,-3.92397302268547,-13808,-8.4659717964439,-5776,3.54138565297364,-131,6.21951219512195,-102,7.98780487804878,-45,2.74390243902439,-65,0.282608695652174,40,0.173913043478261,126,-0.614634146341463,
15089014,2031.25,6608,-4.05150214592275,-13648,-8.36787247087676,-5520,3.38442673206622,-153,6.40243902439024,-105,9.32926829268293,-57,3.47560975609756,-64,0.278260869565217,41,0.178260869565217,124,-0.604878048780488,
15089654,2050.78125,6672,-4.0907418761496,-13504,-8.27958307786634,-5200,3.18822808093194,-138,5.85365853658537,-96,8.41463414634146,-57,3.47560975609756,-66,0.28695652173913,45,0.195652173913043,123,-0.6,
15090294,2070.3125,6704,-4.11036174126303,-13504,-8.27958307786634,-4848,2.97240956468424,-117,4.26829268292683,-70,7.13414634146342,-54,3.29268292682927,-64,0.278260869565217,43,0.18695652173913,124,-0.604878048780488,
15090934,2089.84375,6784,-4.1594114040466,-13600,-8.33844267320662,-4416,2.70754138565297,-92,2.25609756097561,-37,5.60975609756098,-54,3.29268292682927,-66,0.28695652173913,40,0.173913043478261,125,-0.609756097560976,
15091574,2109.375,6768,-4.14960147148988,-13792,-8.45616186388719,-4320,2.64868179031269,-66,-0.121951219512195,2,4.02439024390244,-50,3.04878048780488,-66,0.28695652173913,45,0.195652173913043,125,-0.609756097560976,
15092214,2128.90625,6784,-4.1594114040466,-13952,-8.55426118945432,-4160,2.55058246474555,-32,-2.5,41,1.95121951219512,-41,2.5,-64,0.278260869565217,41,0.178260869565217,124,-0.604878048780488,
15092854,2148.4375,6592,-4.04169221336603,-14128,-8.66217044757817,-3952,2.42305334150828,-16,-4.63414634146342,76,0.975609756097561,-37,2.25609756097561,-67,0.291304347826087,43,0.18695652173913,124,-0.604878048780488,
15093494,2167.96875,6416,-3.93378295524218,-14160,-8.6817903126916,-3984,2.4426732066217,-21,-6.52439024390244,107,1.28048780487805,-38,2.31707317073171,-65,0.282608695652174,42,0.182608695652174,124,-0.604878048780488,
15094134,2187.5,6288,-3.85530349478847,-14032,-8.60331085223789,-4064,2.49172286940527,-40,-7.98780487804878,131,2.4390243902439,-54,3.29268292682927,-67,0.291304347826087,42,0.182608695652174,123,-0.6,
15094774,2207.03125,6256,-3.83568362967505,-13680,-8.38749233599019,-4160,2.55058246474555,-44,-9.20731707317073,151,2.68292682926829,-67,4.08536585365854,-65,0.282608695652174,40,0.173913043478261,123,-0.6,
15095414,2226.5625,6160,-3.77682403433476,-13488,-8.26977314530963,-4512,2.76640098099326,-8,-10.4878048780488,172,0.487804878048781,-70,4.26829268292683,-67,0.291304347826087,46,0.2,122,-0.595121951219512,
15096054,2246.09375,6192,-3.79644389944819,-13728,-8.41692213366033,-4896,3.00183936235438,53,-11.7682926829268,193,-3.23170731707317,-49,2.98780487804878,-67,0.291304347826087,46,0.2,122,-0.595121951219512,
15096694,2265.625,6160,-3.77682403433476,-14320,-8.77988963825874,-5168,3.16860821581852,106,-12.3170731707317,202,-6.46341463414634,-2,0.121951219512195,-65,0.282608695652174,41,0.178260869565217,122,-0.595121951219512,
15097334,2285.15625,6016,-3.68853464132434,-14768,-9.05456774984672,-5184,3.17841814837523,120,-11.280487804878,185,-7.31707317073171,45,-2.74390243902439,-65,0.282608695652174,44,0.191304347826087,119,-0.580487804878049,
15097974,2304.6875,5808,-3.56100551808706,-14880,-9.12323727774372,-5152,3.1587982832618,72,-9.75609756097561,160,-4.39024390243902,73,-4.45121951219512,-64,0.278260869565217,48,0.208695652173913,120,-0.585365853658537,
15098614,2324.21875,5552,-3.40404659717964,-14688,-9.00551808706315,-5136,3.14898835070509,-5,-7.98780487804878,131,0.304878048780488,86,-5.24390243902439,-64,0.278260869565217,44,0.191304347826087,120,-0.585365853658537,
15099254,2343.75,5488,-3.36480686695279,-14416,-8.83874923359902,-5120,3.13917841814837,-101,-5.54878048780488,91,6.15853658536585,75,-4.57317073170732,-65,0.282608695652174,42,0.182608695652174,121,-0.590243902439024,
15099894,2363.28125,5616,-3.4432863274065,-14160,-8.6817903126916,-5008,3.07050889025138,-192,-3.53658536585366,58,11.7073170731707,75,-4.57317073170732,-66,0.28695652173913,43,0.18695652173913,121,-0.590243902439024,
15100534,2382.8125,5904,-3.61986511342735,-14112,-8.65236051502146,-4896,3.00183936235438,-259,-2.25609756097561,37,15.7926829268293,85,-5.18292682926829,-64,0.278260869565217,46,0.2,120,-0.585365853658537,
15101174,2402.34375,6256,-3.83568362967505,-14128,-8.66217044757817,-4768,2.92335990190067,-271,-2.25609756097561,37,16.5243902439024,112,-6.82926829268293,-64,0.278260869565217,44,0.191304347826087,120,-0.585365853658537,
15101814,2421.875,6400,-3.92397302268547,-14240,-8.73083997547517,-4640,2.84488044144697,-256,-1.89024390243902,31,15.609756097561,138,-8.41463414634146,-66,0.28695652173913,42,0.182608695652174,122,-0.595121951219512,
15102454,2441.40625,6432,-3.9435928877989,-14240,-8.73083997547517,-4544,2.78602084610668,-234,-1.64634146341463,27,14.2682926829268,149,-9.08536585365854,-67,0.291304347826087,47,0.204347826086957,120,-0.585365853658537,
15103094,2460.9375,6608,-4.05150214592275,-14336,-8.78969957081545,-4480,2.74678111587983,-207,-1.64634146341463,27,12.6219512195122,153,-9.32926829268293,-64,0.278260869565217,42,0.182608695652174,119,-0.580487804878049,
15103734,2480.46875,6720,-4.12017167381974,-14320,-8.77988963825874,-4656,2.85469037400368,-173,-1.46341463414634,24,10.5487804878049,152,-9.26829268292683,-65,0.282608695652174,41,0.178260869565217,119,-0.580487804878049,
15104374,2500,6688,-4.10055180870631,-14416,-8.83874923359902,-4720,2.89393010423053,-150,-1.21951219512195,20,9.14634146341463,149,-9.08536585365854,-65,0.282608695652174,46,0.2,120,-0.585365853658537,
15105014,2519.53125,6736,-4.12998160637646,-14384,-8.81912936848559,-4960,3.04107909258124,-137,-0.914634146341463,15,8.35365853658537,143,-8.71951219512195,-66,0.28695652173913,46,0.2,120,-0.585365853658537,
15105654,2539.0625,6848,-4.19865113427345,-14304,-8.77007970570202,-4976,3.05088902513795,-122,-0.426829268292683,7,7.4390243902439,131,-7.98780487804878,-63,0.273913043478261,43,0.18695652173913,121,-0.590243902439024,
15106294,2558.59375,6928,-4.24770079705702,-14304,-8.77007970570202,-4960,3.04107909258124,-81,0,0,4.9390243902439,118,-7.19512195121951,-65,0.282608695652174,44,0.191304347826087,120,-0.585365853658537,
15106934,2578.125,6880,-4.21827099938688,-14352,-8.79950950337216,-4880,2.99202942979767,-22,0.975609756097561,-16,1.34146341463415,93,-5.67073170731707,-65,0.282608695652174,45,0.195652173913043,118,-0.575609756097561,
15107574,2597.65625,6704,-4.11036174126303,-14400,-8.8289393010423,-4800,2.9429797670141,9,2.25609756097561,-37,-0.548780487804878,66,-4.02439024390244,-64,0.278260869565217,46,0.2,118,-0.575609756097561,
15108214,2617.1875,6496,-3.98283261802575,-14352,-8.79950950337216,-4736,2.90374003678725,-3,3.59756097560976,-59,0.182926829268293,41,-2.5,-65,0.282608695652174,47,0.204347826086957,121,-0.590243902439024,
15108854,2636.71875,6432,-3.9435928877989,-14336,-8.78969957081545,-4672,2.86450030656039,-36,5.36585365853659,-88,2.19512195121951,24,-1.46341463414634,-66,0.28695652173913,46,0.2,121,-0.590243902439024,
15109494,2656.25,6496,-3.98283261802575,-14256,-8.74064990803188,-4608,2.82526057633354,-66,6.40243902439024,-105,4.02439024390244,8,-0.487804878048781,-63,0.273913043478261,46,0.2,119,-0.580487804878049,
15110134,2675.78125,6544,-4.01226241569589,-14192,-8.70141017780503,-4416,2.70754138565297,-60,6.64634146341464,-109,3.65853658536585,-1,0.0609756097560976,-63,0.273913043478261,44,0.191304347826087,120,-0.585365853658537,
15110774,2695.3125,6448,-3.95340282035561,-14192,-8.70141017780503,-4432,2.71735131820969,-36,7.01219512195122,-115,2.19512195121951,-8,0.487804878048781,-64,0.278260869565217,43,0.18695652173913,121,-0.590243902439024,
15111414,2714.84375,6416,-3.93378295524218,-14208,-8.71122011036174,-4368,2.67811158798283,-19,6.95121951219512,-114,1.15853658536585,-17,1.03658536585366,-64,0.278260869565217,45,0.195652173913043,121,-0.590243902439024,
15112054,2734.375,6448,-3.95340282035561,-14208,-8.71122011036174,-4352,2.66830165542612,-23,7.19512195121951,-118,1.40243902439024,-23,1.40243902439024,-63,0.273913043478261,42,0.182608695652174,120,-0.585365853658537,
15112694,2753.90625,6496,-3.98283261802575,-14224,-8.72103004291846,-4464,2.73697118332311,-20,7.13414634146342,-117,1.21951219512195,-20,1.21951219512195,-63,0.273913043478261,42,0.182608695652174,121,-0.590243902439024,
15113334,2773.4375,6608,-4.05150214592275,-14240,-8.73083997547517,-4400,2.69773145309626,3,6.89024390243902,-113,-0.182926829268293,-17,1.03658536585366,-65,0.282608695652174,47,0.204347826086957,121,-0.590243902439024,
15113974,2792.96875,6720,-4.12017167381974,-14288,-8.76026977314531,-4496,2.75659104843654,51,6.15853658536585,-101,-3.10975609756098,-13,0.792682926829268,-65,0.282608695652174,46,0.2,121,-0.590243902439024,
15114614,2812.5,6720,-4.12017167381974,-14288,-8.76026977314531,-4608,2.82526057633354,110,5.60975609756098,-92,-6.70731707317073,-12,0.731707317073171,-64,0.278260869565217,41,0.178260869565217,121,-0.590243902439024,
15115254,2832.03125,6784,-4.1594114040466,-14144,-8.67198038013489,-4832,2.96259963212753,165,5.36585365853659,-88,-10.0609756097561,-16,0.975609756097561,-63,0.273913043478261,42,0.182608695652174,122,-0.595121951219512,
15115894,2851.5625,6752,-4.13979153893317,-14128,-8.66217044757817,-4992,3.06069895769467,201,5.97560975609756,-98,-12.2560975609756,-24,1.46341463414634,-64,0.278260869565217,43,0.18695652173913,120,-0.585365853658537,
15116534,2871.09375,6656,-4.08093194359289,-14208,-8.71122011036174,-5056,3.09993868792152,220,7.01219512195122,-115,-13.4146341463415,-36,2.19512195121951,-66,0.28695652173913,47,0.204347826086957,119,-0.580487804878049,
15117174,2890.625,6544,-4.01226241569589,-14256,-8.74064990803188,-5040,3.09012875536481,218,8.29268292682927,-136,-13.2926829268293,-52,3.17073170731707,-63,0.273913043478261,42,0.182608695652174,121,-0.590243902439024,
15117814,2910.15625,6528,-4.00245248313918,-14368,-8.80931943592888,-5120,3.13917841814837,214,10.2439024390244,-168,-13.0487804878049,-68,4.14634146341463,-64,0.278260869565217,44,0.191304347826087,121,-0.590243902439024,
15118454,2929.6875,6512,-3.99264255058246,-14528,-8.90741876149601,-5136,3.14898835070509,206,11.8292682926829,-194,-12.5609756097561,-86,5.24390243902439,-65,0.282608695652174,47,0.204347826086957,120,-0.585365853658537,
15119094,2949.21875,6464,-3.96321275291232,-14560,-8.92703862660944,-5024,3.08031882280809,187,13.8414634146341,-227,-11.4024390243902,-97,5.91463414634146,-64,0.278260869565217,45,0.195652173913043,121,-0.590243902439024,
15119734,2968.75,6400,-3.92397302268547,-14384,-8.81912936848559,-4944,3.03126916002452,149,15.5487804878049,-255,-9.08536585365854,-114,6.95121951219512,-64,0.278260869565217,43,0.18695652173913,123,-0.6,
15120374,2988.28125,6416,-3.93378295524218,-14288,-8.76026977314531,-4848,2.97240956468424,107,16.8292682926829,-276,-6.52439024390244,-129,7.86585365853659,-64,0.278260869565217,42,0.182608695652174,123,-0.6,
15121014,3007.8125,6576,-4.03188228080932,-14192,-8.70141017780503,-4752,2.91354996934396,80,17.2560975609756,-283,-4.87804878048781,-146,8.90243902439025,-62,0.269565217391304,41,0.178260869565217,122,-0.595121951219512,
15121654,3027.34375,6448,-3.95340282035561,-14112,-8.65236051502146,-4656,2.85469037400368,104,17.1341463414634,-281,-6.34146341463415,-159,9.69512195121951,-63,0.273913043478261,42,0.182608695652174,123,-0.6,
15122294,3046.875,6128,-3.75720416922134,-14096,-8.64255058246474,-4576,2.80564071122011,148,17.1341463414634,-281,-9.02439024390244,-152,9.26829268292683,-66,0.28695652173913,45,0.195652173913043,123,-0.6,
15122934,3066.40625,6000,-3.67872470876763,-14064,-8.62293071735132,-4400,2.69773145309626,138,16.7073170731707,-274,-8.41463414634146,-149,9.08536585365854,-65,0.282608695652174,47,0.204347826086957,122,-0.595121951219512,
15123574,3085.9375,6016,-3.68853464132434,-14032,-8.60331085223789,-4240,2.59963212752912,109,15.4268292682927,-253,-6.64634146341464,-142,8.65853658536586,-65,0.282608695652174,42,0.182608695652174,124,-0.604878048780488,
15124214,3105.46875,6048,-3.70815450643777,-13952,-8.55426118945432,-4176,2.56039239730227,95,14.0853658536585,-231,-5.79268292682927,-129,7.86585365853659,-66,0.28695652173913,48,0.208695652173913,122,-0.595121951219512,
15124854,3125,6016,-3.68853464132434,-13872,-8.50521152667075,-4240,2.59963212752912,104,12.4390243902439,-204,-6.34146341463415,-114,6.95121951219512,-65,0.282608695652174,44,0.191304347826087,125,-0.609756097560976,
15125494,3144.53125,5968,-3.6591048436542,-13824,-8.47578172900061,-4416,2.70754138565297,122,10.2439024390244,-168,-7.4390243902439,-95,5.79268292682927,-66,0.28695652173913,45,0.195652173913043,123,-0.6,
15126134,3164.0625,5872,-3.60024524831392,-13872,-8.50521152667075,-4448,2.7271612507664,140,8.59756097560976,-141,-8.53658536585366,-78,4.75609756097561,-63,0.273913043478261,40,0.173913043478261,126,-0.614634146341463,
15126774,3183.59375,5856,-3.5904353157572,-14016,-8.59350091968118,-4480,2.74678111587983,143,6.58536585365854,-108,-8.71951219512195,-58,3.53658536585366,-63,0.273913043478261,40,0.173913043478261,125,-0.609756097560976,
15127414,3203.125,5856,-3.5904353157572,-14080,-8.63274064990803,-4576,2.80564071122011,137,5.36585365853659,-88,-8.35365853658537,-40,2.4390243902439,-63,0.273913043478261,43,0.18695652173913,123,-0.6,
15128054,3222.65625,5824,-3.57081545064378,-14096,-8.64255058246474,-4800,2.9429797670141,122,4.63414634146342,-76,-7.4390243902439,-18,1.09756097560976,-65,0.282608695652174,45,0.195652173913043,124,-0.604878048780488,
15128694,3242.1875,5776,-3.54138565297364,-13968,-8.56407112201104,-4864,2.98221949724096,90,3.78048780487805,-62,-5.48780487804878,-5,0.304878048780488,-65,0.282608695652174,44,0.191304347826087,122,-0.595121951219512,
15129334,3261.71875,5728,-3.51195585530349,-13920,-8.53464132434089,-5024,3.08031882280809,55,3.10975609756098,-51,-3.35365853658537,10,-0.609756097560976,-65,0.282608695652174,45,0.195652173913043,123,-0.6,
15129974,3281.25,5888,-3.61005518087063,-13936,-8.54445125689761,-5024,3.08031882280809,22,3.04878048780488,-50,-1.34146341463415,18,-1.09756097560976,-63,0.273913043478261,41,0.178260869565217,124,-0.604878048780488,
15130614,3300.78125,5920,-3.62967504598406,-13968,-8.56407112201104,-4960,3.04107909258124,-1,2.74390243902439,-45,0.0609756097560976,27,-1.64634146341463,-64,0.278260869565217,40,0.173913043478261,125,-0.609756097560976,
15131254,3320.3125,6000,-3.67872470876763,-13984,-8.57388105456775,-5024,3.08031882280809,-20,2.5,-41,1.21951219512195,37,-2.25609756097561,-65,0.282608695652174,42,0.182608695652174,125,-0.609756097560976,
15131894,3339.84375,6080,-3.7277743715512,-14016,-8.59350091968118,-5088,3.11955855303495,-53,2.37804878048781,-39,3.23170731707317,47,-2.86585365853659,-65,0.282608695652174,47,0.204347826086957,123,-0.6,
15132534,3359.375,6128,-3.75720416922134,-13968,-8.56407112201104,-5120,3.13917841814837,-89,2.5,-41,5.42682926829268,50,-3.04878048780488,-63,0.273913043478261,40,0.173913043478261,123,-0.6,
15133174,3378.90625,6256,-3.83568362967505,-13904,-8.52483139178418,-5168,3.16860821581852,-102,2.5,-41,6.21951219512195,47,-2.86585365853659,-65,0.282608695652174,44,0.191304347826087,124,-0.604878048780488,
15133814,3398.4375,6384,-3.91416309012876,-13936,-8.54445125689761,-5248,3.21765787860208,-94,1.95121951219512,-32,5.73170731707317,45,-2.74390243902439,-64,0.278260869565217,43,0.18695652173913,125,-0.609756097560976,
15134454,3417.96875,6416,-3.93378295524218,-13952,-8.55426118945432,-5344,3.27651747394237,-86,1.64634146341463,-27,5.24390243902439,42,-2.5609756097561,-65,0.282608695652174,39,0.169565217391304,125,-0.609756097560976,
15135094,3437.5,6448,-3.95340282035561,-13936,-8.54445125689761,-5408,3.31575720416922,-71,1.46341463414634,-24,4.32926829268293,44,-2.68292682926829,-65,0.282608695652174,45,0.195652173913043,125,-0.609756097560976,
15135734,3457.03125,6432,-3.9435928877989,-13888,-8.51502145922747,-5504,3.3746167995095,-51,1.52439024390244,-25,3.10975609756098,44,-2.68292682926829,-64,0.278260869565217,45,0.195652173913043,123,-0.6,
15136374,3476.5625,6384,-3.91416309012876,-13888,-8.51502145922747,-5472,3.35499693439608,-47,1.82926829268293,-30,2.86585365853659,41,-2.5,-66,0.28695652173913,46,0.2,123,-0.6,
15137014,3496.09375,6368,-3.90435315757204,-13888,-8.51502145922747,-5408,3.31575720416922,-61,2.13414634146341,-35,3.71951219512195,37,-2.25609756097561,-62,0.269565217391304,40,0.173913043478261,125,-0.609756097560976,
15137654,3515.625,6480,-3.97302268546904,-13776,-8.44635193133047,-5456,3.34518700183936,-70,2.31707317073171,-38,4.26829268292683,34,-2.07317073170732,-63,0.273913043478261,41,0.178260869565217,125,-0.609756097560976,
15138294,3535.15625,6576,-4.03188228080932,-13776,-8.44635193133047,-5424,3.32556713672594,-65,2.19512195121951,-36,3.96341463414634,31,-1.89024390243902,-63,0.273913043478261,43,0.18695652173913,124,-0.604878048780488,
15138934,3554.6875,6512,-3.99264255058246,-13904,-8.52483139178418,-5392,3.30594727161251,-53,2.07317073170732,-34,3.23170731707317,29,-1.76829268292683,-65,0.282608695652174,43,0.18695652173913,122,-0.595121951219512,
15139574,3574.21875,6496,-3.98283261802575,-13936,-8.54445125689761,-5408,3.31575720416922,-42,2.25609756097561,-37,2.5609756097561,21,-1.28048780487805,-65,0.282608695652174,42,0.182608695652174,125,-0.609756097560976,
15140214,3593.75,6592,-4.04169221336603,-13936,-8.54445125689761,-5472,3.35499693439608,-42,2.4390243902439,-40,2.5609756097561,20,-1.21951219512195,-65,0.282608695652174,41,0.178260869565217,125,-0.609756097560976,
15140854,3613.28125,6592,-4.04169221336603,-13968,-8.56407112201104,-5504,3.3746167995095,-33,2.25609756097561,-37,2.01219512195122,17,-1.03658536585366,-62,0.269565217391304,42,0.182608695652174,124,-0.604878048780488,
15141494,3632.8125,6496,-3.98283261802575,-13920,-8.53464132434089,-5488,3.36480686695279,-13,2.31707317073171,-38,0.792682926829268,12,-0.731707317073171,-65,0.282608695652174,41,0.178260869565217,124,-0.604878048780488,
15142134,3652.34375,6432,-3.9435928877989,-13888,-8.51502145922747,-5488,3.36480686695279,-3,2.5609756097561,-42,0.182926829268293,2,-0.121951219512195,-64,0.278260869565217,43,0.18695652173913,125,-0.609756097560976,
15142774,3671.875,6464,-3.96321275291232,-13936,-8.54445125689761,-5408,3.31575720416922,-5,2.74390243902439,-45,0.304878048780488,-13,0.792682926829268,-63,0.273913043478261,45,0.195652173913043,125,-0.609756097560976,
15143414,3691.40625,6400,-3.92397302268547,-13936,-8.54445125689761,-5392,3.30594727161251,0,3.04878048780488,-50,0,-19,1.15853658536585,-63,0.273913043478261,40,0.173913043478261,125,-0.609756097560976,
15144054,3710.9375,6384,-3.91416309012876,-14000,-8.58369098712446,-5376,3.29613733905579,5,2.98780487804878,-49,-0.304878048780488,-20,1.21951219512195,-62,0.269565217391304,44,0.191304347826087,124,-0.604878048780488,
15144694,3730.46875,6400,-3.92397302268547,-14032,-8.60331085223789,-5328,3.26670754138565,9,2.80487804878049,-46,-0.548780487804878,-18,1.09756097560976,-65,0.282608695652174,45,0.195652173913043,124,-0.604878048780488,
15145334,3750,6352,-3.89454322501533,-13920,-8.53464132434089,-5312,3.25689760882894,16,2.92682926829268,-48,-0.975609756097561,-23,1.40243902439024,-64,0.278260869565217,44,0.191304347826087,124,-0.604878048780488,
15145974,3769.53125,6320,-3.8749233599019,-13856,-8.49540159411404,-5376,3.29613733905579,12,3.17073170731707,-52,-0.731707317073171,-22,1.34146341463415,-63,0.273913043478261,41,0.178260869565217,125,-0.609756097560976,
15146614,3789.0625,6336,-3.88473329245861,-13904,-8.52483139178418,-5296,3.24708767627223,10,3.23170731707317,-53,-0.609756097560976,-21,1.28048780487805,-63,0.273913043478261,39,0.169565217391304,126,-0.614634146341463,
15147254,3808.59375,6288,-3.85530349478847,-13888,-8.51502145922747,-5344,3.27651747394237,-5,3.35365853658537,-55,0.304878048780488,-17,1.03658536585366,-63,0.273913043478261,44,0.191304347826087,124,-0.604878048780488,
15147894,3828.125,6240,-3.82587369711833,-13904,-8.52483139178418,-5296,3.24708767627223,-8,3.29268292682927,-54,0.487804878048781,-12,0.731707317073171,-64,0.278260869565217,44,0.191304347826087,123,-0.6,
15148534,3847.65625,6368,-3.90435315757204,-13920,-8.53464132434089,-5312,3.25689760882894,2,2.98780487804878,-49,-0.121951219512195,-6,0.365853658536585,-64,0.278260869565217,43,0.18695652173913,125,-0.609756097560976,
15149174,3867.1875,6416,-3.93378295524218,-13856,-8.49540159411404,-5280,3.23727774371551,8,3.17073170731707,-52,-0.487804878048781,-8,0.487804878048781,-66,0.28695652173913,43,0.18695652173913,126,-0.614634146341463,
15149814,3886.71875,6416,-3.93378295524218,-13952,-8.55426118945432,-5344,3.27651747394237,10,3.10975609756098,-51,-0.609756097560976,-12,0.731707317073171,-66,0.28695652173913,41,0.178260869565217,124,-0.604878048780488,
15150454,3906.25,6368,-3.90435315757204,-13920,-8.53464132434089,-5328,3.26670754138565,13,3.23170731707317,-53,-0.792682926829268,-14,0.853658536585366,-64,0.278260869565217,46,0.2,123,-0.6,
15151094,3925.78125,6384,-3.91416309012876,-13920,-8.53464132434089,-5344,3.27651747394237,9,3.35365853658537,-55,-0.548780487804878,-15,0.914634146341463,-64,0.278260869565217,40,0.173913043478261,124,-0.604878048780488,
15151734,3945.3125,6368,-3.90435315757204,-14000,-8.58369098712446,-5328,3.26670754138565,1,3.78048780487805,-62,-0.0609756097560976,-14,0.853658536585366,-64,0.278260869565217,44,0.191304347826087,125,-0.609756097560976,
15152374,3964.84375,6352,-3.89454322501533,-13984,-8.57388105456775,-5280,3.23727774371551,-1,3.53658536585366,-58,0.0609756097560976,-12,0.731707317073171,-64,0.278260869565217,40,0.173913043478261,124,-0.604878048780488,
15153014,3984.375,6352,-3.89454322501533,-13968,-8.56407112201104,-5328,3.26670754138565,9,3.59756097560976,-59,-0.548780487804878,-16,0.975609756097561,-64,0.278260869565217,40,0.173913043478261,125,-0.609756097560976,
15153654,4003.90625,6352,-3.89454322501533,-13968,-8.56407112201104,-5328,3.26670754138565,16,3.65853658536585,-60,-0.975609756097561,-15,0.914634146341463,-64,0.278260869565217,44,0.191304347826087,125,-0.609756097560976,
15154294,4023.4375,6352,-3.89454322501533,-13904,-8.52483139178418,-5328,3.26670754138565,16,3.65853658536585,-60,-0.975609756097561,-19,1.15853658536585,-65,0.282608695652174,43,0.18695652173913,126,-0.614634146341463,
15154934,4042.96875,6304,-3.86511342734519,-13952,-8.55426118945432,-5360,3.28632740649908,10,3.96341463414634,-65,-0.609756097560976,-18,1.09756097560976,-65,0.282608695652174,48,0.208695652173913,123,-0.6,
15155574,4062.5,6256,-3.83568362967505,-13936,-8.54445125689761,-5392,3.30594727161251,3,4.02439024390244,-66,-0.182926829268293,-18,1.09756097560976,-63,0.273913043478261,40,0.173913043478261,126,-0.614634146341463,
15156214,4082.03125,6160,-3.77682403433476,-13920,-8.53464132434089,-5296,3.24708767627223,-10,4.14634146341463,-68,0.609756097560976,-17,1.03658536585366,-63,0.273913043478261,42,0.182608695652174,124,-0.604878048780488,
15156854,4101.5625,6256,-3.83568362967505,-13840,-8.48559166155733,-5328,3.26670754138565,-15,3.84146341463415,-63,0.914634146341463,-15,0.914634146341463,-63,0.273913043478261,44,0.191304347826087,123,-0.6,
15157494,4121.09375,6304,-3.86511342734519,-13920,-8.53464132434089,-5456,3.34518700183936,-11,3.96341463414634,-65,0.670731707317073,-14,0.853658536585366,-63,0.273913043478261,41,0.178260869565217,124,-0.604878048780488,
15158134,4140.625,6240,-3.82587369711833,-13872,-8.50521152667075,-5392,3.30594727161251,-3,3.78048780487805,-62,0.182926829268293,-7,0.426829268292683,-64,0.278260869565217,41,0.178260869565217,125,-0.609756097560976,
15158774,4160.15625,6384,-3.91416309012876,-13824,-8.47578172900061,-5376,3.29613733905579,3,3.53658536585366,-58,-0.182926829268293,-1,0.0609756097560976,-62,0.269565217391304,43,0.18695652173913,123,-0.6,
15159414,4179.6875,6336,-3.88473329245861,-13872,-8.50521152667075,-5328,3.26670754138565,0,3.84146341463415,-63,0,6,-0.365853658536585,-63,0.273913043478261,43,0.18695652173913,124,-0.604878048780488,
15160054,4199.21875,6336,-3.88473329245861,-14048,-8.6131207847946,-5312,3.25689760882894,-19,3.35365853658537,-55,1.15853658536585,11,-0.670731707317073,-67,0.291304347826087,44,0.191304347826087,124,-0.604878048780488,
15160694,4218.75,6400,-3.92397302268547,-14000,-8.58369098712446,-5344,3.27651747394237,-8,3.10975609756098,-51,0.487804878048781,14,-0.853658536585366,-66,0.28695652173913,44,0.191304347826087,125,-0.609756097560976,
15161334,4238.28125,6416,-3.93378295524218,-13984,-8.57388105456775,-5456,3.34518700183936,21,2.80487804878049,-46,-1.28048780487805,9,-0.548780487804878,-63,0.273913043478261,41,0.178260869565217,124,-0.604878048780488,
15161974,4257.8125,6448,-3.95340282035561,-13824,-8.47578172900061,-5440,3.33537706928265,35,2.74390243902439,-45,-2.13414634146341,2,-0.121951219512195,-64,0.278260869565217,39,0.169565217391304,125,-0.609756097560976,
15162614,4277.34375,6448,-3.95340282035561,-13824,-8.47578172900061,-5392,3.30594727161251,31,2.80487804878049,-46,-1.89024390243902,-5,0.304878048780488,-63,0.273913043478261,43,0.18695652173913,125,-0.609756097560976,
15163254,4296.875,6352,-3.89454322501533,-13840,-8.48559166155733,-5392,3.30594727161251,12,2.86585365853659,-47,-0.731707317073171,-10,0.609756097560976,-64,0.278260869565217,45,0.195652173913043,125,-0.609756097560976,
15163894,4316.40625,6384,-3.91416309012876,-13952,-8.55426118945432,-5488,3.36480686695279,-4,3.17073170731707,-52,0.24390243902439,-14,0.853658536585366,-63,0.273913043478261,39,0.169565217391304,125,-0.609756097560976,
15164534,4335.9375,6432,-3.9435928877989,-13888,-8.51502145922747,-5424,3.32556713672594,7,2.92682926829268,-48,-0.426829268292683,-15,0.914634146341463,-63,0.273913043478261,40,0.173913043478261,126,-0.614634146341463,
15165174,4355.46875,6416,-3.93378295524218,-13952,-8.55426118945432,-5408,3.31575720416922,34,2.86585365853659,-47,-2.07317073170732,-13,0.792682926829268,-67,0.291304347826087,44,0.191304347826087,124,-0.604878048780488,
15165814,4375,6368,-3.90435315757204,-13904,-8.52483139178418,-5424,3.32556713672594,46,2.6219512195122,-43,-2.80487804878049,-14,0.853658536585366,-66,0.28695652173913,43,0.18695652173913,122,-0.595121951219512,
15166454,4394.53125,6288,-3.85530349478847,-13904,-8.52483139178418,-5456,3.34518700183936,35,2.98780487804878,-49,-2.13414634146341,-20,1.21951219512195,-64,0.278260869565217,41,0.178260869565217,125,-0.609756097560976,
15167094,4414.0625,6272,-3.84549356223176,-13904,-8.52483139178418,-5488,3.36480686695279,20,3.29268292682927,-54,-1.21951219512195,-19,1.15853658536585,-64,0.278260869565217,42,0.182608695652174,123,-0.6,
15167734,4433.59375,6336,-3.88473329245861,-13856,-8.49540159411404,-5504,3.3746167995095,16,3.10975609756098,-51,-0.975609756097561,-11,0.670731707317073,-66,0.28695652173913,44,0.191304347826087,123,-0.6,
15168374,4453.125,6336,-3.88473329245861,-13920,-8.53464132434089,-5424,3.32556713672594,20,2.80487804878049,-46,-1.21951219512195,-7,0.426829268292683,-64,0.278260869565217,43,0.18695652173913,125,-0.609756097560976,
15169014,4472.65625,6528,-4.00245248313918,-14000,-8.58369098712446,-5376,3.29613733905579,46,2.19512195121951,-36,-2.80487804878049,8,-0.487804878048781,-63,0.273913043478261,44,0.191304347826087,124,-0.604878048780488,
15169654,4492.1875,6640,-4.07112201103617,-14064,-8.62293071735132,-5328,3.26670754138565,95,1.76829268292683,-29,-5.79268292682927,20,-1.21951219512195,-63,0.273913043478261,43,0.18695652173913,122,-0.595121951219512,
15170294,4511.71875,6640,-4.07112201103617,-13888,-8.51502145922747,-5296,3.24708767627223,162,1.28048780487805,-21,-9.87804878048781,21,-1.28048780487805,-62,0.269565217391304,43,0.18695652173913,125,-0.609756097560976,
15170934,4531.25,6544,-4.01226241569589,-13776,-8.44635193133047,-5424,3.32556713672594,205,0.792682926829268,-13,-12.5,10,-0.609756097560976,-64,0.278260869565217,40,0.173913043478261,126,-0.614634146341463,
15171574,4550.78125,6464,-3.96321275291232,-13760,-8.43654199877376,-5424,3.32556713672594,248,0.304878048780488,-5,-15.1219512195122,-7,0.426829268292683,-63,0.273913043478261,40,0.173913043478261,125,-0.609756097560976,
15172214,4570.3125,6464,-3.96321275291232,-13856,-8.49540159411404,-5440,3.33537706928265,291,0.0609756097560976,-1,-17.7439024390244,-4,0.24390243902439,-62,0.269565217391304,40,0.173913043478261,122,-0.595121951219512,
15172854,4589.84375,6368,-3.90435315757204,-13936,-8.54445125689761,-5456,3.34518700183936,306,-0.0609756097560976,1,-18.6585365853659,5,-0.304878048780488,-61,0.265217391304348,39,0.169565217391304,125,-0.609756097560976,
15173494,4609.375,6208,-3.8062538320049,-13984,-8.57388105456775,-5632,3.45309625996321,282,0.792682926829268,-13,-17.1951219512195,5,-0.304878048780488,-61,0.265217391304348,46,0.2,124,-0.604878048780488,
15174134,4628.90625,6032,-3.69834457388105,-13952,-8.55426118945432,-5696,3.49233599019007,236,1.09756097560976,-18,-14.390243902439,-7,0.426829268292683,-62,0.269565217391304,45,0.195652173913043,123,-0.6,
15174774,4648.4375,5984,-3.66891477621091,-13968,-8.56407112201104,-5600,3.43347639484979,195,1.46341463414634,-24,-11.890243902439,-23,1.40243902439024,-60,0.260869565217391,40,0.173913043478261,123,-0.6,
15175414,4667.96875,5936,-3.63948497854077,-14032,-8.60331085223789,-5584,3.42366646229307,160,2.25609756097561,-37,-9.75609756097561,-44,2.68292682926829,-60,0.260869565217391,40,0.173913043478261,124,-0.604878048780488,
15176054,4687.5,5792,-3.55119558553035,-13968,-8.56407112201104,-5600,3.43347639484979,126,2.74390243902439,-45,-7.68292682926829,-54,3.29268292682927,-61,0.265217391304348,43,0.18695652173913,123,-0.6,
15176694,4707.03125,5664,-3.47271612507664,-13952,-8.55426118945432,-5568,3.41385652973636,95,2.86585365853659,-47,-5.79268292682927,-51,3.10975609756098,-60,0.260869565217391,46,0.2,123,-0.6,
15177334,4726.5625,5760,-3.53157572041692,-14016,-8.59350091968118,-5600,3.43347639484979,102,2.5609756097561,-42,-6.21951219512195,-33,2.01219512195122,-60,0.260869565217391,40,0.173913043478261,123,-0.6,
15177974,4746.09375,6016,-3.68853464132434,-14000,-8.58369098712446,-5488,3.36480686695279,158,1.58536585365854,-26,-9.63414634146342,0,0,-59,0.256521739130435,40,0.173913043478261,123,-0.6,
15178614,4765.625,6016,-3.68853464132434,-14064,-8.62293071735132,-5456,3.34518700183936,226,0.670731707317073,-11,-13.780487804878,26,-1.58536585365854,-59,0.256521739130435,44,0.191304347826087,122,-0.595121951219512,
15179254,4785.15625,6080,-3.7277743715512,-14016,-8.59350091968118,-5504,3.3746167995095,282,-0.914634146341463,15,-17.1951219512195,38,-2.31707317073171,-59,0.256521739130435,43,0.18695652173913,122,-0.595121951219512,
15179894,4804.6875,6512,-3.99264255058246,-14144,-8.67198038013489,-5888,3.61005518087063,398,-2.98780487804878,49,-24.2682926829268,56,-3.41463414634146,-62,0.269565217391304,41,0.178260869565217,123,-0.6,
15180534,4824.21875,6480,-3.97302268546904,-14496,-8.88779889638259,-6272,3.84549356223176,501,-4.08536585365854,67,-30.5487804878049,73,-4.45121951219512,-60,0.260869565217391,41,0.178260869565217,122,-0.595121951219512,
15181174,4843.75,5712,-3.50214592274678,-14448,-8.85836909871245,-6960,4.26732066217045,440,-0.487804878048781,8,-26.8292682926829,69,-4.20731707317073,-58,0.252173913043478,41,0.178260869565217,121,-0.590243902439024,
15181814,4863.28125,5376,-3.29613733905579,-14576,-8.93684855916615,-7536,4.62047823421214,149,4.9390243902439,-81,-9.08536585365854,1,-0.0609756097560976,-59,0.256521739130435,42,0.182608695652174,121,-0.590243902439024,
15182454,4882.8125,5840,-3.58062538320049,-14320,-8.77988963825874,-8000,4.90496627835684,24,13.1707317073171,-216,-1.46341463414634,-106,6.46341463414634,-57,0.247826086956522,45,0.195652173913043,122,-0.595121951219512,
15183094,4902.34375,6704,-4.11036174126303,-14416,-8.83874923359902,-8848,5.42489270386266,103,20.5487804878049,-337,-6.28048780487805,-286,17.4390243902439,-59,0.256521739130435,46,0.2,120,-0.585365853658537,
15183734,4921.875,7312,-4.48313917841815,-15232,-9.33905579399141,-10912,6.69037400367872,675,28.5365853658537,-468,-41.1585365853659,-403,24.5731707317073,-60,0.260869565217391,44,0.191304347826087,123,-0.6,
15184374,4941.40625,6576,-4.03188228080932,-16400,-10.0551808706315,-12112,7.42611894543225,1086,41.5853658536585,-682,-66.219512195122,-449,27.3780487804878,-58,0.252173913043478,44,0.191304347826087,123,-0.6,
15185014,4960.9375,4464,-2.73697118332311,-15120,-9.27038626609442,-13712,8.40711220110362,955,58.9024390243902,-966,-58.2317073170732,-432,26.3414634146341,-57,0.247826086956522,42,0.182608695652174,123,-0.6,
15185654,4980.46875,3952,-2.42305334150828,-14032,-8.60331085223789,-15568,9.5450643776824,459,67.1341463414634,-1101,-27.9878048780488,-188,11.4634146341463,-56,0.243478260869565,41,0.178260869565217,124,-0.604878048780488,
15186294,5000,3744,-2.295524218271,-14720,-9.02513795217658,-15872,9.73145309625996,31,75.609756097561,-1240,-1.89024390243902,-50,3.04878048780488,-56,0.243478260869565,38,0.165217391304348,127,-0.619512195121951,
15186934,5019.53125,3408,-2.08951563458001,-15600,-9.56468424279583,-16496,10.1140404659718,-607,86.6463414634146,-1421,37.0121951219512,-18,1.09756097560976,-56,0.243478260869565,37,0.160869565217391,130,-0.634146341463415,
15187574,5039.0625,5536,-3.39423666462293,-15536,-9.52544451256898,-16496,10.1140404659718,-1153,98.5365853658537,-1616,70.3048780487805,-43,2.6219512195122,-57,0.247826086956522,39,0.169565217391304,131,-0.639024390243902,
15188214,5058.59375,9296,-5.69957081545064,-15040,-9.22133660331085,-15264,9.35867565910484,-949,107.317073170732,-1760,57.8658536585366,-91,5.54878048780488,-61,0.265217391304348,39,0.169565217391304,135,-0.658536585365854,
15188854,5078.125,11088,-6.79828326180257,-14832,-9.09380748007357,-13808,8.4659717964439,-44,110.30487804878,-1809,2.68292682926829,-141,8.59756097560976,-61,0.265217391304348,31,0.134782608695652,137,-0.668292682926829,
15189494,5097.65625,9904,-6.07234825260576,-15184,-9.30962599632127,-13248,8.12262415695892,651,112.865853658537,-1851,-39.6951219512195,-195,11.890243902439,-61,0.265217391304348,30,0.130434782608696,140,-0.682926829268293,
15190134,5117.1875,8832,-5.41508277130595,-15072,-9.24095646842428,-12832,7.86756591048437,666,121.219512195122,-1988,-40.609756097561,-299,18.2317073170732,-59,0.256521739130435,27,0.117391304347826,142,-0.692682926829268,
15190774,5136.71875,9200,-5.64071122011036,-15104,-9.26057633353771,-12224,7.49478847332925,565,125.243902439024,-2054,-34.4512195121951,-411,25.0609756097561,-58,0.252173913043478,21,0.091304347826087,146,-0.712195121951219,
15191414,5156.25,9280,-5.68976088289393,-14800,-9.07418761496015,-11216,6.87676272225628,543,127.865853658537,-2097,-33.109756097561,-486,29.6341463414634,-58,0.252173913043478,23,0.1,148,-0.721951219512195,
15192054,5175.78125,8640,-5.29736358062538,-13440,-8.24034334763948,-10560,6.47455548743102,396,128.231707317073,-2103,-24.1463414634146,-537,32.7439024390244,-59,0.256521739130435,21,0.091304347826087,151,-0.736585365853659,
15192694,5195.3125,9008,-5.5229920294298,-12112,-7.42611894543225,-10272,6.29797670141018,332,125.792682926829,-2063,-20.2439024390244,-587,35.7926829268293,-59,0.256521739130435,22,0.0956521739130435,151,-0.736585365853659,
15193334,5214.84375,10016,-6.14101778050276,-11248,-6.89638258736971,-10080,6.18025751072961,672,120.731707317073,-1980,-40.9756097560976,-592,36.0975609756098,-58,0.252173913043478,14,0.0608695652173913,156,-0.760975609756098,
15193974,5234.375,10080,-6.18025751072961,-10592,-6.49417535254445,-10768,6.6020846106683,1278,115.060975609756,-1887,-77.9268292682927,-550,33.5365853658537,-57,0.247826086956522,11,0.0478260869565217,156,-0.760975609756098,
15194614,5253.90625,8384,-5.14040465971796,-10080,-6.18025751072961,-11328,6.94543225015328,1667,110.975609756098,-1820,-101.646341463415,-471,28.719512195122,-52,0.226086956521739,6,0.0260869565217391,157,-0.765853658536585,
15195254,5273.4375,6816,-4.17903126916002,-9520,-5.83690987124464,-11344,6.95524218270999,1562,108.719512195122,-1783,-95.2439024390244,-418,25.4878048780488,-51,0.221739130434783,5,0.0217391304347826,159,-0.775609756097561,
15195894,5292.96875,5936,-3.63948497854077,-9072,-5.56223175965665,-11376,6.97486204782342,1197,107.5,-1763,-72.9878048780488,-373,22.7439024390244,-47,0.204347826086957,-4,-0.0173913043478261,161,-0.785365853658537,
15196534,5312.5,5360,-3.28632740649908,-8512,-5.21888412017167,-11008,6.74923359901901,789,106.341463414634,-1744,-48.109756097561,-361,22.0121951219512,-45,0.195652173913043,-1,-0.00434782608695652,159,-0.775609756097561,
15197174,5332.03125,5440,-3.33537706928265,-7680,-4.70876762722256,-10656,6.53341508277131,452,102.19512195122,-1676,-27.5609756097561,-374,22.8048780487805,-43,0.18695652173913,-5,-0.0217391304347826,162,-0.790243902439024,
15197814,5351.5625,5856,-3.5904353157572,-7184,-4.40465971796444,-10896,6.68056407112201,410,95.9146341463415,-1573,-25,-395,24.0853658536585,-45,0.195652173913043,-5,-0.0217391304347826,160,-0.780487804878049,
15198454,5371.09375,5808,-3.56100551808706,-6576,-4.03188228080932,-11008,6.74923359901901,582,90.3048780487805,-1481,-35.4878048780488,-409,24.9390243902439,-44,0.191304347826087,-9,-0.0391304347826087,161,-0.785365853658537,
15199094,5390.625,5104,-3.12936848559166,-6304,-3.86511342734519,-10752,6.59227467811159,798,83.4756097560976,-1369,-48.6585365853659,-407,24.8170731707317,-41,0.178260869565217,-14,-0.0608695652173913,163,-0.795121951219512,
15199734,5410.15625,4272,-2.61925199264255,-5872,-3.60024524831392,-10784,6.61189454322501,942,76.5243902439024,-1255,-57.4390243902439,-364,22.1951219512195,-37,0.160869565217391,-19,-0.0826086956521739,162,-0.790243902439024,
15200374,5429.6875,3296,-2.02084610668302,-4992,-3.06069895769467,-11360,6.96505211526671,1095,70.5487804878049,-1157,-66.7682926829268,-295,17.9878048780488,-36,0.156521739130435,-16,-0.0695652173913043,163,-0.795121951219512,
15201014,5449.21875,2128,-1.30472103004292,-3968,-2.43286327406499,-11824,7.2495401594114,1142,65.1219512195122,-1068,-69.6341463414634,-198,12.0731707317073,-34,0.147826086956522,-18,-0.0782608695652174,161,-0.785365853658537,
15201654,5468.75,1488,-0.912323727774372,-3072,-1.88350705088903,-11952,7.32801961986511,1078,60.6707317073171,-995,-65.7317073170732,-111,6.76829268292683,-35,0.152173913043478,-18,-0.0782608695652174,162,-0.790243902439024,
15202294,5488.28125,1344,-0.824034334763949,-2432,-1.49110974862048,-12016,7.36725935009197,950,54.8780487804878,-900,-57.9268292682927,-33,2.01219512195122,-29,0.126086956521739,-18,-0.0782608695652174,159,-0.775609756097561,
15202934,5507.8125,1056,-0.647455548743102,-2288,-1.40282035561006,-12128,7.43592887798896,904,48.3536585365854,-793,-55.1219512195122,65,-3.96341463414634,-28,0.121739130434783,-23,-0.1,160,-0.780487804878049,
15203574,5527.34375,656,-0.402207234825261,-2224,-1.3635806253832,-12208,7.48497854077253,882,43.1707317073171,-708,-53.7804878048781,157,-9.57317073170732,-26,0.11304347826087,-21,-0.091304347826087,157,-0.765853658536585,
15204214,5546.875,416,-0.255058246474555,-2160,-1.32434089515635,-12464,7.64193746167995,846,39.5121951219512,-648,-51.5853658536585,223,-13.5975609756098,-23,0.1,-25,-0.108695652173913,159,-0.775609756097561,
15204854,5566.40625,96,-0.058859595340282,-1776,-1.08890251379522,-12816,7.85775597792765,801,35.1219512195122,-576,-48.8414634146341,259,-15.7926829268293,-24,0.104347826086957,-25,-0.108695652173913,155,-0.75609756097561,
15205494,5585.9375,-224,0.137339055793991,-1408,-0.863274064990803,-12656,7.75965665236051,738,31.219512195122,-512,-45,303,-18.4756097560976,-20,0.0869565217391304,-28,-0.121739130434783,155,-0.75609756097561,
15206134,5605.46875,128,-0.0784794604537094,-1344,-0.824034334763949,-12672,7.76946658491723,677,24.8170731707317,-407,-41.280487804878,337,-20.5487804878049,-19,0.0826086956521739,-31,-0.134782608695652,157,-0.765853658536585,
15206774,5625,16,-0.00980993255671367,-1264,-0.77498467198038,-13632,8.35806253832005,819,22.1951219512195,-364,-49.9390243902439,369,-22.5,-17,0.0739130434782609,-32,-0.139130434782609,153,-0.746341463414634,
15207414,5644.53125,-464,0.284488044144696,-1280,-0.784794604537094,-14544,8.91722869405273,947,21.4024390243902,-351,-57.7439024390244,365,-22.2560975609756,-16,0.0695652173913043,-33,-0.143478260869565,153,-0.746341463414634,
15208054,5664.0625,-688,0.421827099938688,-1328,-0.814224402207235,-15216,9.3292458614347,939,22.9268292682927,-376,-57.2560975609756,326,-19.8780487804878,-16,0.0695652173913043,-31,-0.134782608695652,151,-0.736585365853659,
15208694,5683.59375,-512,0.313917841814838,-1312,-0.804414469650521,-15008,9.20171673819742,856,22.3170731707317,-366,-52.1951219512195,251,-15.3048780487805,-13,0.0565217391304348,-36,-0.156521739130435,150,-0.731707317073171,
15209334,5703.125,-48,0.029429797670141,-1136,-0.696505211526671,-14384,8.81912936848559,815,20.8536585365854,-342,-49.6951219512195,210,-12.8048780487805,-10,0.0434782608695652,-33,-0.143478260869565,150,-0.731707317073171,
15209974,5722.65625,-256,0.156958920907419,-976,-0.598405885959534,-14432,8.84855916615573,934,21.3414634146341,-350,-56.9512195121951,173,-10.5487804878049,-11,0.0478260869565217,-39,-0.169565217391304,149,-0.726829268292683,
15210614,5742.1875,-1664,1.02023298589822,-752,-0.461066830165543,-14384,8.81912936848559,1007,21.9512195121951,-360,-61.4024390243902,156,-9.51219512195122,-9,0.0391304347826087,-40,-0.173913043478261,147,-0.717073170731707,
15211254,5761.71875,-3024,1.85407725321888,-720,-0.441446965052115,-14064,8.62293071735132,735,20.7926829268293,-341,-44.8170731707317,123,-7.5,-9,0.0391304347826087,-36,-0.156521739130435,145,-0.707317073170732,
15211894,5781.25,-2816,1.72654812998161,-720,-0.441446965052115,-13888,8.51502145922747,290,22.0121951219512,-361,-17.6829268292683,41,-2.5,-6,0.0260869565217391,-37,-0.160869565217391,144,-0.702439024390244,
15212534,5800.78125,-1968,1.20662170447578,-384,-0.235438381361128,-13872,8.50521152667075,143,22.0731707317073,-362,-8.71951219512195,8,-0.487804878048781,-5,0.0217391304347826,-42,-0.182608695652174,145,-0.707317073170732,
15213174,5820.3125,-784,0.48068669527897,16,0.00980993255671367,-14112,8.65236051502146,258,16.4024390243902,-269,-15.7317073170732,18,-1.09756097560976,-5,0.0217391304347826,-36,-0.156521739130435,144,-0.702439024390244,
15213814,5839.84375,16,-0.00980993255671367,80,0.0490496627835684,-14464,8.86817903126916,509,11.280487804878,-185,-31.0365853658537,14,-0.853658536585366,-3,0.0130434782608696,-41,-0.178260869565217,143,-0.697560975609756,
15214454,5859.375,-720,0.441446965052115,288,0.176578786020846,-14448,8.85836909871245,906,7.5,-123,-55.2439024390244,49,-2.98780487804878,-4,0.0173913043478261,-38,-0.165217391304348,141,-0.68780487804878,
15215094,5878.90625,-2992,1.83445738810546,336,0.206008583690987,-14480,8.87798896382587,1042,3.17073170731707,-52,-63.5365853658537,99,-6.03658536585366,2,-0.00869565217391304,-44,-0.191304347826087,142,-0.692682926829268,
15215734,5898.4375,-4288,2.62906192519926,384,0.235438381361128,-14720,9.02513795217658,693,0.487804878048781,-8,-42.2560975609756,128,-7.80487804878049,3,-0.0130434782608696,-38,-0.165217391304348,138,-0.673170731707317,
15216374,5917.96875,-3856,2.364193746168,224,0.137339055793991,-15264,9.35867565910484,250,0.365853658536585,-6,-15.2439024390244,128,-7.80487804878049,0,0,-39,-0.169565217391304,138,-0.673170731707317,
15217014,5937.5,-3584,2.19742489270386,112,0.0686695278969957,-15600,9.56468424279583,82,1.09756097560976,-18,-5,143,-8.71951219512195,1,-0.00434782608695652,-39,-0.169565217391304,138,-0.673170731707317,
15217654,5957.03125,-3360,2.06008583690987,64,0.0392397302268547,-15840,9.71183323114654,10,2.19512195121951,-36,-0.609756097560976,127,-7.74390243902439,1,-0.00434782608695652,-42,-0.182608695652174,138,-0.673170731707317,
15218294,5976.5625,-3312,2.03065603923973,96,0.058859595340282,-15984,9.80012262415696,-83,4.02439024390244,-66,5.0609756097561,74,-4.51219512195122,1,-0.00434782608695652,-40,-0.173913043478261,137,-0.668292682926829,
15218934,5996.09375,-3296,2.02084610668302,224,0.137339055793991,-15792,9.6824034334764,-157,4.75609756097561,-78,9.57317073170732,47,-2.86585365853659,0,0,-37,-0.160869565217391,137,-0.668292682926829,
15219574,6015.625,-2800,1.71673819742489,256,0.156958920907419,-15472,9.48620478234212,-156,3.65853658536585,-60,9.51219512195122,40,-2.4390243902439,-1,0.00434782608695652,-37,-0.160869565217391,138,-0.673170731707317,
15220214,6035.15625,-2240,1.37339055793991,336,0.206008583690987,-15632,9.58430410790926,-18,2.13414634146341,-35,1.09756097560976,34,-2.07317073170732,2,-0.00869565217391304,-43,-0.18695652173913,140,-0.682926829268293,
15220854,6054.6875,-2448,1.50091968117719,144,0.088289393010423,-16256,9.96689147762109,111,2.5,-41,-6.76829268292683,26,-1.58536585365854,2,-0.00869565217391304,-41,-0.178260869565217,139,-0.678048780487805,
15221494,6074.21875,-3216,1.97179644389945,80,0.0490496627835684,-16384,10.0453709380748,16,4.08536585365854,-67,-0.975609756097561,-3,0.182926829268293,1,-0.00434782608695652,-38,-0.165217391304348,137,-0.668292682926829,
15222134,6093.75,-3680,2.25628448804414,176,0.10790925812385,-16256,9.96689147762109,-178,5.91463414634146,-97,10.8536585365854,-26,1.58536585365854,2,-0.00869565217391304,-40,-0.173913043478261,139,-0.678048780487805,
15222774,6113.28125,-3376,2.06989576946658,192,0.117719190680564,-16000,9.80993255671367,-333,6.15853658536585,-101,20.3048780487805,-35,2.13414634146341,1,-0.00434782608695652,-39,-0.169565217391304,139,-0.678048780487805,
15223414,6132.8125,-2720,1.66768853464132,304,0.18638871857756,-15856,9.72164316370325,-308,5.1219512195122,-84,18.780487804878,-23,1.40243902439024,0,0,-41,-0.178260869565217,138,-0.673170731707317,
15224054,6152.34375,-2320,1.42244022072348,464,0.284488044144696,-15728,9.64316370324954,-138,4.51219512195122,-74,8.41463414634146,-5,0.304878048780488,-1,0.00434782608695652,-37,-0.160869565217391,139,-0.678048780487805,
15224694,6171.875,-2640,1.61863887185776,560,0.343347639484979,-15600,9.56468424279583,3,3.35365853658537,-55,-0.182926829268293,7,-0.426829268292683,2,-0.00869565217391304,-40,-0.173913043478261,140,-0.682926829268293,
15225334,6191.40625,-2864,1.75597792765175,592,0.362967504598406,-15808,9.69221336603311,64,2.5609756097561,-42,-3.90243902439024,16,-0.975609756097561,-1,0.00434782608695652,-41,-0.178260869565217,138,-0.673170731707317,
15225974,6210.9375,-2752,1.68730839975475,384,0.235438381361128,-15840,9.71183323114654,68,2.19512195121951,-36,-4.14634146341463,28,-1.70731707317073,1,-0.00434782608695652,-41,-0.178260869565217,138,-0.673170731707317,
15226614,6230.46875,-2720,1.66768853464132,432,0.264868179031269,-15856,9.72164316370325,25,2.4390243902439,-40,-1.52439024390244,22,-1.34146341463415,-2,0.00869565217391304,-39,-0.169565217391304,138,-0.673170731707317,
15227254,6250,-2576,1.5793991416309,512,0.313917841814838,-15600,9.56468424279583,-66,2.13414634146341,-35,4.02439024390244,-6,0.365853658536585,-1,0.00434782608695652,-39,-0.169565217391304,139,-0.678048780487805,
15227894,6269.53125,-2128,1.30472103004292,512,0.313917841814838,-15392,9.43715511955855,-85,1.46341463414634,-24,5.18292682926829,-25,1.52439024390244,0,0,-41,-0.178260869565217,141,-0.68780487804878,
15228534,6289.0625,-1920,1.17719190680564,512,0.313917841814838,-15520,9.51563458001226,-3,-0.121951219512195,2,0.182926829268293,-27,1.64634146341463,1,-0.00434782608695652,-44,-0.191304347826087,141,-0.68780487804878,
15229174,6308.59375,-2032,1.24586143470264,416,0.255058246474555,-15600,9.56468424279583,55,-0.426829268292683,7,-3.35365853658537,-47,2.86585365853659,0,0,-44,-0.191304347826087,141,-0.68780487804878,
15229814,6328.125,-2208,1.35377069282649,272,0.166768853464132,-15632,9.58430410790926,44,-0.609756097560976,10,-2.68292682926829,-64,3.90243902439024,1,-0.00434782608695652,-44,-0.191304347826087,140,-0.682926829268293,
15230454,6347.65625,-2528,1.54996934396076,208,0.127529123237278,-15920,9.7608828939301,57,0.365853658536585,-6,-3.47560975609756,-71,4.32926829268293,1,-0.00434782608695652,-45,-0.195652173913043,140,-0.682926829268293,
15231094,6367.1875,-2720,1.66768853464132,32,0.0196198651134273,-15888,9.74126302881668,21,0.914634146341463,-15,-1.28048780487805,-78,4.75609756097561,2,-0.00869565217391304,-44,-0.191304347826087,141,-0.68780487804878,
15231734,6386.71875,-2832,1.73635806253832,-112,-0.0686695278969957,-15904,9.75107296137339,-14,1.21951219512195,-20,0.853658536585366,-93,5.67073170731707,0,0,-40,-0.173913043478261,141,-0.68780487804878,
15232374,6406.25,-3136,1.92274678111588,-96,-0.058859595340282,-15968,9.79031269160024,-20,2.07317073170732,-34,1.21951219512195,-104,6.34146341463415,0,0,-41,-0.178260869565217,140,-0.682926829268293,
15233014,6425.78125,-3376,2.06989576946658,-160,-0.0980993255671367,-16032,9.8295524218271,-26,2.31707317073171,-38,1.58536585365854,-95,5.79268292682927,-1,0.00434782608695652,-40,-0.173913043478261,140,-0.682926829268293,
15233654,6445.3125,-3504,2.14837522992029,-192,-0.117719190680564,-16288,9.98651134273452,-17,2.98780487804878,-49,1.03658536585366,-89,5.42682926829268,0,0,-37,-0.160869565217391,139,-0.678048780487805,
15234294,6464.84375,-3536,2.16799509503372,32,0.0196198651134273,-16304,9.99632127529123,19,3.35365853658537,-55,-1.15853658536585,-73,4.45121951219512,-3,0.0130434782608696,-41,-0.178260869565217,139,-0.678048780487805,
15234934,6484.375,-3792,2.32495401594114,224,0.137339055793991,-16256,9.96689147762109,39,3.23170731707317,-53,-2.37804878048781,-44,2.68292682926829,-1,0.00434782608695652,-39,-0.169565217391304,139,-0.678048780487805,
15235574,6503.90625,-3904,2.39362354383814,208,0.127529123237278,-16240,9.95708154506438,8,3.10975609756098,-51,-0.487804878048781,-31,1.89024390243902,0,0,-38,-0.165217391304348,139,-0.678048780487805,
15236214,6523.4375,-3840,2.35438381361128,144,0.088289393010423,-16256,9.96689147762109,1,3.04878048780488,-50,-0.0609756097560976,5,-0.304878048780488,1,-0.00434782608695652,-42,-0.182608695652174,139,-0.678048780487805,
15236854,6542.96875,-3808,2.33476394849785,80,0.0490496627835684,-16192,9.92765174739424,-37,3.41463414634146,-56,2.25609756097561,30,-1.82926829268293,-1,0.00434782608695652,-38,-0.165217391304348,140,-0.682926829268293,
15237494,6562.5,-3744,2.295524218271,48,0.029429797670141,-16000,9.80993255671367,-92,4.26829268292683,-70,5.60975609756098,39,-2.37804878048781,1,-0.00434782608695652,-40,-0.173913043478261,140,-0.682926829268293,
15238134,6582.03125,-3472,2.12875536480687,0,0,-16016,9.81974248927039,-160,4.39024390243902,-72,9.75609756097561,52,-3.17073170731707,-2,0.00869565217391304,-42,-0.182608695652174,140,-0.682926829268293,
15238774,6601.5625,-3120,1.91293684855917,16,0.00980993255671367,-16000,9.80993255671367,-172,5,-82,10.4878048780488,51,-3.10975609756098,1,-0.00434782608695652,-42,-0.182608695652174,140,-0.682926829268293,
15239414,6621.09375,-2800,1.71673819742489,144,0.088289393010423,-15840,9.71183323114654,-146,4.51219512195122,-74,8.90243902439025,56,-3.41463414634146,0,0,-37,-0.160869565217391,140,-0.682926829268293,
15240054,6640.625,-2704,1.65787860208461,336,0.206008583690987,-15776,9.67259350091968,-73,4.45121951219512,-73,4.45121951219512,54,-3.29268292682927,-3,0.0130434782608696,-42,-0.182608695652174,140,-0.682926829268293,
15240694,6660.15625,-2608,1.59901900674433,320,0.196198651134273,-15712,9.63335377069283,-5,3.35365853658537,-55,0.304878048780488,63,-3.84146341463415,-1,0.00434782608695652,-43,-0.18695652173913,141,-0.68780487804878,
15241334,6679.6875,-2688,1.6480686695279,352,0.215818516247701,-15776,9.67259350091968,79,2.5609756097561,-42,-4.81707317073171,74,-4.51219512195122,0,0,-40,-0.173913043478261,140,-0.682926829268293,
15241974,6699.21875,-2928,1.7952176578786,336,0.206008583690987,-15808,9.69221336603311,92,2.80487804878049,-46,-5.60975609756098,69,-4.20731707317073,-4,0.0173913043478261,-44,-0.191304347826087,141,-0.68780487804878,
15242614,6718.75,-2960,1.81483752299203,416,0.255058246474555,-15728,9.64316370324954,33,2.80487804878049,-46,-2.01219512195122,61,-3.71951219512195,-1,0.00434782608695652,-40,-0.173913043478261,140,-0.682926829268293,
15243254,6738.28125,-2832,1.73635806253832,336,0.206008583690987,-15824,9.70202329858982,30,2.68292682926829,-44,-1.82926829268293,59,-3.59756097560976,0,0,-41,-0.178260869565217,141,-0.68780487804878,
15243894,6757.8125,-2640,1.61863887185776,304,0.18638871857756,-15840,9.71183323114654,89,2.31707317073171,-38,-5.42682926829268,72,-4.39024390243902,1,-0.00434782608695652,-42,-0.182608695652174,140,-0.682926829268293,
15244534,6777.34375,-2880,1.76578786020846,288,0.176578786020846,-15968,9.79031269160024,148,1.82926829268293,-30,-9.02439024390244,95,-5.79268292682927,-2,0.00869565217391304,-37,-0.160869565217391,139,-0.678048780487805,
15245174,6796.875,-3056,1.87369711833231,288,0.176578786020846,-16144,9.89822194972409,122,1.46341463414634,-24,-7.4390243902439,103,-6.28048780487805,-2,0.00869565217391304,-41,-0.178260869565217,139,-0.678048780487805,
15245814,6816.40625,-3296,2.02084610668302,224,0.137339055793991,-16208,9.93746167995095,48,2.68292682926829,-44,-2.92682926829268,97,-5.91463414634146,-1,0.00434782608695652,-40,-0.173913043478261,139,-0.678048780487805,
15246454,6835.9375,-3072,1.88350705088903,208,0.127529123237278,-16224,9.94727161250766,-45,3.53658536585366,-58,2.74390243902439,78,-4.75609756097561,1,-0.00434782608695652,-39,-0.169565217391304,139,-0.678048780487805,
15247094,6855.46875,-2656,1.62844880441447,320,0.196198651134273,-16016,9.81974248927039,-82,5,-82,5,44,-2.68292682926829,-1,0.00434782608695652,-41,-0.178260869565217,138,-0.673170731707317,
15247734,6875,-2528,1.54996934396076,320,0.196198651134273,-16032,9.8295524218271,-26,5.0609756097561,-83,1.58536585365854,31,-1.89024390243902,-1,0.00434782608695652,-41,-0.178260869565217,140,-0.682926829268293,
15248374,6894.53125,-2592,1.58920907418761,320,0.196198651134273,-16256,9.96689147762109,63,4.39024390243902,-72,-3.84146341463415,29,-1.76829268292683,-1,0.00434782608695652,-37,-0.160869565217391,140,-0.682926829268293,
15249014,6914.0625,-2864,1.75597792765175,448,0.274678111587983,-16400,10.0551808706315,160,3.84146341463415,-63,-9.75609756097561,45,-2.74390243902439,0,0,-43,-0.18695652173913,139,-0.678048780487805,
15249654,6933.59375,-3216,1.97179644389945,272,0.166768853464132,-16480,10.1042305334151,146,4.26829268292683,-70,-8.90243902439025,49,-2.98780487804878,0,0,-45,-0.195652173913043,141,-0.68780487804878,
15250294,6953.125,-3328,2.04046597179644,240,0.147148988350705,-16592,10.1729000613121,49,5.54878048780488,-91,-2.98780487804878,42,-2.5609756097561,-1,0.00434782608695652,-39,-0.169565217391304,139,-0.678048780487805,
15250934,6972.65625,-3248,1.99141630901288,288,0.176578786020846,-16400,10.0551808706315,-32,8.29268292682927,-136,1.95121951219512,16,-0.975609756097561,1,-0.00434782608695652,-42,-0.182608695652174,139,-0.678048780487805,
15251574,6992.1875,-2912,1.78540772532189,224,0.137339055793991,-16240,9.95708154506438,-71,9.63414634146342,-158,4.32926829268293,-14,0.853658536585366,0,0,-42,-0.182608695652174,139,-0.678048780487805,
15252214,7011.71875,-2624,1.60882893930104,176,0.10790925812385,-16128,9.88841201716738,-31,9.69512195121951,-159,1.89024390243902,-4,0.24390243902439,1,-0.00434782608695652,-40,-0.173913043478261,140,-0.682926829268293,
15252854,7031.25,-2656,1.62844880441447,256,0.156958920907419,-16208,9.93746167995095,69,8.96341463414634,-147,-4.20731707317073,5,-0.304878048780488,2,-0.00869565217391304,-46,-0.2,140,-0.682926829268293,
15253494,7050.78125,-2912,1.78540772532189,224,0.137339055793991,-16304,9.99632127529123,98,8.96341463414634,-147,-5.97560975609756,6,-0.365853658536585,2,-0.00869565217391304,-47,-0.204347826086957,141,-0.68780487804878,
15254134,7070.3125,-2960,1.81483752299203,304,0.18638871857756,-16128,9.88841201716738,45,10.2439024390244,-168,-2.74390243902439,-24,1.46341463414634,1,-0.00434782608695652,-44,-0.191304347826087,140,-0.682926829268293,
15254774,7089.84375,-2848,1.74616799509503,464,0.284488044144696,-15776,9.67259350091968,-26,11.5243902439024,-189,1.58536585365854,-46,2.80487804878049,0,0,-41,-0.178260869565217,138,-0.673170731707317,
15255414,7109.375,-2688,1.6480686695279,576,0.353157572041692,-15520,9.51563458001226,-75,11.7073170731707,-192,4.57317073170732,-57,3.47560975609756,2,-0.00869565217391304,-41,-0.178260869565217,138,-0.673170731707317,
15256054,7128.90625,-2544,1.55977927651747,608,0.37277743715512,-15440,9.46658491722869,-132,11.4024390243902,-187,8.04878048780488,-69,4.20731707317073,2,-0.00869565217391304,-42,-0.182608695652174,139,-0.678048780487805,
15256694,7148.4375,-2416,1.48129981606376,768,0.470876762722256,-15520,9.51563458001226,-136,10.8536585365854,-178,8.29268292682927,-74,4.51219512195122,0,0,-42,-0.182608695652174,139,-0.678048780487805,
15257334,7167.96875,-2400,1.47148988350705,784,0.48068669527897,-15360,9.41753525444513,-121,9.9390243902439,-163,7.37804878048781,-81,4.9390243902439,-2,0.00869565217391304,-44,-0.191304347826087,139,-0.678048780487805,
15257974,7187.5,-2480,1.52053954629062,800,0.490496627835684,-15360,9.41753525444513,-105,8.90243902439025,-146,6.40243902439024,-88,5.36585365853659,0,0,-43,-0.18695652173913,138,-0.673170731707317,
15258614,7207.03125,-2464,1.51072961373391,816,0.500306560392397,-15264,9.35867565910484,-109,8.17073170731707,-134,6.64634146341464,-90,5.48780487804878,0,0,-46,-0.2,142,-0.692682926829268,
15259254,7226.5625,-2480,1.52053954629062,816,0.500306560392397,-15440,9.46658491722869,-134,7.80487804878049,-128,8.17073170731707,-98,5.97560975609756,2,-0.00869565217391304,-46,-0.2,141,-0.68780487804878,
15259894,7246.09375,-2560,1.56958920907419,800,0.490496627835684,-15344,9.40772532188841,-157,8.04878048780488,-132,9.57317073170732,-107,6.52439024390244,0,0,-44,-0.191304347826087,141,-0.68780487804878,
15260534,7265.625,-2512,1.54015941140405,848,0.519926425505825,-15440,9.46658491722869,-219,7.6219512195122,-125,13.3536585365854,-121,7.37804878048781,0,0,-42,-0.182608695652174,139,-0.678048780487805,
15261174,7285.15625,-2416,1.48129981606376,1072,0.657265481299816,-15584,9.55487431023912,-250,6.64634146341464,-109,15.2439024390244,-128,7.80487804878049,-1,0.00434782608695652,-41,-0.178260869565217,142,-0.692682926829268,
15261814,7304.6875,-2160,1.32434089515635,1184,0.725935009196812,-15632,9.58430410790926,-206,4.75609756097561,-78,12.5609756097561,-103,6.28048780487805,-2,0.00869565217391304,-47,-0.204347826086957,141,-0.68780487804878,
15262454,7324.21875,-2224,1.3635806253832,1232,0.755364806866953,-15712,9.63335377069283,-86,2.80487804878049,-46,5.24390243902439,-60,3.65853658536585,-3,0.0130434782608696,-41,-0.178260869565217,141,-0.68780487804878,
15263094,7343.75,-2496,1.53034947884733,1104,0.676885346413243,-15856,9.72164316370325,-5,1.28048780487805,-21,0.304878048780488,-11,0.670731707317073,-1,0.00434782608695652,-44,-0.191304347826087,142,-0.692682926829268,
15263734,7363.28125,-2704,1.65787860208461,848,0.519926425505825,-15792,9.6824034334764,-52,0.24390243902439,-4,3.17073170731707,20,-1.21951219512195,-3,0.0130434782608696,-44,-0.191304347826087,141,-0.68780487804878,
15264374,7382.8125,-2592,1.58920907418761,832,0.510116492949111,-15680,9.6137339055794,-174,-0.182926829268293,3,10.609756097561,33,-2.01219512195122,-3,0.0130434782608696,-40,-0.173913043478261,141,-0.68780487804878,
15265014,7402.34375,-2240,1.37339055793991,752,0.461066830165543,-15648,9.59411404046597,-277,-0.792682926829268,13,16.890243902439,33,-2.01219512195122,-1,0.00434782608695652,-47,-0.204347826086957,145,-0.707317073170732,
15265654,7421.875,-1776,1.08890251379522,656,0.402207234825261,-15536,9.52544451256898,-265,-2.25609756097561,37,16.1585365853659,43,-2.6219512195122,-3,0.0130434782608696,-42,-0.182608695652174,141,-0.68780487804878,
15266294,7441.40625,-1776,1.08890251379522,480,0.29429797670141,-15616,9.57449417535254,-152,-4.32926829268293,71,9.26829268292683,61,-3.71951219512195,-3,0.0130434782608696,-38,-0.165217391304348,143,-0.697560975609756,
15266934,7460.9375,-2080,1.27529123237278,384,0.235438381361128,-15744,9.65297363580625,-27,-4.45121951219512,73,1.64634146341463,54,-3.29268292682927,-3,0.0130434782608696,-46,-0.2,146,-0.712195121951219,
15267574,7480.46875,-2352,1.44206008583691,368,0.225628448804414,-15776,9.67259350091968,7,-3.29268292682927,54,-0.426829268292683,32,-1.95121951219512,-4,0.0173913043478261,-45,-0.195652173913043,143,-0.697560975609756,
15268214,7500,-2304,1.41263028816677,320,0.196198651134273,-15920,9.7608828939301,-9,-1.95121951219512,32,0.548780487804878,-4,0.24390243902439,-3,0.0130434782608696,-40,-0.173913043478261,143,-0.697560975609756,
15268854,7519.53125,-2224,1.3635806253832,304,0.18638871857756,-16016,9.81974248927039,-9,-1.09756097560976,18,0.548780487804878,-20,1.21951219512195,-4,0.0173913043478261,-45,-0.195652173913043,144,-0.702439024390244,
15269494,7539.0625,-2320,1.42244022072348,304,0.18638871857756,-16160,9.90803188228081,28,-1.03658536585366,17,-1.70731707317073,-23,1.40243902439024,-4,0.0173913043478261,-45,-0.195652173913043,142,-0.692682926829268,
15270134,7558.59375,-2416,1.48129981606376,336,0.206008583690987,-16096,9.86879215205395,50,-1.28048780487805,21,-3.04878048780488,-8,0.487804878048781,-2,0.00869565217391304,-43,-0.18695652173913,145,-0.707317073170732,
15270774,7578.125,-2448,1.50091968117719,352,0.215818516247701,-16112,9.87860208461067,42,-1.28048780487805,21,-2.5609756097561,2,-0.121951219512195,-6,0.0260869565217391,-40,-0.173913043478261,143,-0.697560975609756,
15271414,7597.65625,-2448,1.50091968117719,224,0.137339055793991,-16128,9.88841201716738,20,-1.34146341463415,22,-1.21951219512195,13,-0.792682926829268,-2,0.00869565217391304,-46,-0.2,144,-0.702439024390244,
15272054,7617.1875,-2528,1.54996934396076,384,0.235438381361128,-16208,9.93746167995095,10,-1.76829268292683,29,-0.609756097560976,32,-1.95121951219512,-4,0.0173913043478261,-41,-0.178260869565217,144,-0.702439024390244,
15272694,7636.71875,-2560,1.56958920907419,384,0.235438381361128,-16272,9.9767014101778,-20,-0.975609756097561,16,1.21951219512195,48,-2.92682926829268,-4,0.0173913043478261,-43,-0.18695652173913,146,-0.712195121951219,
15273334,7656.25,-2544,1.55977927651747,224,0.137339055793991,-16336,10.0159411404047,-43,-0.304878048780488,5,2.6219512195122,44,-2.68292682926829,-2,0.00869565217391304,-43,-0.18695652173913,143,-0.697560975609756,
15273974,7675.78125,-2368,1.45187001839362,272,0.166768853464132,-16336,10.0159411404047,-41,0,0,2.5,46,-2.80487804878049,-3,0.0130434782608696,-44,-0.191304347826087,144,-0.702439024390244,
15274614,7695.3125,-2192,1.34396076026977,304,0.18638871857756,-16384,10.0453709380748,-8,0.0609756097560976,-1,0.487804878048781,58,-3.53658536585366,-3,0.0130434782608696,-43,-0.18695652173913,143,-0.697560975609756,
15275254,7714.84375,-2176,1.33415082771306,336,0.206008583690987,-16352,10.0257510729614,21,-0.24390243902439,4,-1.28048780487805,69,-4.20731707317073,-4,0.0173913043478261,-39,-0.169565217391304,142,-0.692682926829268,
15275894,7734.375,-2032,1.24586143470264,352,0.215818516247701,-16272,9.9767014101778,65,-0.670731707317073,11,-3.96341463414634,83,-5.0609756097561,-2,0.00869565217391304,-39,-0.169565217391304,142,-0.692682926829268,
15276534,7753.90625,-2080,1.27529123237278,272,0.166768853464132,-16304,9.99632127529123,99,-1.21951219512195,20,-6.03658536585366,86,-5.24390243902439,-4,0.0173913043478261,-41,-0.178260869565217,143,-0.697560975609756,
15277174,7773.4375,-2208,1.35377069282649,224,0.137339055793991,-16368,10.0355610055181,83,-0.792682926829268,13,-5.0609756097561,80,-4.87804878048781,-1,0.00434782608695652,-43,-0.18695652173913,143,-0.697560975609756,
15277814,7792.96875,-2320,1.42244022072348,128,0.0784794604537094,-16352,10.0257510729614,35,0.609756097560976,-10,-2.13414634146341,67,-4.08536585365854,-4,0.0173913043478261,-43,-0.18695652173913,142,-0.692682926829268,
15278454,7812.5,-2288,1.40282035561006,192,0.117719190680564,-16240,9.95708154506438,4,1.89024390243902,-31,-0.24390243902439,47,-2.86585365853659,-3,0.0130434782608696,-46,-0.2,145,-0.707317073170732,
15279094,7832.03125,-2256,1.38320049049663,240,0.147148988350705,-16176,9.91784181483752,-28,2.74390243902439,-45,1.70731707317073,37,-2.25609756097561,-6,0.0260869565217391,-39,-0.169565217391304,142,-0.692682926829268,
15279734,7851.5625,-2048,1.25567136725935,272,0.166768853464132,-16192,9.92765174739424,-19,3.17073170731707,-52,1.15853658536585,32,-1.95121951219512,-5,0.0217391304347826,-40,-0.173913043478261,143,-0.697560975609756,
15280374,7871.09375,-2032,1.24586143470264,304,0.18638871857756,-16160,9.90803188228081,18,2.92682926829268,-48,-1.09756097560976,39,-2.37804878048781,-3,0.0130434782608696,-41,-0.178260869565217,143,-0.697560975609756,
15281014,7890.625,-2176,1.33415082771306,304,0.18638871857756,-16176,9.91784181483752,28,2.74390243902439,-45,-1.70731707317073,46,-2.80487804878049,-4,0.0173913043478261,-41,-0.178260869565217,144,-0.702439024390244,
15281654,7910.15625,-2256,1.38320049049663,336,0.206008583690987,-16112,9.87860208461067,-1,2.6219512195122,-43,0.0609756097560976,50,-3.04878048780488,-4,0.0173913043478261,-41,-0.178260869565217,141,-0.68780487804878,
15282294,7929.6875,-2240,1.37339055793991,384,0.235438381361128,-16048,9.83936235438381,-20,2.37804878048781,-39,1.21951219512195,46,-2.80487804878049,-4,0.0173913043478261,-37,-0.160869565217391,142,-0.692682926829268,
15282934,7949.21875,-2240,1.37339055793991,352,0.215818516247701,-15968,9.79031269160024,-31,2.37804878048781,-39,1.89024390243902,52,-3.17073170731707,-4,0.0173913043478261,-41,-0.178260869565217,144,-0.702439024390244,
15283574,7968.75,-2048,1.25567136725935,336,0.206008583690987,-15968,9.79031269160024,-25,2.37804878048781,-39,1.52439024390244,53,-3.23170731707317,-3,0.0130434782608696,-43,-0.18695652173913,143,-0.697560975609756,
15284214,7988.28125,-2096,1.28510116492949,368,0.225628448804414,-16016,9.81974248927039,-14,2.25609756097561,-37,0.853658536585366,57,-3.47560975609756,-4,0.0173913043478261,-39,-0.169565217391304,142,-0.692682926829268,
15284854,8007.8125,-2064,1.26548129981606,336,0.206008583690987,-15984,9.80012262415696,-18,2.25609756097561,-37,1.09756097560976,55,-3.35365853658537,-3,0.0130434782608696,-44,-0.191304347826087,144,-0.702439024390244,
15285494,8027.34375,-1952,1.19681177191907,320,0.196198651134273,-16048,9.83936235438381,-23,2.19512195121951,-36,1.40243902439024,42,-2.5609756097561,-2,0.00869565217391304,-43,-0.18695652173913,141,-0.68780487804878,
15286134,8046.875,-1792,1.09871244635193,320,0.196198651134273,-15920,9.7608828939301,-14,2.13414634146341,-35,0.853658536585366,35,-2.13414634146341,-3,0.0130434782608696,-43,-0.18695652173913,143,-0.697560975609756,
15286774,8066.40625,-1792,1.09871244635193,320,0.196198651134273,-15920,9.7608828939301,5,2.19512195121951,-36,-0.304878048780488,23,-1.40243902439024,-3,0.0130434782608696,-45,-0.195652173913043,143,-0.697560975609756,
15287414,8085.9375,-1904,1.16738197424893,288,0.176578786020846,-15920,9.7608828939301,-12,2.5609756097561,-42,0.731707317073171,7,-0.426829268292683,-3,0.0130434782608696,-44,-0.191304347826087,143,-0.697560975609756,
15288054,8105.46875,-1840,1.12814224402207,384,0.235438381361128,-15920,9.7608828939301,-28,2.80487804878049,-46,1.70731707317073,-9,0.548780487804878,-6,0.0260869565217391,-39,-0.169565217391304,143,-0.697560975609756,
15288694,8125,-1824,1.11833231146536,368,0.225628448804414,-16064,9.84917228694053,-7,2.80487804878049,-46,0.426829268292683,-17,1.03658536585366,-2,0.00869565217391304,-45,-0.195652173913043,143,-0.697560975609756,
15289334,8144.53125,-1824,1.11833231146536,416,0.255058246474555,-16112,9.87860208461067,14,2.68292682926829,-44,-0.853658536585366,-21,1.28048780487805,-4,0.0173913043478261,-44,-0.191304347826087,143,-0.697560975609756,
15289974,8164.0625,-1920,1.17719190680564,384,0.235438381361128,-16112,9.87860208461067,15,2.6219512195122,-43,-0.914634146341463,-21,1.28048780487805,-2,0.00869565217391304,-41,-0.178260869565217,144,-0.702439024390244,
15290614,8183.59375,-1952,1.19681177191907,416,0.255058246474555,-16000,9.80993255671367,-1,2.4390243902439,-40,0.0609756097560976,-30,1.82926829268293,-6,0.0260869565217391,-41,-0.178260869565217,142,-0.692682926829268,
15291254,8203.125,-1968,1.20662170447578,432,0.264868179031269,-16064,9.84917228694053,-15,2.86585365853659,-47,0.914634146341463,-39,2.37804878048781,-1,0.00434782608695652,-47,-0.204347826086957,143,-0.697560975609756,
15291894,8222.65625,-1872,1.1477621091355,432,0.264868179031269,-16080,9.85898221949724,-17,2.5609756097561,-42,1.03658536585366,-44,2.68292682926829,-4,0.0173913043478261,-42,-0.182608695652174,144,-0.702439024390244,
15292534,8242.1875,-1824,1.11833231146536,384,0.235438381361128,-16176,9.91784181483752,20,2.86585365853659,-47,-1.21951219512195,-48,2.92682926829268,-4,0.0173913043478261,-42,-0.182608695652174,144,-0.702439024390244,
15293174,8261.71875,-1920,1.17719190680564,368,0.225628448804414,-16144,9.89822194972409,36,3.04878048780488,-50,-2.19512195121951,-51,3.10975609756098,-3,0.0130434782608696,-39,-0.169565217391304,142,-0.692682926829268,
15293814,8281.25,-2064,1.26548129981606,400,0.245248313917842,-16096,9.86879215205395,27,3.23170731707317,-53,-1.64634146341463,-59,3.59756097560976,-3,0.0130434782608696,-42,-0.182608695652174,144,-0.702439024390244,
15294454,8300.78125,-2032,1.24586143470264,368,0.225628448804414,-16112,9.87860208461067,16,3.47560975609756,-57,-0.975609756097561,-62,3.78048780487805,-4,0.0173913043478261,-40,-0.173913043478261,142,-0.692682926829268,
15295094,8320.3125,-2144,1.31453096259963,384,0.235438381361128,-16064,9.84917228694053,15,3.47560975609756,-57,-0.914634146341463,-63,3.84146341463415,-4,0.0173913043478261,-41,-0.178260869565217,143,-0.697560975609756,
15295734,8339.84375,-2192,1.34396076026977,304,0.18638871857756,-16112,9.87860208461067,13,3.41463414634146,-56,-0.792682926829268,-60,3.65853658536585,-3,0.0130434782608696,-39,-0.169565217391304,140,-0.682926829268293,
15296374,8359.375,-2256,1.38320049049663,400,0.245248313917842,-16080,9.85898221949724,13,3.17073170731707,-52,-0.792682926829268,-55,3.35365853658537,-2,0.00869565217391304,-39,-0.169565217391304,142,-0.692682926829268,
15297014,8378.90625,-2240,1.37339055793991,416,0.255058246474555,-16016,9.81974248927039,2,3.23170731707317,-53,-0.121951219512195,-51,3.10975609756098,-4,0.0173913043478261,-41,-0.178260869565217,143,-0.697560975609756,
15297654,8398.4375,-2208,1.35377069282649,352,0.215818516247701,-16000,9.80993255671367,-8,3.65853658536585,-60,0.487804878048781,-56,3.41463414634146,-3,0.0130434782608696,-44,-0.191304347826087,143,-0.697560975609756,
15298294,8417.96875,-2256,1.38320049049663,352,0.215818516247701,-15856,9.72164316370325,-16,3.29268292682927,-54,0.975609756097561,-57,3.47560975609756,-2,0.00869565217391304,-45,-0.195652173913043,144,-0.702439024390244,
15298934,8437.5,-2144,1.31453096259963,320,0.196198651134273,-15888,9.74126302881668,12,3.47560975609756,-57,-0.731707317073171,-60,3.65853658536585,-3,0.0130434782608696,-43,-0.18695652173913,143,-0.697560975609756,
15299574,8457.03125,-2096,1.28510116492949,368,0.225628448804414,-15856,9.72164316370325,38,2.31707317073171,-38,-2.31707317073171,-57,3.47560975609756,-5,0.0217391304347826,-40,-0.173913043478261,142,-0.692682926829268,
15300214,8476.5625,-2160,1.32434089515635,288,0.176578786020846,-15856,9.72164316370325,50,1.89024390243902,-31,-3.04878048780488,-51,3.10975609756098,-2,0.00869565217391304,-41,-0.178260869565217,141,-0.68780487804878,
15300854,8496.09375,-2352,1.44206008583691,304,0.18638871857756,-15872,9.73145309625996,24,1.70731707317073,-28,-1.46341463414634,-47,2.86585365853659,-5,0.0217391304347826,-40,-0.173913043478261,141,-0.68780487804878,
15301494,8515.625,-2304,1.41263028816677,288,0.176578786020846,-15872,9.73145309625996,-6,1.95121951219512,-32,0.365853658536585,-51,3.10975609756098,-6,0.0260869565217391,-40,-0.173913043478261,142,-0.692682926829268,
15302134,8535.15625,-2208,1.35377069282649,272,0.166768853464132,-15968,9.79031269160024,-22,2.5,-41,1.34146341463415,-62,3.78048780487805,-2,0.00869565217391304,-42,-0.182608695652174,141,-0.68780487804878,
15302774,8554.6875,-1984,1.2164316370325,176,0.10790925812385,-16080,9.85898221949724,1,2.74390243902439,-45,-0.0609756097560976,-71,4.32926829268293,-2,0.00869565217391304,-45,-0.195652173913043,144,-0.702439024390244,
15303414,8574.21875,-2064,1.26548129981606,256,0.156958920907419,-16000,9.80993255671367,30,2.68292682926829,-44,-1.82926829268293,-77,4.69512195121951,-6,0.0260869565217391,-38,-0.165217391304348,142,-0.692682926829268,
15304054,8593.75,-2160,1.32434089515635,80,0.0490496627835684,-16112,9.87860208461067,20,3.17073170731707,-52,-1.21951219512195,-83,5.0609756097561,-2,0.00869565217391304,-42,-0.182608695652174,142,-0.692682926829268,
15304694,8613.28125,-2208,1.35377069282649,112,0.0686695278969957,-16144,9.89822194972409,-5,3.41463414634146,-56,0.304878048780488,-94,5.73170731707317,-3,0.0130434782608696,-40,-0.173913043478261,144,-0.702439024390244,
15305334,8632.8125,-2176,1.33415082771306,128,0.0784794604537094,-16224,9.94727161250766,-8,3.84146341463415,-63,0.487804878048781,-101,6.15853658536585,-3,0.0130434782608696,-43,-0.18695652173913,143,-0.697560975609756,
15305974,8652.34375,-2208,1.35377069282649,176,0.10790925812385,-16208,9.93746167995095,1,4.26829268292683,-70,-0.0609756097560976,-105,6.40243902439024,-3,0.0130434782608696,-40,-0.173913043478261,141,-0.68780487804878,
15306614,8671.875,-2240,1.37339055793991,176,0.10790925812385,-16192,9.92765174739424,17,4.63414634146342,-76,-1.03658536585366,-105,6.40243902439024,-4,0.0173913043478261,-36,-0.156521739130435,141,-0.68780487804878,
15307254,8691.40625,-2304,1.41263028816677,160,0.0980993255671367,-16144,9.89822194972409,19,5.1219512195122,-84,-1.15853658536585,-105,6.40243902439024,-4,0.0173913043478261,-36,-0.156521739130435,142,-0.692682926829268,
15307894,8710.9375,-2432,1.49110974862048,144,0.088289393010423,-16096,9.86879215205395,15,5.36585365853659,-88,-0.914634146341463,-109,6.64634146341464,-5,0.0217391304347826,-42,-0.182608695652174,143,-0.697560975609756,
15308534,8730.46875,-2592,1.58920907418761,208,0.127529123237278,-16160,9.90803188228081,3,6.03658536585366,-99,-0.182926829268293,-107,6.52439024390244,-2,0.00869565217391304,-38,-0.165217391304348,140,-0.682926829268293,
15309174,8750,-2480,1.52053954629062,272,0.166768853464132,-16128,9.88841201716738,9,5.54878048780488,-91,-0.548780487804878,-100,6.09756097560976,-2,0.00869565217391304,-39,-0.169565217391304,141,-0.68780487804878,
15309814,8769.53125,-2528,1.54996934396076,176,0.10790925812385,-16080,9.85898221949724,38,5.1219512195122,-84,-2.31707317073171,-82,5,-1,0.00434782608695652,-39,-0.169565217391304,142,-0.692682926829268,
15310454,8789.0625,-2560,1.56958920907419,224,0.137339055793991,-16000,9.80993255671367,35,4.51219512195122,-74,-2.13414634146341,-65,3.96341463414634,-1,0.00434782608695652,-37,-0.160869565217391,142,-0.692682926829268,
15311094,8808.59375,-2560,1.56958920907419,240,0.147148988350705,-15888,9.74126302881668,27,3.78048780487805,-62,-1.64634146341463,-50,3.04878048780488,-1,0.00434782608695652,-43,-0.18695652173913,143,-0.697560975609756,
15311734,8828.125,-2688,1.6480686695279,272,0.166768853464132,-15840,9.71183323114654,3,3.17073170731707,-52,-0.182926829268293,-38,2.31707317073171,-5,0.0217391304347826,-37,-0.160869565217391,141,-0.68780487804878,
15312374,8847.65625,-2576,1.5793991416309,208,0.127529123237278,-15856,9.72164316370325,-19,2.92682926829268,-48,1.15853658536585,-33,2.01219512195122,-3,0.0130434782608696,-40,-0.173913043478261,143,-0.697560975609756,
15313014,8867.1875,-2480,1.52053954629062,224,0.137339055793991,-15824,9.70202329858982,-20,2.74390243902439,-45,1.21951219512195,-27,1.64634146341463,-1,0.00434782608695652,-41,-0.178260869565217,142,-0.692682926829268,
15313654,8886.71875,-2496,1.53034947884733,208,0.127529123237278,-15904,9.75107296137339,-26,2.74390243902439,-45,1.58536585365854,-30,1.82926829268293,-1,0.00434782608695652,-42,-0.182608695652174,142,-0.692682926829268,
15314294,8906.25,-2368,1.45187001839362,320,0.196198651134273,-15840,9.71183323114654,-13,2.80487804878049,-46,0.792682926829268,-37,2.25609756097561,-1,0.00434782608695652,-41,-0.178260869565217,142,-0.692682926829268,
15314934,8925.78125,-2240,1.37339055793991,304,0.18638871857756,-15968,9.79031269160024,30,2.5609756097561,-42,-1.82926829268293,-34,2.07317073170732,-2,0.00869565217391304,-40,-0.173913043478261,141,-0.68780487804878,
15315574,8945.3125,-2416,1.48129981606376,288,0.176578786020846,-16080,9.85898221949724,57,2.25609756097561,-37,-3.47560975609756,-31,1.89024390243902,-2,0.00869565217391304,-37,-0.160869565217391,141,-0.68780487804878,
15316214,8964.84375,-2512,1.54015941140405,288,0.176578786020846,-16032,9.8295524218271,32,2.5,-41,-1.95121951219512,-25,1.52439024390244,-4,0.0173913043478261,-40,-0.173913043478261,144,-0.702439024390244,
15316854,8984.375,-2400,1.47148988350705,160,0.0980993255671367,-16032,9.8295524218271,16,2.6219512195122,-43,-0.975609756097561,-27,1.64634146341463,-3,0.0130434782608696,-35,-0.152173913043478,140,-0.682926829268293,
15317494,9003.90625,-2544,1.55977927651747,192,0.117719190680564,-16064,9.84917228694053,-12,2.74390243902439,-45,0.731707317073171,-26,1.58536585365854,0,0,-42,-0.182608695652174,142,-0.692682926829268,
15318134,9023.4375,-2448,1.50091968117719,224,0.137339055793991,-16112,9.87860208461067,-24,2.5609756097561,-42,1.46341463414634,-24,1.46341463414634,-2,0.00869565217391304,-44,-0.191304347826087,142,-0.692682926829268,
15318774,9042.96875,-2368,1.45187001839362,272,0.166768853464132,-16144,9.89822194972409,-3,2.19512195121951,-36,0.182926829268293,-10,0.609756097560976,-4,0.0173913043478261,-41,-0.178260869565217,142,-0.692682926829268,
15319414,9062.5,-2416,1.48129981606376,96,0.058859595340282,-16176,9.91784181483752,16,2.31707317073171,-38,-0.975609756097561,-10,0.609756097560976,-4,0.0173913043478261,-33,-0.143478260869565,140,-0.682926829268293,
15320054,9082.03125,-2432,1.49110974862048,192,0.117719190680564,-16224,9.94727161250766,-1,3.10975609756098,-51,0.0609756097560976,-17,1.03658536585366,-1,0.00434782608695652,-39,-0.169565217391304,140,-0.682926829268293,
15320694,9101.5625,-2288,1.40282035561006,240,0.147148988350705,-16224,9.94727161250766,-17,3.53658536585366,-58,1.03658536585366,-20,1.21951219512195,-1,0.00434782608695652,-39,-0.169565217391304,143,-0.697560975609756,
15321334,9121.09375,-2448,1.50091968117719,256,0.156958920907419,-16176,9.91784181483752,-9,3.65853658536585,-60,0.548780487804878,-21,1.28048780487805,-1,0.00434782608695652,-39,-0.169565217391304,143,-0.697560975609756,
15321974,9140.625,-2320,1.42244022072348,160,0.0980993255671367,-16224,9.94727161250766,-24,4.14634146341463,-68,1.46341463414634,-21,1.28048780487805,-2,0.00869565217391304,-37,-0.160869565217391,143,-0.697560975609756,
15322614,9160.15625,-2240,1.37339055793991,272,0.166768853464132,-16064,9.84917228694053,-36,4.57317073170732,-75,2.19512195121951,-26,1.58536585365854,-1,0.00434782608695652,-43,-0.18695652173913,144,-0.702439024390244,
15323254,9179.6875,-2176,1.33415082771306,320,0.196198651134273,-15888,9.74126302881668,-28,4.32926829268293,-71,1.70731707317073,-30,1.82926829268293,-3,0.0130434782608696,-38,-0.165217391304348,142,-0.692682926829268,
15323894,9199.21875,-2176,1.33415082771306,256,0.156958920907419,-15824,9.70202329858982,-11,3.84146341463415,-63,0.670731707317073,-33,2.01219512195122,-1,0.00434782608695652,-39,-0.169565217391304,142,-0.692682926829268,
15324534,9218.75,-2144,1.31453096259963,240,0.147148988350705,-15792,9.6824034334764,0,3.41463414634146,-56,0,-44,2.68292682926829,-3,0.0130434782608696,-42,-0.182608695652174,143,-0.697560975609756,
15325174,9238.28125,-2176,1.33415082771306,320,0.196198651134273,-15776,9.67259350091968,5,2.74390243902439,-45,-0.304878048780488,-52,3.17073170731707,-2,0.00869565217391304,-42,-0.182608695652174,143,-0.697560975609756,
15325814,9257.8125,-2144,1.31453096259963,256,0.156958920907419,-15808,9.69221336603311,8,3.10975609756098,-51,-0.487804878048781,-53,3.23170731707317,-1,0.00434782608695652,-41,-0.178260869565217,143,-0.697560975609756,
15326454,9277.34375,-2208,1.35377069282649,272,0.166768853464132,-15904,9.75107296137339,17,3.10975609756098,-51,-1.03658536585366,-60,3.65853658536585,-1,0.00434782608695652,-42,-0.182608695652174,142,-0.692682926829268,
15327094,9296.875,-2224,1.3635806253832,288,0.176578786020846,-15808,9.69221336603311,-12,3.04878048780488,-50,0.731707317073171,-62,3.78048780487805,-2,0.00869565217391304,-43,-0.18695652173913,143,-0.697560975609756,
15327734,9316.40625,-2304,1.41263028816677,256,0.156958920907419,-15952,9.78050275904353,-3,3.17073170731707,-52,0.182926829268293,-67,4.08536585365854,-1,0.00434782608695652,-38,-0.165217391304348,143,-0.697560975609756,
15328374,9335.9375,-2336,1.4322501532802,224,0.137339055793991,-16112,9.87860208461067,14,2.98780487804878,-49,-0.853658536585366,-58,3.53658536585366,-1,0.00434782608695652,-43,-0.18695652173913,143,-0.697560975609756,
15329014,9355.46875,-2384,1.46167995095034,240,0.147148988350705,-16112,9.87860208461067,24,2.80487804878049,-46,-1.46341463414634,-58,3.53658536585366,-2,0.00869565217391304,-38,-0.165217391304348,141,-0.68780487804878,
15329654,9375,-2400,1.47148988350705,320,0.196198651134273,-16416,10.0649908031882,29,2.98780487804878,-49,-1.76829268292683,-48,2.92682926829268,-3,0.0130434782608696,-38,-0.165217391304348,143,-0.697560975609756,
15330294,9394.53125,-2416,1.48129981606376,272,0.166768853464132,-16272,9.9767014101778,14,3.23170731707317,-53,-0.853658536585366,-43,2.6219512195122,-3,0.0130434782608696,-38,-0.165217391304348,142,-0.692682926829268,
15330934,9414.0625,-2384,1.46167995095034,272,0.166768853464132,-16192,9.92765174739424,12,3.65853658536585,-60,-0.731707317073171,-44,2.68292682926829,-1,0.00434782608695652,-42,-0.182608695652174,144,-0.702439024390244,
15331574,9433.59375,-2400,1.47148988350705,304,0.18638871857756,-16144,9.89822194972409,15,3.78048780487805,-62,-0.914634146341463,-35,2.13414634146341,0,0,-43,-0.18695652173913,143,-0.697560975609756,
15332214,9453.125,-2400,1.47148988350705,240,0.147148988350705,-16224,9.94727161250766,9,4.08536585365854,-67,-0.548780487804878,-32,1.95121951219512,-2,0.00869565217391304,-38,-0.165217391304348,142,-0.692682926829268,
15332854,9472.65625,-2480,1.52053954629062,240,0.147148988350705,-16304,9.99632127529123,-8,4.75609756097561,-78,0.487804878048781,-39,2.37804878048781,-3,0.0130434782608696,-39,-0.169565217391304,142,-0.692682926829268,
15333494,9492.1875,-2320,1.42244022072348,208,0.127529123237278,-16336,10.0159411404047,-14,5.54878048780488,-91,0.853658536585366,-46,2.80487804878049,-4,0.0173913043478261,-42,-0.182608695652174,144,-0.702439024390244,
15334134,9511.71875,-2192,1.34396076026977,224,0.137339055793991,-16368,10.0355610055181,1,5.85365853658537,-96,-0.0609756097560976,-55,3.35365853658537,-4,0.0173913043478261,-43,-0.18695652173913,143,-0.697560975609756,
15334774,9531.25,-2208,1.35377069282649,272,0.166768853464132,-16224,9.94727161250766,20,5.97560975609756,-98,-1.21951219512195,-53,3.23170731707317,-1,0.00434782608695652,-39,-0.169565217391304,141,-0.68780487804878,
15335414,9550.78125,-2288,1.40282035561006,288,0.176578786020846,-16096,9.86879215205395,32,6.64634146341464,-109,-1.95121951219512,-60,3.65853658536585,0,0,-43,-0.18695652173913,142,-0.692682926829268,
15336054,9570.3125,-2320,1.42244022072348,224,0.137339055793991,-16112,9.87860208461067,23,7.01219512195122,-115,-1.40243902439024,-64,3.90243902439024,-1,0.00434782608695652,-37,-0.160869565217391,141,-0.68780487804878,
15336694,9589.84375,-2272,1.39301042305334,208,0.127529123237278,-16192,9.92765174739424,9,7.68292682926829,-126,-0.548780487804878,-73,4.45121951219512,-2,0.00869565217391304,-39,-0.169565217391304,143,-0.697560975609756,
15337334,9609.375,-2320,1.42244022072348,208,0.127529123237278,-16128,9.88841201716738,-1,7.74390243902439,-127,0.0609756097560976,-70,4.26829268292683,-1,0.00434782608695652,-42,-0.182608695652174,143,-0.697560975609756,
15337974,9628.90625,-2288,1.40282035561006,272,0.166768853464132,-16176,9.91784181483752,2,8.35365853658537,-137,-0.121951219512195,-72,4.39024390243902,-3,0.0130434782608696,-39,-0.169565217391304,142,-0.692682926829268,
15338614,9648.4375,-2368,1.45187001839362,352,0.215818516247701,-16096,9.86879215205395,0,8.84146341463415,-145,0,-79,4.81707317073171,-3,0.0130434782608696,-39,-0.169565217391304,143,-0.697560975609756,
15339254,9667.96875,-2416,1.48129981606376,464,0.284488044144696,-15952,9.78050275904353,-16,8.53658536585366,-140,0.975609756097561,-80,4.87804878048781,-6,0.0260869565217391,-36,-0.156521739130435,140,-0.682926829268293,
15339894,9687.5,-2352,1.44206008583691,432,0.264868179031269,-15952,9.78050275904353,-22,8.65853658536586,-142,1.34146341463415,-88,5.36585365853659,-4,0.0173913043478261,-34,-0.147826086956522,139,-0.678048780487805,
15340534,9707.03125,-2416,1.48129981606376,480,0.29429797670141,-15840,9.71183323114654,-8,8.17073170731707,-134,0.487804878048781,-77,4.69512195121951,-3,0.0130434782608696,-38,-0.165217391304348,142,-0.692682926829268,
15341174,9726.5625,-2480,1.52053954629062,624,0.382587369711833,-15760,9.66278356836297,-2,7.25609756097561,-119,0.121951219512195,-72,4.39024390243902,-2,0.00869565217391304,-34,-0.147826086956522,140,-0.682926829268293,
15341814,9746.09375,-2512,1.54015941140405,640,0.392397302268547,-15712,9.63335377069283,5,6.15853658536585,-101,-0.304878048780488,-57,3.47560975609756,-1,0.00434782608695652,-39,-0.169565217391304,143,-0.697560975609756,
15342454,9765.625,848,-0.519926425505825,2160,1.32434089515635,-23808,14.5971796443899,13,5.1219512195122,-84,-0.792682926829268,-40,2.4390243902439,-2,0.00869565217391304,-42,-0.182608695652174,143,-0.697560975609756,
15343094,9785.15625,-3760,2.30533415082771,5536,3.39423666462293,-15616,9.57449417535254,3035,-60.8536585365854,998,-185.060975609756,-887,54.0853658536585,-5,0.0217391304347826,-32,-0.139130434782609,141,-0.68780487804878,
15343734,9804.6875,-8992,5.51318209687308,2944,1.80502759043532,-15504,9.50582464745555,468,-24.2682926829268,398,-28.5365853658537,484,-29.5121951219512,0,0,-39,-0.169565217391304,142,-0.692682926829268,
15344374,9824.21875,-8096,4.96382587369712,992,0.608215818516248,-18080,11.0852237890864,-497,34.9390243902439,-573,30.3048780487805,57,-3.47560975609756,-1,0.00434782608695652,-35,-0.152173913043478,139,-0.678048780487805,
15345014,9843.75,-1760,1.0790925812385,3152,1.93255671367259,-17120,10.4966278356836,-905,61.7682926829268,-1013,55.1829268292683,-91,5.54878048780488,-3,0.0130434782608696,-41,-0.178260869565217,142,-0.692682926829268,
15345654,9863.28125,1376,-0.843654199877376,2240,1.37339055793991,-15856,9.72164316370325,-1064,-12.8658536585366,211,64.8780487804878,-306,18.6585365853659,-3,0.0130434782608696,-39,-0.169565217391304,146,-0.712195121951219,
15346294,9882.8125,-1440,0.88289393010423,-2944,-1.80502759043532,-16528,10.1336603310852,119,-6.64634146341464,109,-7.25609756097561,332,-20.2439024390244,-3,0.0130434782608696,-37,-0.160869565217391,142,-0.692682926829268,
15346934,9902.34375,-2592,1.58920907418761,-1104,-0.676885346413243,-17440,10.6928264868179,104,3.96341463414634,-65,-6.34146341463415,5,-0.304878048780488,-3,0.0130434782608696,-37,-0.160869565217391,142,-0.692682926829268,
15347574,9921.875,-1520,0.931943592887799,752,0.461066830165543,-17536,10.7516860821582,-86,6.95121951219512,-114,5.24390243902439,-33,2.01219512195122,-6,0.0260869565217391,-41,-0.178260869565217,145,-0.707317073170732,
15348214,9941.40625,-1680,1.03004291845494,96,0.058859595340282,-17472,10.7124463519313,6,6.09756097560976,-100,-0.365853658536585,3,-0.182926829268293,-5,0.0217391304347826,-37,-0.160869565217391,146,-0.712195121951219,
15348854,9960.9375,-2032,1.24586143470264,160,0.0980993255671367,-17040,10.4475781729001,-48,9.75609756097561,-160,2.92682926829268,-60,3.65853658536585,-7,0.0304347826086957,-32,-0.139130434782609,144,-0.702439024390244,
15349494,9980.46875,-1376,0.843654199877376,416,0.255058246474555,-16336,10.0159411404047,-124,12.0121951219512,-197,7.5609756097561,-78,4.75609756097561,-6,0.0260869565217391,-37,-0.160869565217391,142,-0.692682926829268,
15350134,10000,-960,0.58859595340282,560,0.343347639484979,-15744,9.65297363580625,-54,10.7317073170732,-176,3.29268292682927,-63,3.84146341463415,-4,0.0173913043478261,-38,-0.165217391304348,145,-0.707317073170732,
15350774,10019.53125,-1184,0.725935009196812,704,0.431637032495402,-15456,9.47639484978541,89,9.02439024390244,-148,-5.42682926829268,-69,4.20731707317073,-3,0.0130434782608696,-42,-0.182608695652174,146,-0.712195121951219,
15351414,10039.0625,-1712,1.04966278356836,912,0.559166155732679,-15360,9.41753525444513,178,7.4390243902439,-122,-10.8536585365854,-66,4.02439024390244,-4,0.0173913043478261,-38,-0.165217391304348,143,-0.697560975609756,
15352054,10058.59375,-2048,1.25567136725935,992,0.608215818516248,-15392,9.43715511955855,180,5.54878048780488,-91,-10.9756097560976,-42,2.5609756097561,-6,0.0260869565217391,-38,-0.165217391304348,143,-0.697560975609756,
15352694,10078.125,-2368,1.45187001839362,1056,0.647455548743102,-15424,9.45677498467198,137,3.10975609756098,-51,-8.35365853658537,-20,1.21951219512195,-6,0.0260869565217391,-37,-0.160869565217391,143,-0.697560975609756,
15353334,10097.65625,-2432,1.49110974862048,912,0.559166155732679,-15744,9.65297363580625,54,1.82926829268293,-30,-3.29268292682927,11,-0.670731707317073,-6,0.0260869565217391,-36,-0.156521739130435,142,-0.692682926829268,
15353974,10117.1875,-2304,1.41263028816677,752,0.461066830165543,-15808,9.69221336603311,-15,1.15853658536585,-19,0.914634146341463,23,-1.40243902439024,-5,0.0217391304347826,-36,-0.156521739130435,141,-0.68780487804878,
15354614,10136.71875,-2096,1.28510116492949,672,0.412017167381974,-15904,9.75107296137339,-62,1.28048780487805,-21,3.78048780487805,22,-1.34146341463415,-4,0.0173913043478261,-38,-0.165217391304348,142,-0.692682926829268,
15355254,10156.25,-1824,1.11833231146536,560,0.343347639484979,-16128,9.88841201716738,-67,1.52439024390244,-25,4.08536585365854,8,-0.487804878048781,-6,0.0260869565217391,-39,-0.169565217391304,142,-0.692682926829268,
15355894,10175.78125,-1616,0.990803188228081,592,0.362967504598406,-16272,9.9767014101778,-27,1.76829268292683,-29,1.64634146341463,-7,0.426829268292683,-5,0.0217391304347826,-36,-0.156521739130435,144,-0.702439024390244,
15356534,10195.3125,14240,-8.73083997547517,-3392,-2.0797057020233,-18016,11.0459840588596,47,2.19512195121951,-36,-2.86585365853659,-20,1.21951219512195,-4,0.0173913043478261,-38,-0.165217391304348,146,-0.712195121951219,
15357174,10214.84375,2400,-1.47148988350705,8480,5.19926425505825,-14480,8.87798896382587,6153,88.7804878048781,-1456,-375.182926829268,-2127,129.69512195122,-5,0.0217391304347826,-41,-0.178260869565217,147,-0.717073170731707,
15357814,10234.375,-9120,5.59166155732679,5056,3.09993868792152,-18176,11.1440833844267,2082,16.4634146341463,-270,-126.951219512195,536,-32.6829268292683,-4,0.0173913043478261,-31,-0.134782608695652,141,-0.68780487804878,
15358454,10253.90625,-7120,4.36541998773758,-1712,-1.04966278356836,-19184,11.7621091354997,-192,30.1829268292683,-495,11.7073170731707,252,-15.3658536585366,-3,0.0130434782608696,-36,-0.156521739130435,141,-0.68780487804878,
15359094,10273.4375,1520,-0.931943592887799,-1168,-0.716125076640098,-16880,10.3494788473329,-1274,47.6219512195122,-781,77.6829268292683,-220,13.4146341463415,-6,0.0260869565217391,-36,-0.156521739130435,145,-0.707317073170732,
15359734,10292.96875,1808,-1.10852237890864,144,0.088289393010423,-15680,9.6137339055794,-673,8.04878048780488,-132,41.0365853658537,-300,18.2926829268293,-4,0.0173913043478261,-41,-0.178260869565217,147,-0.717073170731707,
15360374,10312.5,-1968,1.20662170447578,192,0.117719190680564,-16496,10.1140404659718,332,-6.03658536585366,99,-20.2439024390244,120,-7.31707317073171,-6,0.0260869565217391,-35,-0.152173913043478,143,-0.697560975609756,
15361014,10332.03125,-2800,1.71673819742489,96,0.058859595340282,-17072,10.4671980380135,356,-2.98780487804878,49,-21.7073170731707,145,-8.84146341463415,-4,0.0173913043478261,-37,-0.160869565217391,145,-0.707317073170732,
15361654,10351.5625,-2528,1.54996934396076,48,0.029429797670141,-17584,10.7811158798283,110,1.15853658536585,-19,-6.70731707317073,63,-3.84146341463415,-4,0.0173913043478261,-37,-0.160869565217391,145,-0.707317073170732,
15362294,10371.09375,-2160,1.32434089515635,112,0.0686695278969957,-17520,10.7418761496015,82,2.6219512195122,-43,-5,38,-2.31707317073171,-5,0.0217391304347826,-40,-0.173913043478261,146,-0.712195121951219,
15362934,10390.625,-2816,1.72654812998161,-80,-0.0490496627835684,-17216,10.5554874310239,-26,5,-82,1.58536585365854,10,-0.609756097560976,-7,0.0304347826086957,-40,-0.173913043478261,143,-0.697560975609756,
15363574,10410.15625,-2096,1.28510116492949,-48,-0.029429797670141,-16560,10.1532801961987,-175,7.5609756097561,-124,10.6707317073171,1,-0.0609756097560976,-3,0.0130434782608696,-40,-0.173913043478261,145,-0.707317073170732,
15364214,10429.6875,-1248,0.765174739423666,208,0.127529123237278,-16192,9.92765174739424,-29,6.58536585365854,-108,1.76829268292683,27,-1.64634146341463,-3,0.0130434782608696,-41,-0.178260869565217,145,-0.707317073170732,
15364854,10449.21875,-1536,0.941753525444513,192,0.117719190680564,-16032,9.8295524218271,92,4.57317073170732,-75,-5.60975609756098,24,-1.46341463414634,-6,0.0260869565217391,-36,-0.156521739130435,146,-0.712195121951219,
15365494,10468.75,-1728,1.05947271612508,160,0.0980993255671367,-15888,9.74126302881668,129,5.0609756097561,-83,-7.86585365853659,19,-1.15853658536585,-5,0.0217391304347826,-36,-0.156521739130435,145,-0.707317073170732,
15366134,10488.28125,-1936,1.18700183936235,160,0.0980993255671367,-15920,9.7608828939301,138,5.1219512195122,-84,-8.41463414634146,10,-0.609756097560976,-2,0.00869565217391304,-35,-0.152173913043478,143,-0.697560975609756,
15366774,10507.8125,-2048,1.25567136725935,192,0.117719190680564,-15840,9.71183323114654,73,5.60975609756098,-92,-4.45121951219512,-7,0.426829268292683,-4,0.0173913043478261,-42,-0.182608695652174,145,-0.707317073170732,
15367414,10527.34375,-1904,1.16738197424893,352,0.215818516247701,-15760,9.66278356836297,37,5.67073170731707,-93,-2.25609756097561,-14,0.853658536585366,-4,0.0173913043478261,-35,-0.152173913043478,144,-0.702439024390244,
15368054,10546.875,-1872,1.1477621091355,464,0.284488044144696,-15808,9.69221336603311,43,5.42682926829268,-89,-2.6219512195122,-15,0.914634146341463,-3,0.0130434782608696,-39,-0.169565217391304,144,-0.702439024390244,
15368694,10566.40625,-1904,1.16738197424893,432,0.264868179031269,-15872,9.73145309625996,35,5.73170731707317,-94,-2.13414634146341,-13,0.792682926829268,-2,0.00869565217391304,-42,-0.182608695652174,146,-0.712195121951219,
15369334,10585.9375,-1952,1.19681177191907,416,0.255058246474555,-15968,9.79031269160024,23,5.60975609756098,-92,-1.40243902439024,-14,0.853658536585366,-3,0.0130434782608696,-41,-0.178260869565217,144,-0.702439024390244,
15369974,10605.46875,-1936,1.18700183936235,288,0.176578786020846,-16064,9.84917228694053,-18,6.28048780487805,-103,1.09756097560976,-31,1.89024390243902,-2,0.00869565217391304,-38,-0.165217391304348,144,-0.702439024390244,
15370614,10625,-14592,8.94665849172287,-10448,-6.40588595953403,5168,-3.16860821581852,-25,6.64634146341464,-109,1.52439024390244,-50,3.04878048780488,-6,0.0260869565217391,-35,-0.152173913043478,145,-0.707317073170732,
15371254,10644.53125,-704,0.431637032495402,2928,1.7952176578786,-6416,3.93378295524218,3923,-24.8780487804878,408,-239.207317073171,-1010,61.5853658536585,-3,0.0130434782608696,-34,-0.147826086956522,141,-0.68780487804878,
