Shimmer,Shimmer,Shimmer,Shimmer,Shimmer,Shimmer,Shimmer,Shimmer,Shimmer,Shimmer,Shimmer,Shimmer,Shimmer,Shimmer,Shimmer,Shimmer,Shimmer,Shimmer,Shimmer,Shimmer,
Timestamp,Timestamp,Wide Range Accelerometer X,Wide Range Accelerometer X,Wide Range Accelerometer Y,Wide Range Accelerometer Y,Wide Range Accelerometer Z,Wide Range Accelerometer Z,Gyroscope X,Gyroscope X,Gyroscope Y,Gyroscope Y,Gyroscope Z,Gyroscope Z,Magnetometer X,Magnetometer X,Magnetometer Y,Magnetometer Y,Magnetometer Z,Magnetometer Z,
RAW,CAL,RAW,CAL,RAW,CAL,RAW,CAL,RAW,CAL,RAW,CAL,RAW,CAL,RAW,CAL,RAW,CAL,RAW,CAL,
no units,mSecs,no units,m/(sec^2),no units,m/(sec^2),no units,m/(sec^2),no units,deg/sec,no units,deg/sec,no units,deg/sec,no units,local,no units,local,no units,local,
13490934,0,5696,-3.49233599019007,-14992,-9.19190680564071,-2224,1.3635806253832,-28,2.5609756097561,-42,1.70731707317073,-24,1.46341463414634,-102,0.443478260869565,32,0.139130434782609,137,-0.668292682926829,
13491574,19.53125,5744,-3.52176578786021,-15008,-9.20171673819742,-2192,1.34396076026977,-13,2.4390243902439,-40,0.792682926829268,-21,1.28048780487805,-99,0.430434782608696,30,0.130434782608696,139,-0.678048780487805,
13492214,39.0625,5760,-3.53157572041692,-15056,-9.23114653586757,-2192,1.34396076026977,1,1.89024390243902,-31,-0.0609756097560976,-13,0.792682926829268,-97,0.421739130434783,29,0.126086956521739,138,-0.673170731707317,
13492854,58.59375,5840,-3.58062538320049,-15072,-9.24095646842428,-2208,1.35377069282649,19,1.58536585365854,-26,-1.15853658536585,-10,0.609756097560976,-98,0.426086956521739,28,0.121739130434783,138,-0.673170731707317,
13493494,78.125,5936,-3.63948497854077,-14976,-9.182096873084,-2224,1.3635806253832,53,1.46341463414634,-24,-3.23170731707317,-7,0.426829268292683,-98,0.426086956521739,33,0.143478260869565,139,-0.678048780487805,
13494134,97.65625,6032,-3.69834457388105,-14656,-8.98589822194972,-2336,1.4322501532802,110,0.487804878048781,-8,-6.70731707317073,1,-0.0609756097560976,-99,0.430434782608696,33,0.143478260869565,137,-0.668292682926829,
13494774,117.1875,6208,-3.8062538320049,-14352,-8.79950950337216,-2304,1.41263028816677,162,-0.914634146341463,15,-9.87804878048781,23,-1.40243902439024,-98,0.426086956521739,29,0.126086956521739,139,-0.678048780487805,
13495414,136.71875,6704,-4.11036174126303,-14288,-8.76026977314531,-2448,1.50091968117719,271,-4.51219512195122,74,-16.5243902439024,94,-5.73170731707317,-97,0.421739130434783,29,0.126086956521739,140,-0.682926829268293,
13496054,156.25,6816,-4.17903126916002,-14496,-8.88779889638259,-2400,1.47148988350705,435,-5.97560975609756,98,-26.5243902439024,167,-10.1829268292683,-99,0.430434782608696,34,0.147826086956522,137,-0.668292682926829,
13496694,175.78125,6720,-4.12017167381974,-14592,-8.94665849172287,-2304,1.41263028816677,493,-5.54878048780488,91,-30.0609756097561,190,-11.5853658536585,-96,0.417391304347826,34,0.147826086956522,138,-0.673170731707317,
13497334,195.3125,6736,-4.12998160637646,-14784,-9.06437768240343,-2368,1.45187001839362,463,-4.87804878048781,80,-28.2317073170732,182,-11.0975609756098,-94,0.408695652173913,30,0.130434782608696,139,-0.678048780487805,
13497974,214.84375,6704,-4.11036174126303,-15008,-9.20171673819742,-2416,1.48129981606376,425,-3.10975609756098,51,-25.9146341463415,118,-7.19512195121951,-95,0.41304347826087,29,0.126086956521739,139,-0.678048780487805,
13498614,234.375,6816,-4.17903126916002,-15392,-9.43715511955855,-2272,1.39301042305334,359,-1.58536585365854,26,-21.890243902439,31,-1.89024390243902,-93,0.404347826086957,34,0.147826086956522,137,-0.668292682926829,
13499254,253.90625,6992,-4.28694052728387,-15696,-9.62354383813611,-2112,1.2949110974862,346,-0.487804878048781,8,-21.0975609756098,-87,5.30487804878049,-92,0.4,33,0.143478260869565,139,-0.678048780487805,
13499894,273.4375,7104,-4.35561005518087,-15872,-9.73145309625996,-2080,1.27529123237278,424,0.487804878048781,-8,-25.8536585365854,-204,12.4390243902439,-94,0.408695652173913,32,0.139130434782609,138,-0.673170731707317,
13500534,292.96875,6672,-4.0907418761496,-15824,-9.70202329858982,-2016,1.23605150214592,490,1.15853658536585,-19,-29.8780487804878,-326,19.8780487804878,-92,0.4,31,0.134782608695652,137,-0.668292682926829,
13501174,312.5,6304,-3.86511342734519,-15696,-9.62354383813611,-2064,1.26548129981606,471,2.13414634146341,-35,-28.719512195122,-429,26.1585365853659,-92,0.4,30,0.130434782608696,137,-0.668292682926829,
13501814,332.03125,5936,-3.63948497854077,-15536,-9.52544451256898,-2064,1.26548129981606,438,3.23170731707317,-53,-26.7073170731707,-502,30.609756097561,-94,0.408695652173913,30,0.130434782608696,138,-0.673170731707317,
13502454,351.5625,5872,-3.60024524831392,-15056,-9.23114653586757,-2128,1.30472103004292,402,4.02439024390244,-66,-24.5121951219512,-554,33.780487804878,-94,0.408695652173913,37,0.160869565217391,139,-0.678048780487805,
13503094,371.09375,6000,-3.67872470876763,-14432,-8.84855916615573,-2288,1.40282035561006,393,3.41463414634146,-56,-23.9634146341463,-557,33.9634146341463,-94,0.408695652173913,32,0.139130434782609,138,-0.673170731707317,
13503734,390.625,6800,-4.16922133660331,-14144,-8.67198038013489,-2672,1.63825873697118,491,0.853658536585366,-14,-29.9390243902439,-499,30.4268292682927,-92,0.4,30,0.130434782608696,139,-0.678048780487805,
13504374,410.15625,7008,-4.29675045984059,-14112,-8.65236051502146,-3008,1.84426732066217,733,-0.548780487804878,9,-44.6951219512195,-402,24.5121951219512,-94,0.408695652173913,34,0.147826086956522,139,-0.678048780487805,
13505014,429.6875,6944,-4.25751072961373,-14400,-8.8289393010423,-2960,1.81483752299203,902,-1.28048780487805,21,-55,-328,20,-94,0.408695652173913,34,0.147826086956522,139,-0.678048780487805,
13505654,449.21875,6976,-4.27713059472716,-14896,-9.13304721030043,-2928,1.7952176578786,924,0.609756097560976,-10,-56.3414634146341,-327,19.9390243902439,-93,0.404347826086957,36,0.156521739130435,139,-0.678048780487805,
13506294,468.75,6800,-4.16922133660331,-15296,-9.37829552421827,-3120,1.91293684855917,898,3.47560975609756,-57,-54.7560975609756,-377,22.9878048780488,-91,0.395652173913043,32,0.139130434782609,138,-0.673170731707317,
13506934,488.28125,6256,-3.83568362967505,-15536,-9.52544451256898,-3216,1.97179644389945,769,6.21951219512195,-102,-46.890243902439,-449,27.3780487804878,-90,0.391304347826087,34,0.147826086956522,137,-0.668292682926829,
13507574,507.8125,6016,-3.68853464132434,-15424,-9.45677498467198,-3120,1.91293684855917,508,9.20731707317073,-151,-30.9756097560976,-537,32.7439024390244,-89,0.38695652173913,33,0.143478260869565,139,-0.678048780487805,
13508214,527.34375,6464,-3.96321275291232,-15264,-9.35867565910484,-2800,1.71673819742489,311,10.7317073170732,-176,-18.9634146341463,-609,37.1341463414634,-90,0.391304347826087,32,0.139130434782609,140,-0.682926829268293,
13508854,546.875,6752,-4.13979153893317,-15072,-9.24095646842428,-2496,1.53034947884733,300,10.8536585365854,-178,-18.2926829268293,-648,39.5121951219512,-93,0.404347826086957,32,0.139130434782609,141,-0.68780487804878,
13509494,566.40625,6528,-4.00245248313918,-14784,-9.06437768240343,-2240,1.37339055793991,368,9.63414634146342,-158,-22.4390243902439,-665,40.5487804878049,-90,0.391304347826087,33,0.143478260869565,140,-0.682926829268293,
13510134,585.9375,6128,-3.75720416922134,-14592,-8.94665849172287,-2208,1.35377069282649,394,7.4390243902439,-122,-24.0243902439024,-670,40.8536585365854,-92,0.4,31,0.134782608695652,139,-0.678048780487805,
13510774,605.46875,5824,-3.57081545064378,-14464,-8.86817903126916,-2160,1.32434089515635,370,5,-82,-22.5609756097561,-655,39.9390243902439,-94,0.408695652173913,31,0.134782608695652,139,-0.678048780487805,
13511414,625,5600,-3.43347639484979,-14416,-8.83874923359902,-2048,1.25567136725935,321,3.71951219512195,-61,-19.5731707317073,-605,36.890243902439,-94,0.408695652173913,29,0.126086956521739,140,-0.682926829268293,
13512054,644.53125,5312,-3.25689760882894,-14256,-8.74064990803188,-2080,1.27529123237278,236,2.5,-41,-14.390243902439,-533,32.5,-93,0.404347826086957,29,0.126086956521739,140,-0.682926829268293,
13512694,664.0625,5248,-3.21765787860208,-14032,-8.60331085223789,-2176,1.33415082771306,129,1.34146341463415,-22,-7.86585365853659,-436,26.5853658536585,-93,0.404347826086957,30,0.130434782608696,140,-0.682926829268293,
13513334,683.59375,5360,-3.28632740649908,-13856,-8.49540159411404,-2352,1.44206008583691,25,-0.304878048780488,5,-1.52439024390244,-334,20.3658536585366,-96,0.417391304347826,34,0.147826086956522,140,-0.682926829268293,
13513974,703.125,5664,-3.47271612507664,-13504,-8.27958307786634,-2464,1.51072961373391,-18,-1.76829268292683,29,1.09756097560976,-240,14.6341463414634,-96,0.417391304347826,33,0.143478260869565,141,-0.68780487804878,
13514614,722.65625,6000,-3.67872470876763,-13440,-8.24034334763948,-2624,1.60882893930104,25,-5.36585365853659,88,-1.52439024390244,-147,8.96341463414634,-94,0.408695652173913,29,0.126086956521739,140,-0.682926829268293,
13515254,742.1875,6256,-3.83568362967505,-13520,-8.28939301042305,-2848,1.74616799509503,110,-8.53658536585366,140,-6.70731707317073,-62,3.78048780487805,-95,0.41304347826087,30,0.130434782608696,141,-0.68780487804878,
13515894,761.71875,6560,-4.02207234825261,-13472,-8.25996321275291,-3184,1.95217657878602,172,-10.2439024390244,168,-10.4878048780488,10,-0.609756097560976,-97,0.421739130434783,34,0.147826086956522,139,-0.678048780487805,
13516534,781.25,6864,-4.20846106683017,-13600,-8.33844267320662,-3392,2.0797057020233,218,-11.7073170731707,192,-13.2926829268293,65,-3.96341463414634,-94,0.408695652173913,32,0.139130434782609,138,-0.673170731707317,
13517174,800.78125,7040,-4.31637032495402,-13600,-8.33844267320662,-3744,2.295524218271,262,-11.7073170731707,192,-15.9756097560976,113,-6.89024390243902,-93,0.404347826086957,31,0.134782608695652,141,-0.68780487804878,
13517814,820.3125,7264,-4.45370938074801,-13504,-8.27958307786634,-3904,2.39362354383814,261,-11.0975609756098,182,-15.9146341463415,147,-8.96341463414634,-93,0.404347826086957,32,0.139130434782609,140,-0.682926829268293,
13518454,839.84375,7712,-4.72838749233599,-13648,-8.36787247087676,-4032,2.47210300429185,245,-10.4878048780488,172,-14.9390243902439,175,-10.6707317073171,-92,0.4,34,0.147826086956522,138,-0.673170731707317,
13519094,859.375,7840,-4.8068669527897,-13712,-8.40711220110362,-4112,2.52115266707541,263,-10.0609756097561,165,-16.0365853658537,190,-11.5853658536585,-91,0.395652173913043,35,0.152173913043478,137,-0.668292682926829,
13519734,878.90625,8240,-5.05211526670754,-13888,-8.51502145922747,-4080,2.50153280196199,289,-9.20731707317073,151,-17.6219512195122,172,-10.4878048780488,-93,0.404347826086957,35,0.152173913043478,136,-0.663414634146342,
13520374,898.4375,8608,-5.27774371551196,-13984,-8.57388105456775,-4272,2.61925199264255,324,-9.02439024390244,148,-19.7560975609756,148,-9.02439024390244,-92,0.4,35,0.152173913043478,137,-0.668292682926829,
13521014,917.96875,9328,-5.71919068056407,-14000,-8.58369098712446,-4512,2.76640098099326,397,-8.59756097560976,141,-24.2073170731707,112,-6.82926829268293,-89,0.38695652173913,34,0.147826086956522,137,-0.668292682926829,
13521654,937.5,10208,-6.25873697118332,-14128,-8.66217044757817,-4832,2.96259963212753,613,-7.01219512195122,115,-37.3780487804878,88,-5.36585365853659,-89,0.38695652173913,32,0.139130434782609,137,-0.668292682926829,
13522294,957.03125,10224,-6.26854690374004,-14208,-8.71122011036174,-5088,3.11955855303495,844,-2.25609756097561,37,-51.4634146341463,32,-1.95121951219512,-89,0.38695652173913,35,0.152173913043478,137,-0.668292682926829,
13522934,976.5625,9776,-5.99386879215205,-14304,-8.77007970570202,-5040,3.09012875536481,904,3.10975609756098,-51,-55.1219512195122,-64,3.90243902439024,-86,0.373913043478261,36,0.156521739130435,138,-0.673170731707317,
13523574,996.09375,8960,-5.49356223175966,-14368,-8.80931943592888,-5056,3.09993868792152,754,8.17073170731707,-134,-45.9756097560976,-214,13.0487804878049,-88,0.382608695652174,39,0.169565217391304,135,-0.658536585365854,
13524214,1015.625,8496,-5.20907418761496,-14528,-8.90741876149601,-5040,3.09012875536481,486,12.5609756097561,-206,-29.6341463414634,-366,22.3170731707317,-84,0.365217391304348,34,0.147826086956522,138,-0.673170731707317,
13524854,1035.15625,8256,-5.06192519926425,-14528,-8.90741876149601,-4768,2.92335990190067,238,16.8292682926829,-276,-14.5121951219512,-483,29.4512195121951,-87,0.378260869565217,39,0.169565217391304,137,-0.668292682926829,
13525494,1054.6875,8304,-5.0913549969344,-14416,-8.83874923359902,-4448,2.7271612507664,94,19.0243902439024,-312,-5.73170731707317,-557,33.9634146341463,-87,0.378260869565217,35,0.152173913043478,138,-0.673170731707317,
13526134,1074.21875,8448,-5.17964438994482,-14240,-8.73083997547517,-4096,2.5113427345187,105,19.6341463414634,-322,-6.40243902439024,-600,36.5853658536585,-89,0.38695652173913,32,0.139130434782609,140,-0.682926829268293,
13526774,1093.75,8224,-5.04230533415083,-14000,-8.58369098712446,-3888,2.38381361128142,212,19.1463414634146,-314,-12.9268292682927,-607,37.0121951219512,-89,0.38695652173913,38,0.165217391304348,137,-0.668292682926829,
13527414,1113.28125,7840,-4.8068669527897,-13728,-8.41692213366033,-3632,2.226854690374,283,17.8048780487805,-292,-17.2560975609756,-596,36.3414634146341,-88,0.382608695652174,34,0.147826086956522,139,-0.678048780487805,
13528054,1132.8125,7360,-4.51256897608829,-13232,-8.11281422440221,-3616,2.21704475781729,301,15.9146341463415,-261,-18.3536585365854,-570,34.7560975609756,-89,0.38695652173913,34,0.147826086956522,140,-0.682926829268293,
13528694,1152.34375,7248,-4.44389944819129,-12960,-7.94604537093807,-3680,2.25628448804414,287,13.0487804878049,-214,-17.5,-509,31.0365853658537,-89,0.38695652173913,32,0.139130434782609,140,-0.682926829268293,
13529334,1171.875,7440,-4.56161863887186,-12784,-7.83813611281422,-3776,2.31514408338443,322,9.87804878048781,-162,-19.6341463414634,-418,25.4878048780488,-90,0.391304347826087,34,0.147826086956522,139,-0.678048780487805,
13529974,1191.40625,7488,-4.591048436542,-12624,-7.74003678724709,-3840,2.35438381361128,373,8.10975609756098,-133,-22.7439024390244,-328,20,-89,0.38695652173913,32,0.139130434782609,140,-0.682926829268293,
13530614,1210.9375,7504,-4.60085836909871,-12832,-7.86756591048437,-3872,2.37400367872471,398,6.28048780487805,-103,-24.2682926829268,-266,16.219512195122,-90,0.391304347826087,34,0.147826086956522,140,-0.682926829268293,
13531254,1230.46875,7648,-4.68914776210914,-13024,-7.98528510116493,-3856,2.364193746168,413,5.60975609756098,-92,-25.1829268292683,-245,14.9390243902439,-90,0.391304347826087,32,0.139130434782609,140,-0.682926829268293,
13531894,1250,7520,-4.61066830165543,-13216,-8.10300429184549,-3872,2.37400367872471,396,5.30487804878049,-87,-24.1463414634146,-242,14.7560975609756,-91,0.395652173913043,34,0.147826086956522,139,-0.678048780487805,
13532534,1269.53125,7232,-4.43408951563458,-13280,-8.14224402207235,-3904,2.39362354383814,315,4.9390243902439,-81,-19.2073170731707,-246,15,-88,0.382608695652174,29,0.126086956521739,142,-0.692682926829268,
13533174,1289.0625,7136,-4.3752299202943,-13152,-8.06376456161864,-3936,2.41324340895156,175,4.69512195121951,-77,-10.6707317073171,-246,15,-87,0.378260869565217,29,0.126086956521739,142,-0.692682926829268,
13533814,1308.59375,7360,-4.51256897608829,-13040,-7.99509503372164,-3728,2.28571428571429,74,3.41463414634146,-56,-4.51219512195122,-223,13.5975609756098,-88,0.382608695652174,35,0.152173913043478,142,-0.692682926829268,
13534454,1328.125,7488,-4.591048436542,-12960,-7.94604537093807,-3792,2.32495401594114,51,1.70731707317073,-28,-3.10975609756098,-190,11.5853658536585,-90,0.391304347826087,33,0.143478260869565,142,-0.692682926829268,
13535094,1347.65625,7360,-4.51256897608829,-12896,-7.90680564071122,-3856,2.364193746168,46,0.182926829268293,-3,-2.80487804878049,-145,8.84146341463415,-90,0.391304347826087,34,0.147826086956522,142,-0.692682926829268,
13535734,1367.1875,7296,-4.47332924586143,-12656,-7.75965665236051,-3984,2.4426732066217,38,-1.21951219512195,20,-2.31707317073171,-104,6.34146341463415,-90,0.391304347826087,30,0.130434782608696,143,-0.697560975609756,
13536374,1386.71875,7264,-4.45370938074801,-12640,-7.7498467198038,-4000,2.45248313917842,13,-3.47560975609756,57,-0.792682926829268,-57,3.47560975609756,-90,0.391304347826087,33,0.143478260869565,141,-0.68780487804878,
13537014,1406.25,7184,-4.40465971796444,-12656,-7.75965665236051,-4128,2.53096259963213,1,-5.60975609756098,92,-0.0609756097560976,-9,0.548780487804878,-91,0.395652173913043,29,0.126086956521739,142,-0.692682926829268,
13537654,1425.78125,7232,-4.43408951563458,-12576,-7.71060698957695,-4160,2.55058246474555,-14,-7.13414634146342,117,0.853658536585366,47,-2.86585365853659,-90,0.391304347826087,36,0.156521739130435,139,-0.678048780487805,
13538294,1445.3125,7360,-4.51256897608829,-12640,-7.7498467198038,-4368,2.67811158798283,-13,-9.20731707317073,151,0.792682926829268,103,-6.28048780487805,-91,0.395652173913043,36,0.156521739130435,140,-0.682926829268293,
13538934,1464.84375,7440,-4.56161863887186,-12800,-7.84794604537094,-4656,2.85469037400368,14,-10.1219512195122,166,-0.853658536585366,157,-9.57317073170732,-90,0.391304347826087,35,0.152173913043478,139,-0.678048780487805,
13539574,1484.375,7408,-4.54199877375843,-13040,-7.99509503372164,-4720,2.89393010423053,9,-10.2439024390244,168,-0.548780487804878,200,-12.1951219512195,-89,0.38695652173913,33,0.143478260869565,140,-0.682926829268293,
13540214,1503.90625,7408,-4.54199877375843,-13264,-8.13243408951563,-4704,2.88412017167382,-49,-9.75609756097561,160,2.98780487804878,228,-13.9024390243902,-89,0.38695652173913,34,0.147826086956522,138,-0.673170731707317,
13540854,1523.4375,7584,-4.64990803188228,-13328,-8.17167381974249,-4784,2.93316983445739,-125,-9.32926829268293,153,7.6219512195122,244,-14.8780487804878,-90,0.391304347826087,35,0.152173913043478,139,-0.678048780487805,
13541494,1542.96875,7728,-4.7381974248927,-13424,-8.23053341508277,-4880,2.99202942979767,-157,-8.84146341463415,145,9.57317073170732,259,-15.7926829268293,-87,0.378260869565217,33,0.143478260869565,138,-0.673170731707317,
13542134,1562.5,7792,-4.77743715511956,-13536,-8.29920294297977,-5120,3.13917841814837,-166,-8.10975609756098,133,10.1219512195122,260,-15.8536585365854,-88,0.382608695652174,34,0.147826086956522,137,-0.668292682926829,
13542774,1582.03125,7808,-4.78724708767627,-13520,-8.28939301042305,-5280,3.23727774371551,-160,-6.03658536585366,99,9.75609756097561,266,-16.219512195122,-87,0.378260869565217,37,0.160869565217391,138,-0.673170731707317,
13543414,1601.5625,7744,-4.74800735744942,-13488,-8.26977314530963,-5280,3.23727774371551,-196,-4.14634146341463,68,11.9512195121951,256,-15.609756097561,-86,0.373913043478261,32,0.139130434782609,138,-0.673170731707317,
13544054,1621.09375,7872,-4.82648681790313,-13584,-8.32863274064991,-5200,3.18822808093194,-223,-2.5609756097561,42,13.5975609756098,253,-15.4268292682927,-86,0.373913043478261,31,0.134782608695652,138,-0.673170731707317,
13544694,1640.625,7920,-4.85591661557327,-13680,-8.38749233599019,-5280,3.23727774371551,-224,-0.731707317073171,12,13.6585365853659,251,-15.3048780487805,-88,0.382608695652174,38,0.165217391304348,139,-0.678048780487805,
13545334,1660.15625,7856,-4.81667688534641,-13632,-8.35806253832005,-5200,3.18822808093194,-219,0.853658536585366,-14,13.3536585365854,250,-15.2439024390244,-88,0.382608695652174,37,0.160869565217391,138,-0.673170731707317,
13545974,1679.6875,7888,-4.83629675045984,-13680,-8.38749233599019,-5024,3.08031882280809,-230,2.01219512195122,-33,14.0243902439024,251,-15.3048780487805,-88,0.382608695652174,41,0.178260869565217,136,-0.663414634146342,
13546614,1699.21875,8016,-4.91477621091355,-13648,-8.36787247087676,-4992,3.06069895769467,-224,3.47560975609756,-57,13.6585365853659,254,-15.4878048780488,-87,0.378260869565217,34,0.147826086956522,138,-0.673170731707317,
13547254,1718.75,7968,-4.88534641324341,-13744,-8.42673206621704,-4784,2.93316983445739,-187,4.63414634146342,-76,11.4024390243902,260,-15.8536585365854,-88,0.382608695652174,38,0.165217391304348,136,-0.663414634146342,
13547894,1738.28125,7792,-4.77743715511956,-13824,-8.47578172900061,-4704,2.88412017167382,-169,6.21951219512195,-102,10.3048780487805,262,-15.9756097560976,-86,0.373913043478261,37,0.160869565217391,137,-0.668292682926829,
13548534,1757.8125,7664,-4.69895769466585,-13920,-8.53464132434089,-4560,2.7958307786634,-200,7.74390243902439,-127,12.1951219512195,246,-15,-87,0.378260869565217,39,0.169565217391304,136,-0.663414634146342,
13549174,1777.34375,7632,-4.67933782955242,-13888,-8.51502145922747,-4448,2.7271612507664,-258,9.26829268292683,-152,15.7317073170732,218,-13.2926829268293,-87,0.378260869565217,32,0.139130434782609,138,-0.673170731707317,
13549814,1796.875,7760,-4.75781729000613,-13952,-8.55426118945432,-4336,2.6584917228694,-314,10.609756097561,-174,19.1463414634146,190,-11.5853658536585,-88,0.382608695652174,40,0.173913043478261,138,-0.673170731707317,
13550454,1816.40625,7968,-4.88534641324341,-13872,-8.50521152667075,-4208,2.5800122624157,-339,11.219512195122,-184,20.6707317073171,164,-10,-88,0.382608695652174,33,0.143478260869565,138,-0.673170731707317,
13551094,1835.9375,8016,-4.91477621091355,-13872,-8.50521152667075,-4128,2.53096259963213,-330,11.5243902439024,-189,20.1219512195122,145,-8.84146341463415,-88,0.382608695652174,32,0.139130434782609,140,-0.682926829268293,
13551734,1855.46875,8080,-4.9540159411404,-13808,-8.4659717964439,-4016,2.46229307173513,-286,11.7682926829268,-193,17.4390243902439,127,-7.74390243902439,-87,0.378260869565217,34,0.147826086956522,137,-0.668292682926829,
13552374,1875,7984,-4.89515634580012,-13632,-8.35806253832005,-3968,2.43286327406499,-239,11.3414634146341,-186,14.5731707317073,109,-6.64634146341464,-88,0.382608695652174,31,0.134782608695652,138,-0.673170731707317,
13553014,1894.53125,7968,-4.88534641324341,-13504,-8.27958307786634,-3920,2.40343347639485,-210,11.280487804878,-185,12.8048780487805,95,-5.79268292682927,-87,0.378260869565217,31,0.134782608695652,140,-0.682926829268293,
13553654,1914.0625,7968,-4.88534641324341,-13488,-8.26977314530963,-3968,2.43286327406499,-211,10.7317073170732,-176,12.8658536585366,86,-5.24390243902439,-88,0.382608695652174,36,0.156521739130435,140,-0.682926829268293,
13554294,1933.59375,7952,-4.8755364806867,-13488,-8.26977314530963,-3888,2.38381361128142,-219,10.1829268292683,-167,13.3536585365854,93,-5.67073170731707,-89,0.38695652173913,35,0.152173913043478,140,-0.682926829268293,
13554934,1953.125,7968,-4.88534641324341,-13472,-8.25996321275291,-3920,2.40343347639485,-215,9.81707317073171,-161,13.109756097561,99,-6.03658536585366,-88,0.382608695652174,30,0.130434782608696,140,-0.682926829268293,
13555574,1972.65625,7984,-4.89515634580012,-13504,-8.27958307786634,-3808,2.33476394849785,-206,8.90243902439025,-146,12.5609756097561,109,-6.64634146341464,-87,0.378260869565217,30,0.130434782608696,140,-0.682926829268293,
13556214,1992.1875,8096,-4.96382587369712,-13408,-8.22072348252606,-3888,2.38381361128142,-182,7.6219512195122,-125,11.0975609756098,113,-6.89024390243902,-88,0.382608695652174,32,0.139130434782609,138,-0.673170731707317,
13556854,2011.71875,8176,-5.01287553648069,-13344,-8.1814837522992,-3904,2.39362354383814,-143,6.34146341463415,-104,8.71951219512195,115,-7.01219512195122,-88,0.382608695652174,34,0.147826086956522,138,-0.673170731707317,
13557494,2031.25,8128,-4.98344573881055,-13408,-8.22072348252606,-3808,2.33476394849785,-99,4.87804878048781,-80,6.03658536585366,121,-7.37804878048781,-89,0.38695652173913,33,0.143478260869565,140,-0.682926829268293,
13558134,2050.78125,8096,-4.96382587369712,-13408,-8.22072348252606,-4000,2.45248313917842,-51,3.96341463414634,-65,3.10975609756098,123,-7.5,-89,0.38695652173913,32,0.139130434782609,139,-0.678048780487805,
13558774,2070.3125,7952,-4.8755364806867,-13456,-8.2501532801962,-4064,2.49172286940527,-36,3.41463414634146,-56,2.19512195121951,117,-7.13414634146342,-87,0.378260869565217,34,0.147826086956522,139,-0.678048780487805,
13559414,2089.84375,7936,-4.86572654812998,-13472,-8.25996321275291,-4096,2.5113427345187,-42,3.53658536585366,-58,2.5609756097561,105,-6.40243902439024,-88,0.382608695652174,33,0.143478260869565,140,-0.682926829268293,
13560054,2109.375,7984,-4.89515634580012,-13632,-8.35806253832005,-4000,2.45248313917842,-52,3.04878048780488,-50,3.17073170731707,88,-5.36585365853659,-89,0.38695652173913,31,0.134782608695652,140,-0.682926829268293,
13560694,2128.90625,7872,-4.82648681790313,-13744,-8.42673206621704,-4016,2.46229307173513,-42,2.68292682926829,-44,2.5609756097561,80,-4.87804878048781,-88,0.382608695652174,30,0.130434782608696,141,-0.68780487804878,
13561334,2148.4375,7712,-4.72838749233599,-13776,-8.44635193133047,-3984,2.4426732066217,-15,2.5609756097561,-42,0.914634146341463,75,-4.57317073170732,-86,0.373913043478261,30,0.130434782608696,140,-0.682926829268293,
13561974,2167.96875,7616,-4.66952789699571,-13776,-8.44635193133047,-4016,2.46229307173513,-9,2.07317073170732,-34,0.548780487804878,70,-4.26829268292683,-88,0.382608695652174,32,0.139130434782609,139,-0.678048780487805,
13562614,2187.5,7584,-4.64990803188228,-13776,-8.44635193133047,-4048,2.48191293684856,-10,1.76829268292683,-29,0.609756097560976,61,-3.71951219512195,-88,0.382608695652174,36,0.156521739130435,140,-0.682926829268293,
13563254,2207.03125,7456,-4.57142857142857,-13872,-8.50521152667075,-4000,2.45248313917842,-5,1.82926829268293,-30,0.304878048780488,61,-3.71951219512195,-88,0.382608695652174,34,0.147826086956522,139,-0.678048780487805,
13563894,2226.5625,7328,-4.49294911097486,-13808,-8.4659717964439,-4016,2.46229307173513,-12,1.76829268292683,-29,0.731707317073171,62,-3.78048780487805,-87,0.378260869565217,31,0.134782608695652,140,-0.682926829268293,
13564534,2246.09375,7360,-4.51256897608829,-13936,-8.54445125689761,-3984,2.4426732066217,-15,1.64634146341463,-27,0.914634146341463,67,-4.08536585365854,-88,0.382608695652174,31,0.134782608695652,139,-0.678048780487805,
13565174,2265.625,7296,-4.47332924586143,-13888,-8.51502145922747,-4000,2.45248313917842,-3,1.40243902439024,-23,0.182926829268293,76,-4.63414634146342,-87,0.378260869565217,34,0.147826086956522,139,-0.678048780487805,
13565814,2285.15625,7216,-4.42427958307787,-13920,-8.53464132434089,-4032,2.47210300429185,13,1.09756097560976,-18,-0.792682926829268,86,-5.24390243902439,-87,0.378260869565217,36,0.156521739130435,138,-0.673170731707317,
13566454,2304.6875,7168,-4.39484978540773,-13824,-8.47578172900061,-4048,2.48191293684856,1,0.853658536585366,-14,-0.0609756097560976,91,-5.54878048780488,-86,0.373913043478261,33,0.143478260869565,138,-0.673170731707317,
13567094,2324.21875,7168,-4.39484978540773,-13968,-8.56407112201104,-3968,2.43286327406499,-5,0.670731707317073,-11,0.304878048780488,93,-5.67073170731707,-87,0.378260869565217,32,0.139130434782609,139,-0.678048780487805,
13567734,2343.75,7120,-4.36541998773758,-14096,-8.64255058246474,-4000,2.45248313917842,-6,0.975609756097561,-16,0.365853658536585,90,-5.48780487804878,-87,0.378260869565217,34,0.147826086956522,139,-0.678048780487805,
13568374,2363.28125,7088,-4.34580012262416,-14080,-8.63274064990803,-4000,2.45248313917842,2,1.28048780487805,-21,-0.121951219512195,84,-5.1219512195122,-84,0.365217391304348,34,0.147826086956522,139,-0.678048780487805,
13569014,2382.8125,7104,-4.35561005518087,-14176,-8.69160024524831,-3968,2.43286327406499,8,1.21951219512195,-20,-0.487804878048781,74,-4.51219512195122,-88,0.382608695652174,35,0.152173913043478,138,-0.673170731707317,
13569654,2402.34375,7056,-4.32618025751073,-14256,-8.74064990803188,-4000,2.45248313917842,9,1.52439024390244,-25,-0.548780487804878,59,-3.59756097560976,-88,0.382608695652174,33,0.143478260869565,138,-0.673170731707317,
13570294,2421.875,7104,-4.35561005518087,-14288,-8.76026977314531,-4064,2.49172286940527,2,1.89024390243902,-31,-0.121951219512195,45,-2.74390243902439,-85,0.369565217391304,32,0.139130434782609,140,-0.682926829268293,
13570934,2441.40625,7056,-4.32618025751073,-14208,-8.71122011036174,-4128,2.53096259963213,-18,2.92682926829268,-48,1.09756097560976,9,-0.548780487804878,-86,0.373913043478261,32,0.139130434782609,139,-0.678048780487805,
13571574,2460.9375,7024,-4.3065603923973,-14160,-8.6817903126916,-4048,2.48191293684856,-24,3.35365853658537,-55,1.46341463414634,-2,0.121951219512195,-87,0.378260869565217,34,0.147826086956522,140,-0.682926829268293,
13572214,2480.46875,7088,-4.34580012262416,-14176,-8.69160024524831,-4016,2.46229307173513,-9,3.41463414634146,-56,0.548780487804878,-4,0.24390243902439,-85,0.369565217391304,36,0.156521739130435,139,-0.678048780487805,
13572854,2500,7056,-4.32618025751073,-14176,-8.69160024524831,-3952,2.42305334150828,1,3.65853658536585,-60,-0.0609756097560976,-1,0.0609756097560976,-87,0.378260869565217,38,0.165217391304348,138,-0.673170731707317,
13573494,2519.53125,6944,-4.25751072961373,-14208,-8.71122011036174,-3904,2.39362354383814,-11,3.90243902439024,-64,0.670731707317073,2,-0.121951219512195,-87,0.378260869565217,38,0.165217391304348,139,-0.678048780487805,
13574134,2539.0625,6880,-4.21827099938688,-14176,-8.69160024524831,-3936,2.41324340895156,-33,3.96341463414634,-65,2.01219512195122,3,-0.182926829268293,-87,0.378260869565217,37,0.160869565217391,137,-0.668292682926829,
13574774,2558.59375,6912,-4.23789086450031,-14112,-8.65236051502146,-3888,2.38381361128142,-31,3.96341463414634,-65,1.89024390243902,3,-0.182926829268293,-85,0.369565217391304,34,0.147826086956522,138,-0.673170731707317,
13575414,2578.125,6960,-4.26732066217045,-14064,-8.62293071735132,-3872,2.37400367872471,-18,3.59756097560976,-59,1.09756097560976,4,-0.24390243902439,-86,0.373913043478261,36,0.156521739130435,139,-0.678048780487805,
13576054,2597.65625,6944,-4.25751072961373,-14096,-8.64255058246474,-3888,2.38381361128142,-2,3.59756097560976,-59,0.121951219512195,13,-0.792682926829268,-86,0.373913043478261,36,0.156521739130435,138,-0.673170731707317,
13576694,2617.1875,6848,-4.19865113427345,-14128,-8.66217044757817,-3904,2.39362354383814,-1,3.53658536585366,-58,0.0609756097560976,20,-1.21951219512195,-85,0.369565217391304,34,0.147826086956522,139,-0.678048780487805,
13577334,2636.71875,6816,-4.17903126916002,-14112,-8.65236051502146,-3952,2.42305334150828,-11,3.47560975609756,-57,0.670731707317073,21,-1.28048780487805,-86,0.373913043478261,32,0.139130434782609,140,-0.682926829268293,
13577974,2656.25,6832,-4.18884120171674,-14112,-8.65236051502146,-3888,2.38381361128142,-12,2.98780487804878,-49,0.731707317073171,27,-1.64634146341463,-87,0.378260869565217,33,0.143478260869565,140,-0.682926829268293,
13578614,2675.78125,6848,-4.19865113427345,-14112,-8.65236051502146,-3888,2.38381361128142,3,3.17073170731707,-52,-0.182926829268293,32,-1.95121951219512,-87,0.378260869565217,39,0.169565217391304,138,-0.673170731707317,
13579254,2695.3125,6848,-4.19865113427345,-14096,-8.64255058246474,-3824,2.34457388105457,11,2.68292682926829,-44,-0.670731707317073,39,-2.37804878048781,-84,0.365217391304348,32,0.139130434782609,139,-0.678048780487805,
13579894,2714.84375,6880,-4.21827099938688,-14112,-8.65236051502146,-3856,2.364193746168,11,2.5609756097561,-42,-0.670731707317073,44,-2.68292682926829,-87,0.378260869565217,31,0.134782608695652,140,-0.682926829268293,
13580534,2734.375,6848,-4.19865113427345,-14032,-8.60331085223789,-3856,2.364193746168,8,2.19512195121951,-36,-0.487804878048781,52,-3.17073170731707,-86,0.373913043478261,31,0.134782608695652,139,-0.678048780487805,
13581174,2753.90625,6864,-4.20846106683017,-14032,-8.60331085223789,-3904,2.39362354383814,3,2.19512195121951,-36,-0.182926829268293,55,-3.35365853658537,-85,0.369565217391304,35,0.152173913043478,138,-0.673170731707317,
13581814,2773.4375,6848,-4.19865113427345,-13984,-8.57388105456775,-3904,2.39362354383814,-2,2.07317073170732,-34,0.121951219512195,57,-3.47560975609756,-84,0.365217391304348,31,0.134782608695652,140,-0.682926829268293,
13582454,2792.96875,6912,-4.23789086450031,-14112,-8.65236051502146,-3920,2.40343347639485,4,1.76829268292683,-29,-0.24390243902439,62,-3.78048780487805,-86,0.373913043478261,35,0.152173913043478,139,-0.678048780487805,
13583094,2812.5,6896,-4.22808093194359,-14208,-8.71122011036174,-3856,2.364193746168,20,1.64634146341463,-27,-1.21951219512195,70,-4.26829268292683,-87,0.378260869565217,36,0.156521739130435,139,-0.678048780487805,
13583734,2832.03125,6848,-4.19865113427345,-14224,-8.72103004291846,-3840,2.35438381361128,30,1.21951219512195,-20,-1.82926829268293,79,-4.81707317073171,-84,0.365217391304348,32,0.139130434782609,139,-0.678048780487805,
13584374,2851.5625,6832,-4.18884120171674,-14240,-8.73083997547517,-3808,2.33476394849785,24,0.975609756097561,-16,-1.46341463414634,79,-4.81707317073171,-84,0.365217391304348,32,0.139130434782609,140,-0.682926829268293,
13585014,2871.09375,6816,-4.17903126916002,-14224,-8.72103004291846,-3824,2.34457388105457,11,0.670731707317073,-11,-0.670731707317073,75,-4.57317073170732,-86,0.373913043478261,36,0.156521739130435,138,-0.673170731707317,
13585654,2890.625,6848,-4.19865113427345,-14192,-8.70141017780503,-3872,2.37400367872471,12,0.792682926829268,-13,-0.731707317073171,74,-4.51219512195122,-84,0.365217391304348,35,0.152173913043478,137,-0.668292682926829,
13586294,2910.15625,6880,-4.21827099938688,-14208,-8.71122011036174,-3840,2.35438381361128,17,0.914634146341463,-15,-1.03658536585366,70,-4.26829268292683,-85,0.369565217391304,36,0.156521739130435,140,-0.682926829268293,
13586934,2929.6875,6752,-4.13979153893317,-14240,-8.73083997547517,-3872,2.37400367872471,27,1.09756097560976,-18,-1.64634146341463,64,-3.90243902439024,-83,0.360869565217391,33,0.143478260869565,139,-0.678048780487805,
13587574,2949.21875,6704,-4.11036174126303,-14256,-8.74064990803188,-3824,2.34457388105457,22,1.21951219512195,-20,-1.34146341463415,61,-3.71951219512195,-83,0.360869565217391,36,0.156521739130435,138,-0.673170731707317,
13588214,2968.75,6688,-4.10055180870631,-14304,-8.77007970570202,-3808,2.33476394849785,4,1.34146341463415,-22,-0.24390243902439,56,-3.41463414634146,-83,0.360869565217391,35,0.152173913043478,139,-0.678048780487805,
13588854,2988.28125,6672,-4.0907418761496,-14240,-8.73083997547517,-3824,2.34457388105457,2,1.21951219512195,-20,-0.121951219512195,47,-2.86585365853659,-84,0.365217391304348,33,0.143478260869565,139,-0.678048780487805,
13589494,3007.8125,6736,-4.12998160637646,-14240,-8.73083997547517,-3792,2.32495401594114,7,1.15853658536585,-19,-0.426829268292683,44,-2.68292682926829,-85,0.369565217391304,32,0.139130434782609,139,-0.678048780487805,
13590134,3027.34375,6704,-4.11036174126303,-14288,-8.76026977314531,-3760,2.30533415082771,18,1.34146341463415,-22,-1.09756097560976,41,-2.5,-86,0.373913043478261,32,0.139130434782609,138,-0.673170731707317,
13590774,3046.875,6656,-4.08093194359289,-14256,-8.74064990803188,-3744,2.295524218271,6,1.64634146341463,-27,-0.365853658536585,40,-2.4390243902439,-82,0.356521739130435,32,0.139130434782609,138,-0.673170731707317,
13591414,3066.40625,6608,-4.05150214592275,-14336,-8.78969957081545,-3760,2.30533415082771,-3,1.89024390243902,-31,0.182926829268293,38,-2.31707317073171,-83,0.360869565217391,37,0.160869565217391,138,-0.673170731707317,
13592054,3085.9375,6624,-4.06131207847946,-14336,-8.78969957081545,-3808,2.33476394849785,-9,1.89024390243902,-31,0.548780487804878,32,-1.95121951219512,-85,0.369565217391304,35,0.152173913043478,139,-0.678048780487805,
13592694,3105.46875,6704,-4.11036174126303,-14336,-8.78969957081545,-3856,2.364193746168,-5,1.70731707317073,-28,0.304878048780488,30,-1.82926829268293,-83,0.360869565217391,31,0.134782608695652,138,-0.673170731707317,
13593334,3125,6688,-4.10055180870631,-14304,-8.77007970570202,-3888,2.38381361128142,3,1.70731707317073,-28,-0.182926829268293,29,-1.76829268292683,-83,0.360869565217391,32,0.139130434782609,139,-0.678048780487805,
13593974,3144.53125,6560,-4.02207234825261,-14336,-8.78969957081545,-3808,2.33476394849785,8,1.89024390243902,-31,-0.487804878048781,28,-1.70731707317073,-83,0.360869565217391,36,0.156521739130435,138,-0.673170731707317,
13594614,3164.0625,6528,-4.00245248313918,-14320,-8.77988963825874,-3808,2.33476394849785,-2,2.07317073170732,-34,0.121951219512195,31,-1.89024390243902,-84,0.365217391304348,34,0.147826086956522,138,-0.673170731707317,
13595254,3183.59375,6528,-4.00245248313918,-14384,-8.81912936848559,-3680,2.25628448804414,-15,2.07317073170732,-34,0.914634146341463,33,-2.01219512195122,-81,0.352173913043478,32,0.139130434782609,138,-0.673170731707317,
13595894,3203.125,6528,-4.00245248313918,-14400,-8.8289393010423,-3744,2.295524218271,-15,2.01219512195122,-33,0.914634146341463,34,-2.07317073170732,-83,0.360869565217391,31,0.134782608695652,140,-0.682926829268293,
13596534,3222.65625,6480,-3.97302268546904,-14384,-8.81912936848559,-3744,2.295524218271,-9,1.89024390243902,-31,0.548780487804878,39,-2.37804878048781,-82,0.356521739130435,35,0.152173913043478,137,-0.668292682926829,
13597174,3242.1875,6432,-3.9435928877989,-14416,-8.83874923359902,-3712,2.27590435315757,-2,2.01219512195122,-33,0.121951219512195,37,-2.25609756097561,-84,0.365217391304348,36,0.156521739130435,137,-0.668292682926829,
13597814,3261.71875,6352,-3.89454322501533,-14464,-8.86817903126916,-3632,2.226854690374,1,2.01219512195122,-33,-0.0609756097560976,38,-2.31707317073171,-85,0.369565217391304,34,0.147826086956522,139,-0.678048780487805,
13598454,3281.25,6384,-3.91416309012876,-14432,-8.84855916615573,-3648,2.23666462293072,0,1.89024390243902,-31,0,37,-2.25609756097561,-86,0.373913043478261,36,0.156521739130435,138,-0.673170731707317,
13599094,3300.78125,6432,-3.9435928877989,-14432,-8.84855916615573,-3680,2.25628448804414,17,2.07317073170732,-34,-1.03658536585366,42,-2.5609756097561,-82,0.356521739130435,34,0.147826086956522,137,-0.668292682926829,
13599734,3320.3125,6400,-3.92397302268547,-14480,-8.87798896382587,-3728,2.28571428571429,39,1.76829268292683,-29,-2.37804878048781,50,-3.04878048780488,-82,0.356521739130435,32,0.139130434782609,139,-0.678048780487805,
13600374,3339.84375,6240,-3.82587369711833,-14416,-8.83874923359902,-3712,2.27590435315757,30,1.58536585365854,-26,-1.82926829268293,56,-3.41463414634146,-83,0.360869565217391,32,0.139130434782609,138,-0.673170731707317,
13601014,3359.375,6192,-3.79644389944819,-14432,-8.84855916615573,-3792,2.32495401594114,2,1.76829268292683,-29,-0.121951219512195,57,-3.47560975609756,-82,0.356521739130435,38,0.165217391304348,138,-0.673170731707317,
13601654,3378.90625,6272,-3.84549356223176,-14432,-8.84855916615573,-3856,2.364193746168,-5,1.95121951219512,-32,0.304878048780488,59,-3.59756097560976,-81,0.352173913043478,33,0.143478260869565,137,-0.668292682926829,
13602294,3398.4375,6240,-3.82587369711833,-14448,-8.85836909871245,-3744,2.295524218271,5,1.89024390243902,-31,-0.304878048780488,67,-4.08536585365854,-84,0.365217391304348,41,0.178260869565217,136,-0.663414634146342,
13602934,3417.96875,6288,-3.85530349478847,-14432,-8.84855916615573,-3632,2.226854690374,10,1.82926829268293,-30,-0.609756097560976,66,-4.02439024390244,-82,0.356521739130435,36,0.156521739130435,138,-0.673170731707317,
13603574,3437.5,6256,-3.83568362967505,-14480,-8.87798896382587,-3696,2.26609442060086,6,1.82926829268293,-30,-0.365853658536585,69,-4.20731707317073,-83,0.360869565217391,36,0.156521739130435,137,-0.668292682926829,
13604214,3457.03125,6272,-3.84549356223176,-14448,-8.85836909871245,-3680,2.25628448804414,16,1.70731707317073,-28,-0.975609756097561,66,-4.02439024390244,-80,0.347826086956522,33,0.143478260869565,139,-0.678048780487805,
13604854,3476.5625,6336,-3.88473329245861,-14384,-8.81912936848559,-3696,2.26609442060086,15,1.58536585365854,-26,-0.914634146341463,65,-3.96341463414634,-82,0.356521739130435,38,0.165217391304348,136,-0.663414634146342,
13605494,3496.09375,6352,-3.89454322501533,-14512,-8.8976088289393,-3680,2.25628448804414,13,1.89024390243902,-31,-0.792682926829268,66,-4.02439024390244,-81,0.352173913043478,36,0.156521739130435,136,-0.663414634146342,
13606134,3515.625,6272,-3.84549356223176,-14672,-8.99570815450644,-3680,2.25628448804414,8,2.07317073170732,-34,-0.487804878048781,70,-4.26829268292683,-81,0.352173913043478,34,0.147826086956522,137,-0.668292682926829,
13606774,3535.15625,6208,-3.8062538320049,-14656,-8.98589822194972,-3728,2.28571428571429,9,2.01219512195122,-33,-0.548780487804878,71,-4.32926829268293,-81,0.352173913043478,33,0.143478260869565,138,-0.673170731707317,
13607414,3554.6875,6272,-3.84549356223176,-14608,-8.95646842427958,-3712,2.27590435315757,4,1.89024390243902,-31,-0.24390243902439,63,-3.84146341463415,-81,0.352173913043478,36,0.156521739130435,138,-0.673170731707317,
13608054,3574.21875,6272,-3.84549356223176,-14512,-8.8976088289393,-3760,2.30533415082771,7,2.13414634146341,-35,-0.426829268292683,53,-3.23170731707317,-80,0.347826086956522,35,0.152173913043478,138,-0.673170731707317,
13608694,3593.75,6352,-3.89454322501533,-14576,-8.93684855916615,-3792,2.32495401594114,21,2.5,-41,-1.28048780487805,40,-2.4390243902439,-82,0.356521739130435,34,0.147826086956522,138,-0.673170731707317,
13609334,3613.28125,6272,-3.84549356223176,-14592,-8.94665849172287,-3760,2.30533415082771,23,2.98780487804878,-49,-1.40243902439024,22,-1.34146341463415,-82,0.356521739130435,34,0.147826086956522,137,-0.668292682926829,
13609974,3632.8125,6272,-3.84549356223176,-14720,-9.02513795217658,-3712,2.27590435315757,27,3.35365853658537,-55,-1.64634146341463,4,-0.24390243902439,-80,0.347826086956522,33,0.143478260869565,137,-0.668292682926829,
13610614,3652.34375,6224,-3.81606376456162,-14688,-9.00551808706315,-3808,2.33476394849785,17,3.78048780487805,-62,-1.03658536585366,-12,0.731707317073171,-81,0.352173913043478,33,0.143478260869565,136,-0.663414634146342,
13611254,3671.875,6192,-3.79644389944819,-14608,-8.95646842427958,-3808,2.33476394849785,7,3.90243902439024,-64,-0.426829268292683,-16,0.975609756097561,-81,0.352173913043478,39,0.169565217391304,137,-0.668292682926829,
13611894,3691.40625,6224,-3.81606376456162,-14480,-8.87798896382587,-3792,2.32495401594114,-6,4.14634146341463,-68,0.365853658536585,-16,0.975609756097561,-82,0.356521739130435,36,0.156521739130435,138,-0.673170731707317,
13612534,3710.9375,6224,-3.81606376456162,-14464,-8.86817903126916,-3728,2.28571428571429,-7,4.32926829268293,-71,0.426829268292683,-14,0.853658536585366,-80,0.347826086956522,32,0.139130434782609,138,-0.673170731707317,
13613174,3730.46875,6272,-3.84549356223176,-14560,-8.92703862660944,-3728,2.28571428571429,-3,4.32926829268293,-71,0.182926829268293,-14,0.853658536585366,-80,0.347826086956522,32,0.139130434782609,139,-0.678048780487805,
13613814,3750,6240,-3.82587369711833,-14528,-8.90741876149601,-3744,2.295524218271,8,4.20731707317073,-69,-0.487804878048781,-14,0.853658536585366,-83,0.360869565217391,34,0.147826086956522,138,-0.673170731707317,
13614454,3769.53125,6224,-3.81606376456162,-14560,-8.92703862660944,-3728,2.28571428571429,14,3.90243902439024,-64,-0.853658536585366,-16,0.975609756097561,-80,0.347826086956522,35,0.152173913043478,136,-0.663414634146342,
13615094,3789.0625,6256,-3.83568362967505,-14528,-8.90741876149601,-3648,2.23666462293072,20,3.90243902439024,-64,-1.21951219512195,-21,1.28048780487805,-79,0.343478260869565,32,0.139130434782609,138,-0.673170731707317,
13615734,3808.59375,6256,-3.83568362967505,-14496,-8.88779889638259,-3760,2.30533415082771,26,3.53658536585366,-58,-1.58536585365854,-13,0.792682926829268,-80,0.347826086956522,32,0.139130434782609,137,-0.668292682926829,
13616374,3828.125,6304,-3.86511342734519,-14528,-8.90741876149601,-3696,2.26609442060086,37,3.65853658536585,-60,-2.25609756097561,-10,0.609756097560976,-80,0.347826086956522,36,0.156521739130435,137,-0.668292682926829,
13617014,3847.65625,6256,-3.83568362967505,-14496,-8.88779889638259,-3712,2.27590435315757,41,3.59756097560976,-59,-2.5,-19,1.15853658536585,-80,0.347826086956522,35,0.152173913043478,137,-0.668292682926829,
13617654,3867.1875,6272,-3.84549356223176,-14544,-8.91722869405273,-3696,2.26609442060086,43,3.47560975609756,-57,-2.6219512195122,-27,1.64634146341463,-82,0.356521739130435,33,0.143478260869565,139,-0.678048780487805,
13618294,3886.71875,6256,-3.83568362967505,-14576,-8.93684855916615,-3632,2.226854690374,41,3.53658536585366,-58,-2.5,-41,2.5,-82,0.356521739130435,35,0.152173913043478,136,-0.663414634146342,
13618934,3906.25,6256,-3.83568362967505,-14512,-8.8976088289393,-3728,2.28571428571429,36,3.59756097560976,-59,-2.19512195121951,-48,2.92682926829268,-80,0.347826086956522,33,0.143478260869565,137,-0.668292682926829,
13619574,3925.78125,6400,-3.92397302268547,-14512,-8.8976088289393,-3792,2.32495401594114,35,3.71951219512195,-61,-2.13414634146341,-60,3.65853658536585,-80,0.347826086956522,32,0.139130434782609,138,-0.673170731707317,
13620214,3945.3125,6544,-4.01226241569589,-14576,-8.93684855916615,-3760,2.30533415082771,46,3.84146341463415,-63,-2.80487804878049,-78,4.75609756097561,-80,0.347826086956522,33,0.143478260869565,138,-0.673170731707317,
13620854,3964.84375,7136,-4.3752299202943,-14768,-9.05456774984672,-3616,2.21704475781729,86,2.4390243902439,-40,-5.24390243902439,-83,5.0609756097561,-82,0.356521739130435,38,0.165217391304348,138,-0.673170731707317,
13621494,3984.375,7728,-4.7381974248927,-14800,-9.07418761496015,-3584,2.19742489270386,208,1.40243902439024,-23,-12.6829268292683,-76,4.63414634146342,-80,0.347826086956522,32,0.139130434782609,138,-0.673170731707317,
13622134,4003.90625,7744,-4.74800735744942,-14416,-8.83874923359902,-3776,2.31514408338443,311,1.34146341463415,-22,-18.9634146341463,-96,5.85365853658537,-80,0.347826086956522,34,0.147826086956522,139,-0.678048780487805,
13622774,4023.4375,7360,-4.51256897608829,-14064,-8.62293071735132,-3920,2.40343347639485,272,2.07317073170732,-34,-16.5853658536585,-156,9.51219512195122,-81,0.352173913043478,35,0.152173913043478,138,-0.673170731707317,
13623414,4042.96875,7264,-4.45370938074801,-14080,-8.63274064990803,-3968,2.43286327406499,160,3.53658536585366,-58,-9.75609756097561,-250,15.2439024390244,-81,0.352173913043478,36,0.156521739130435,138,-0.673170731707317,
13624054,4062.5,7360,-4.51256897608829,-14080,-8.63274064990803,-4016,2.46229307173513,115,4.75609756097561,-78,-7.01219512195122,-342,20.8536585365854,-81,0.352173913043478,32,0.139130434782609,139,-0.678048780487805,
13624694,4082.03125,7296,-4.47332924586143,-14128,-8.66217044757817,-3952,2.42305334150828,134,5.67073170731707,-93,-8.17073170731707,-401,24.4512195121951,-80,0.347826086956522,32,0.139130434782609,140,-0.682926829268293,
13625334,4101.5625,7248,-4.44389944819129,-14224,-8.72103004291846,-3984,2.4426732066217,175,5.60975609756098,-92,-10.6707317073171,-433,26.4024390243902,-81,0.352173913043478,36,0.156521739130435,136,-0.663414634146342,
13625974,4121.09375,6976,-4.27713059472716,-14256,-8.74064990803188,-3856,2.364193746168,199,5.1219512195122,-84,-12.1341463414634,-446,27.1951219512195,-82,0.356521739130435,36,0.156521739130435,136,-0.663414634146342,
13626614,4140.625,6720,-4.12017167381974,-14192,-8.70141017780503,-3840,2.35438381361128,211,4.75609756097561,-78,-12.8658536585366,-441,26.890243902439,-82,0.356521739130435,36,0.156521739130435,138,-0.673170731707317,
13627254,4160.15625,6528,-4.00245248313918,-14208,-8.71122011036174,-3840,2.35438381361128,203,3.78048780487805,-62,-12.3780487804878,-429,26.1585365853659,-84,0.365217391304348,34,0.147826086956522,139,-0.678048780487805,
13627894,4179.6875,6272,-3.84549356223176,-14176,-8.69160024524831,-3888,2.38381361128142,199,3.41463414634146,-56,-12.1341463414634,-398,24.2682926829268,-82,0.356521739130435,36,0.156521739130435,138,-0.673170731707317,
13628534,4199.21875,6080,-3.7277743715512,-14160,-8.6817903126916,-3856,2.364193746168,178,2.86585365853659,-47,-10.8536585365854,-349,21.280487804878,-85,0.369565217391304,38,0.165217391304348,138,-0.673170731707317,
13629174,4218.75,5952,-3.64929491109749,-13984,-8.57388105456775,-3952,2.42305334150828,158,1.95121951219512,-32,-9.63414634146342,-295,17.9878048780488,-85,0.369565217391304,32,0.139130434782609,139,-0.678048780487805,
13629814,4238.28125,6000,-3.67872470876763,-13968,-8.56407112201104,-3952,2.42305334150828,127,1.34146341463415,-22,-7.74390243902439,-238,14.5121951219512,-84,0.365217391304348,36,0.156521739130435,137,-0.668292682926829,
13630454,4257.8125,6080,-3.7277743715512,-13856,-8.49540159411404,-4160,2.55058246474555,98,0.121951219512195,-2,-5.97560975609756,-185,11.280487804878,-82,0.356521739130435,32,0.139130434782609,138,-0.673170731707317,
13631094,4277.34375,6368,-3.90435315757204,-13872,-8.50521152667075,-4288,2.62906192519926,101,-0.548780487804878,9,-6.15853658536585,-138,8.41463414634146,-83,0.360869565217391,32,0.139130434782609,137,-0.668292682926829,
13631734,4296.875,6560,-4.02207234825261,-13920,-8.53464132434089,-4368,2.67811158798283,129,-0.609756097560976,10,-7.86585365853659,-98,5.97560975609756,-84,0.365217391304348,36,0.156521739130435,137,-0.668292682926829,
13632374,4316.40625,6544,-4.01226241569589,-14048,-8.6131207847946,-4464,2.73697118332311,143,-0.548780487804878,9,-8.71951219512195,-75,4.57317073170732,-85,0.369565217391304,37,0.160869565217391,138,-0.673170731707317,
13633014,4335.9375,6528,-4.00245248313918,-14144,-8.67198038013489,-4448,2.7271612507664,111,0.975609756097561,-16,-6.76829268292683,-75,4.57317073170732,-83,0.360869565217391,33,0.143478260869565,139,-0.678048780487805,
13633654,4355.46875,6624,-4.06131207847946,-14064,-8.62293071735132,-4448,2.7271612507664,55,1.89024390243902,-31,-3.35365853658537,-91,5.54878048780488,-84,0.365217391304348,32,0.139130434782609,139,-0.678048780487805,
13634294,4375,6928,-4.24770079705702,-14080,-8.63274064990803,-4496,2.75659104843654,24,2.31707317073171,-38,-1.46341463414634,-92,5.60975609756098,-86,0.373913043478261,35,0.152173913043478,136,-0.663414634146342,
13634934,4394.53125,7248,-4.44389944819129,-14048,-8.6131207847946,-4432,2.71735131820969,55,2.5609756097561,-42,-3.35365853658537,-87,5.30487804878049,-84,0.365217391304348,37,0.160869565217391,137,-0.668292682926829,
13635574,4414.0625,7152,-4.38503985285101,-14080,-8.63274064990803,-4368,2.67811158798283,111,2.92682926829268,-48,-6.76829268292683,-62,3.78048780487805,-82,0.356521739130435,32,0.139130434782609,139,-0.678048780487805,
13636214,4433.59375,6944,-4.25751072961373,-14064,-8.62293071735132,-4352,2.66830165542612,109,3.47560975609756,-57,-6.64634146341464,-46,2.80487804878049,-83,0.360869565217391,33,0.143478260869565,138,-0.673170731707317,
13636854,4453.125,6816,-4.17903126916002,-14000,-8.58369098712446,-4368,2.67811158798283,35,4.57317073170732,-75,-2.13414634146341,-49,2.98780487804878,-82,0.356521739130435,35,0.152173913043478,138,-0.673170731707317,
13637494,4472.65625,6832,-4.18884120171674,-13904,-8.52483139178418,-4288,2.62906192519926,-34,5.54878048780488,-91,2.07317073170732,-64,3.90243902439024,-85,0.369565217391304,39,0.169565217391304,138,-0.673170731707317,
13638134,4492.1875,7136,-4.3752299202943,-13888,-8.51502145922747,-4144,2.54077253218884,-38,5.60975609756098,-92,2.31707317073171,-72,4.39024390243902,-86,0.373913043478261,35,0.152173913043478,139,-0.678048780487805,
13638774,4511.71875,7168,-4.39484978540773,-13888,-8.51502145922747,-4080,2.50153280196199,14,5.36585365853659,-88,-0.853658536585366,-67,4.08536585365854,-86,0.373913043478261,37,0.160869565217391,137,-0.668292682926829,
13639414,4531.25,7024,-4.3065603923973,-13904,-8.52483139178418,-4080,2.50153280196199,47,5.18292682926829,-85,-2.86585365853659,-56,3.41463414634146,-83,0.360869565217391,33,0.143478260869565,138,-0.673170731707317,
13640054,4550.78125,6864,-4.20846106683017,-13792,-8.45616186388719,-4080,2.50153280196199,20,5,-82,-1.21951219512195,-38,2.31707317073171,-85,0.369565217391304,33,0.143478260869565,138,-0.673170731707317,
13640694,4570.3125,6848,-4.19865113427345,-13776,-8.44635193133047,-4080,2.50153280196199,-33,4.63414634146342,-76,2.01219512195122,-22,1.34146341463415,-84,0.365217391304348,36,0.156521739130435,138,-0.673170731707317,
13641334,4589.84375,7056,-4.32618025751073,-13744,-8.42673206621704,-4032,2.47210300429185,-60,4.39024390243902,-72,3.65853658536585,-11,0.670731707317073,-84,0.365217391304348,36,0.156521739130435,139,-0.678048780487805,
13641974,4609.375,7216,-4.42427958307787,-13632,-8.35806253832005,-4048,2.48191293684856,-38,3.96341463414634,-65,2.31707317073171,-5,0.304878048780488,-83,0.360869565217391,33,0.143478260869565,139,-0.678048780487805,
13642614,4628.90625,7312,-4.48313917841815,-13616,-8.34825260576334,-4112,2.52115266707541,3,3.04878048780488,-50,-0.182926829268293,7,-0.426829268292683,-83,0.360869565217391,32,0.139130434782609,139,-0.678048780487805,
13643254,4648.4375,7376,-4.522378908645,-13616,-8.34825260576334,-4288,2.62906192519926,24,2.6219512195122,-43,-1.46341463414634,19,-1.15853658536585,-85,0.369565217391304,35,0.152173913043478,138,-0.673170731707317,
13643894,4667.96875,7664,-4.69895769466585,-13568,-8.31882280809319,-4640,2.84488044144697,17,2.5609756097561,-42,-1.03658536585366,23,-1.40243902439024,-84,0.365217391304348,33,0.143478260869565,137,-0.668292682926829,
13644534,4687.5,8320,-5.10116492949111,-13344,-8.1814837522992,-5520,3.38442673206622,-21,1.58536585365854,-26,1.28048780487805,4,-0.24390243902439,-85,0.369565217391304,31,0.134782608695652,139,-0.678048780487805,
13645174,4707.03125,9568,-5.86633966891478,-13392,-8.21091354996934,-7216,4.42427958307787,-101,-0.0609756097560976,1,6.15853658536585,-27,1.64634146341463,-83,0.360869565217391,36,0.156521739130435,136,-0.663414634146342,
13645814,4726.5625,11408,-6.99448191293685,-13248,-8.12262415695892,-9520,5.83690987124464,-110,4.63414634146342,-76,6.70731707317073,-22,1.34146341463415,-83,0.360869565217391,35,0.152173913043478,138,-0.673170731707317,
13646454,4746.09375,15664,-9.60392397302268,-13040,-7.99509503372164,-11104,6.80809319435929,128,12.7439024390244,-209,-7.80487804878049,-46,2.80487804878049,-83,0.360869565217391,33,0.143478260869565,139,-0.678048780487805,
13647094,4765.625,19248,-11.8013488657265,-13888,-8.51502145922747,-11872,7.27896995708154,584,21.9512195121951,-360,-35.609756097561,-280,17.0731707317073,-85,0.369565217391304,35,0.152173913043478,137,-0.668292682926829,
13647734,4785.15625,18496,-11.340282035561,-14944,-9.16247700797057,-12528,7.68117719190681,1180,39.6951219512195,-651,-71.9512195121951,-646,39.390243902439,-83,0.360869565217391,34,0.147826086956522,139,-0.678048780487805,
13648374,4804.6875,16656,-10.2121397915389,-15360,-9.41753525444513,-14112,8.65236051502146,1309,56.9512195121951,-934,-79.8170731707317,-1088,66.3414634146341,-82,0.356521739130435,32,0.139130434782609,140,-0.682926829268293,
13649014,4824.21875,16560,-10.1532801961987,-15264,-9.35867565910484,-15360,9.41753525444513,1045,72.5,-1189,-63.719512195122,-1371,83.5975609756098,-86,0.373913043478261,32,0.139130434782609,143,-0.697560975609756,
13649654,4843.75,17920,-10.9871244635193,-14928,-9.15266707541386,-15760,9.66278356836297,1118,85,-1394,-68.1707317073171,-1556,94.8780487804878,-83,0.360869565217391,30,0.130434782608696,146,-0.712195121951219,
13650294,4863.28125,18608,-11.408951563458,-15392,-9.43715511955855,-15056,9.23114653586757,1571,94.6341463414634,-1552,-95.7926829268293,-1601,97.6219512195122,-82,0.356521739130435,25,0.108695652173913,145,-0.707317073170732,
13650934,4882.8125,17856,-10.9478847332925,-15440,-9.46658491722869,-14128,8.66217044757817,2188,106.524390243902,-1747,-133.414634146341,-1641,100.060975609756,-83,0.360869565217391,23,0.1,150,-0.731707317073171,
13651574,4902.34375,16080,-9.85898221949724,-15488,-9.49601471489883,-14272,8.7504598405886,2610,115.792682926829,-1899,-159.146341463415,-1588,96.8292682926829,-83,0.360869565217391,25,0.108695652173913,152,-0.741463414634146,
13652214,4921.875,14144,-8.67198038013489,-15696,-9.62354383813611,-14544,8.91722869405273,2607,123.841463414634,-2031,-158.963414634146,-1425,86.890243902439,-76,0.330434782608696,19,0.0826086956521739,154,-0.751219512195122,
13652854,4941.40625,13296,-8.15205395462906,-15840,-9.71183323114654,-14528,8.90741876149601,2341,131.951219512195,-2164,-142.743902439024,-1257,76.6463414634146,-73,0.317391304347826,13,0.0565217391304348,157,-0.765853658536585,
13653494,4960.9375,12800,-7.84794604537094,-16272,-9.9767014101778,-13680,8.38749233599019,2161,137.560975609756,-2256,-131.768292682927,-1151,70.1829268292683,-70,0.304347826086957,8,0.0347826086956522,159,-0.775609756097561,
13654134,4980.46875,12176,-7.4653586756591,-16128,-9.88841201716738,-12016,7.36725935009197,2026,141.890243902439,-2327,-123.536585365854,-1159,70.6707317073171,-68,0.295652173913043,7,0.0304347826086957,159,-0.775609756097561,
13654774,5000,11680,-7.16125076640098,-15504,-9.50582464745555,-10992,6.73942366646229,2121,142.682926829268,-2340,-129.329268292683,-1193,72.7439024390244,-63,0.273913043478261,3,0.0130434782608696,162,-0.790243902439024,
13655414,5019.53125,10048,-6.16063764561619,-14944,-9.16247700797057,-10288,6.30778663396689,2383,141.646341463415,-2323,-145.30487804878,-1150,70.1219512195122,-59,0.256521739130435,-2,-0.00869565217391304,164,-0.8,
13656054,5039.0625,7616,-4.66952789699571,-14144,-8.67198038013489,-9200,5.64071122011036,2540,142.621951219512,-2339,-154.878048780488,-1093,66.6463414634146,-54,0.234782608695652,-6,-0.0260869565217391,165,-0.804878048780488,
13656694,5058.59375,4912,-3.0116492949111,-12656,-7.75965665236051,-7952,4.8755364806867,2351,145.121951219512,-2380,-143.353658536585,-1041,63.4756097560976,-53,0.230434782608696,-6,-0.0260869565217391,164,-0.8,
13657334,5078.125,3792,-2.32495401594114,-10960,-6.71980380134887,-7744,4.74800735744942,1878,140.731707317073,-2308,-114.512195121951,-1060,64.6341463414634,-45,0.195652173913043,-15,-0.0652173913043478,165,-0.804878048780488,
13657974,5097.65625,3184,-1.95217657878602,-9312,-5.70938074800736,-7872,4.82648681790313,1692,134.329268292683,-2203,-103.170731707317,-926,56.4634146341463,-44,0.191304347826087,-15,-0.0652173913043478,164,-0.8,
13658614,5117.1875,1824,-1.11833231146536,-7952,-4.8755364806867,-7664,4.69895769466585,1627,126.036585365854,-2067,-99.2073170731707,-777,47.3780487804878,-39,0.169565217391304,-24,-0.104347826086957,165,-0.804878048780488,
13659254,5136.71875,272,-0.166768853464132,-6352,-3.89454322501533,-7104,4.35561005518087,1461,119.268292682927,-1956,-89.0853658536585,-622,37.9268292682927,-35,0.152173913043478,-26,-0.11304347826087,165,-0.804878048780488,
13659894,5156.25,0,0,-4976,-3.05088902513795,-6672,4.0907418761496,1121,106.280487804878,-1743,-68.3536585365854,-481,29.3292682926829,-34,0.147826086956522,-30,-0.130434782608696,163,-0.795121951219512,
13660534,5175.78125,384,-0.235438381361128,-3904,-2.39362354383814,-6400,3.92397302268547,858,92.8048780487805,-1522,-52.3170731707317,-379,23.109756097561,-31,0.134782608695652,-27,-0.117391304347826,163,-0.795121951219512,
13661174,5195.3125,752,-0.461066830165543,-2752,-1.68730839975475,-6464,3.96321275291232,802,80,-1312,-48.9024390243902,-278,16.9512195121951,-30,0.130434782608696,-30,-0.130434782608696,163,-0.795121951219512,
13661814,5214.84375,752,-0.461066830165543,-1952,-1.19681177191907,-6752,4.13979153893317,898,67.0731707317073,-1100,-54.7560975609756,-169,10.3048780487805,-29,0.126086956521739,-26,-0.11304347826087,159,-0.775609756097561,
13662454,5234.375,256,-0.156958920907419,-1344,-0.824034334763949,-7264,4.45370938074801,1043,57.0121951219512,-935,-63.5975609756098,-78,4.75609756097561,-26,0.11304347826087,-34,-0.147826086956522,160,-0.780487804878049,
13663094,5253.90625,-208,0.127529123237278,-816,-0.500306560392397,-8112,4.97363580625383,1017,46.4024390243902,-761,-62.0121951219512,-47,2.86585365853659,-25,0.108695652173913,-37,-0.160869565217391,158,-0.770731707317073,
13663734,5273.4375,-208,0.127529123237278,-496,-0.304107909258124,-8576,5.25812385039853,867,35.3658536585366,-580,-52.8658536585366,-15,0.914634146341463,-19,0.0826086956521739,-37,-0.160869565217391,156,-0.760975609756098,
13664374,5292.96875,-144,0.088289393010423,-96,-0.058859595340282,-9440,5.78786020846107,894,25.9146341463415,-425,-54.5121951219512,-3,0.182926829268293,-19,0.0826086956521739,-35,-0.152173913043478,155,-0.75609756097561,
13665014,5312.5,-16,0.00980993255671367,16,0.00980993255671367,-9984,6.12139791538933,989,20.3658536585366,-334,-60.3048780487805,42,-2.5609756097561,-17,0.0739130434782609,-35,-0.152173913043478,154,-0.751219512195122,
13665654,5332.03125,0,0,160,0.0980993255671367,-10160,6.22930717351318,1076,14.1463414634146,-232,-65.609756097561,38,-2.31707317073171,-14,0.0608695652173913,-39,-0.169565217391304,153,-0.746341463414634,
13666294,5351.5625,-272,0.166768853464132,496,0.304107909258124,-10720,6.57265481299816,1152,8.47560975609756,-139,-70.2439024390244,71,-4.32926829268293,-11,0.0478260869565217,-39,-0.169565217391304,152,-0.741463414634146,
13666934,5371.09375,-944,0.578786020846107,576,0.353157572041692,-11456,7.02391171060699,1128,2.31707317073171,-38,-68.780487804878,115,-7.01219512195122,-12,0.0521739130434783,-37,-0.160869565217391,149,-0.726829268292683,
13667574,5390.625,-1488,0.912323727774372,544,0.333537706928265,-12240,7.50459840588596,990,-1.09756097560976,18,-60.3658536585366,139,-8.47560975609756,-10,0.0434782608695652,-42,-0.182608695652174,146,-0.712195121951219,
13668214,5410.15625,-1632,1.00061312078479,496,0.304107909258124,-13472,8.25996321275291,817,-1.82926829268293,30,-49.8170731707317,103,-6.28048780487805,-11,0.0478260869565217,-37,-0.160869565217391,147,-0.717073170731707,
13668854,5429.6875,-2416,1.48129981606376,608,0.37277743715512,-14080,8.63274064990803,690,-0.365853658536585,6,-42.0731707317073,71,-4.32926829268293,-6,0.0260869565217391,-39,-0.169565217391304,146,-0.712195121951219,
13669494,5449.21875,-2848,1.74616799509503,608,0.37277743715512,-14608,8.95646842427958,424,-0.24390243902439,4,-25.8536585365854,22,-1.34146341463415,-5,0.0217391304347826,-38,-0.165217391304348,148,-0.721951219512195,
13670134,5468.75,-2352,1.44206008583691,528,0.323727774371551,-14768,9.05456774984672,196,-0.487804878048781,8,-11.9512195121951,-32,1.95121951219512,-7,0.0304347826086957,-38,-0.165217391304348,146,-0.712195121951219,
13670774,5488.28125,-2096,1.28510116492949,640,0.392397302268547,-14448,8.85836909871245,230,-1.95121951219512,32,-14.0243902439024,-9,0.548780487804878,-4,0.0173913043478261,-43,-0.18695652173913,146,-0.712195121951219,
13671414,5507.8125,-2160,1.32434089515635,640,0.392397302268547,-14656,8.98589822194972,368,-5.1219512195122,84,-22.4390243902439,28,-1.70731707317073,-4,0.0173913043478261,-38,-0.165217391304348,145,-0.707317073170732,
13672054,5527.34375,-2432,1.49110974862048,464,0.284488044144696,-15536,9.52544451256898,473,-7.19512195121951,118,-28.8414634146341,88,-5.36585365853659,-4,0.0173913043478261,-41,-0.178260869565217,143,-0.697560975609756,
13672694,5546.875,-3024,1.85407725321888,304,0.18638871857756,-16256,9.96689147762109,470,-7.4390243902439,122,-28.6585365853659,112,-6.82926829268293,-4,0.0173913043478261,-37,-0.160869565217391,142,-0.692682926829268,
13673334,5566.40625,-3072,1.88350705088903,224,0.137339055793991,-16640,10.2023298589822,372,-5.79268292682927,95,-22.6829268292683,108,-6.58536585365854,-1,0.00434782608695652,-37,-0.160869565217391,141,-0.68780487804878,
13673974,5585.9375,-2576,1.5793991416309,336,0.206008583690987,-16448,10.0846106683017,253,-5.24390243902439,86,-15.4268292682927,89,-5.42682926829268,0,0,-41,-0.178260869565217,143,-0.697560975609756,
13674614,5605.46875,-2208,1.35377069282649,272,0.166768853464132,-16416,10.0649908031882,290,-5.30487804878049,87,-17.6829268292683,104,-6.34146341463415,0,0,-39,-0.169565217391304,142,-0.692682926829268,
13675254,5625,-2752,1.68730839975475,304,0.18638871857756,-16624,10.1925199264255,386,-3.84146341463415,63,-23.5365853658537,121,-7.37804878048781,0,0,-41,-0.178260869565217,141,-0.68780487804878,
13675894,5644.53125,-3456,2.11894543225015,432,0.264868179031269,-16784,10.2906192519926,303,-2.5,41,-18.4756097560976,109,-6.64634146341464,-1,0.00434782608695652,-42,-0.182608695652174,142,-0.692682926829268,
13676534,5664.0625,-3296,2.02084610668302,224,0.137339055793991,-16864,10.3396689147762,97,-0.548780487804878,9,-5.91463414634146,103,-6.28048780487805,-1,0.00434782608695652,-41,-0.178260869565217,139,-0.678048780487805,
13677174,5683.59375,-2768,1.69711833231147,192,0.117719190680564,-16960,10.3985285101165,9,1.76829268292683,-29,-0.548780487804878,69,-4.20731707317073,-1,0.00434782608695652,-41,-0.178260869565217,140,-0.682926829268293,
13677814,5703.125,-2576,1.5793991416309,160,0.0980993255671367,-16848,10.3298589822195,27,4.14634146341463,-68,-1.64634146341463,60,-3.65853658536585,1,-0.00434782608695652,-43,-0.18695652173913,140,-0.682926829268293,
13678454,5722.65625,-2608,1.59901900674433,320,0.196198651134273,-16576,10.1630901287554,30,5,-82,-1.82926829268293,50,-3.04878048780488,0,0,-36,-0.156521739130435,141,-0.68780487804878,
13679094,5742.1875,-2688,1.6480686695279,432,0.264868179031269,-16320,10.0061312078479,27,5.0609756097561,-83,-1.64634146341463,51,-3.10975609756098,0,0,-39,-0.169565217391304,141,-0.68780487804878,
13679734,5761.71875,-2672,1.63825873697118,448,0.274678111587983,-16400,10.0551808706315,57,5.54878048780488,-91,-3.47560975609756,62,-3.78048780487805,1,-0.00434782608695652,-43,-0.18695652173913,141,-0.68780487804878,
13680374,5781.25,-2640,1.61863887185776,544,0.333537706928265,-16320,10.0061312078479,70,6.03658536585366,-99,-4.26829268292683,67,-4.08536585365854,1,-0.00434782608695652,-43,-0.18695652173913,141,-0.68780487804878,
13681014,5800.78125,-2688,1.6480686695279,640,0.392397302268547,-16080,9.85898221949724,41,6.82926829268293,-112,-2.5,64,-3.90243902439024,0,0,-41,-0.178260869565217,141,-0.68780487804878,
13681654,5820.3125,-2752,1.68730839975475,752,0.461066830165543,-15904,9.75107296137339,16,7.5,-123,-0.975609756097561,59,-3.59756097560976,1,-0.00434782608695652,-44,-0.191304347826087,141,-0.68780487804878,
13682294,5839.84375,-2736,1.67749846719804,704,0.431637032495402,-15856,9.72164316370325,-24,7.80487804878049,-128,1.46341463414634,52,-3.17073170731707,1,-0.00434782608695652,-42,-0.182608695652174,139,-0.678048780487805,
13682934,5859.375,-2624,1.60882893930104,816,0.500306560392397,-15664,9.60392397302268,-47,7.98780487804878,-131,2.86585365853659,38,-2.31707317073171,1,-0.00434782608695652,-41,-0.178260869565217,138,-0.673170731707317,
13683574,5878.90625,-2368,1.45187001839362,928,0.568976088289393,-15616,9.57449417535254,-42,6.70731707317073,-110,2.5609756097561,49,-2.98780487804878,2,-0.00869565217391304,-41,-0.178260869565217,140,-0.682926829268293,
13684214,5898.4375,-2448,1.50091968117719,864,0.529736358062538,-15456,9.47639484978541,29,5.42682926829268,-89,-1.76829268292683,52,-3.17073170731707,2,-0.00869565217391304,-42,-0.182608695652174,141,-0.68780487804878,
13684854,5917.96875,-2432,1.49110974862048,848,0.519926425505825,-15760,9.66278356836297,54,4.32926829268293,-71,-3.29268292682927,63,-3.84146341463415,0,0,-44,-0.191304347826087,141,-0.68780487804878,
13685494,5937.5,-2688,1.6480686695279,928,0.568976088289393,-16048,9.83936235438381,86,5.73170731707317,-94,-5.24390243902439,34,-2.07317073170732,2,-0.00869565217391304,-44,-0.191304347826087,140,-0.682926829268293,
13686134,5957.03125,-2928,1.7952176578786,896,0.549356223175966,-16048,9.83936235438381,64,5.85365853658537,-96,-3.90243902439024,30,-1.82926829268293,0,0,-44,-0.191304347826087,139,-0.678048780487805,
13686774,5976.5625,-2944,1.80502759043532,896,0.549356223175966,-15776,9.67259350091968,-25,6.89024390243902,-113,1.52439024390244,-5,0.304878048780488,-1,0.00434782608695652,-41,-0.178260869565217,140,-0.682926829268293,
13687414,5996.09375,-2592,1.58920907418761,864,0.529736358062538,-15536,9.52544451256898,-104,5.18292682926829,-85,6.34146341463415,3,-0.182926829268293,0,0,-40,-0.173913043478261,139,-0.678048780487805,
13688054,6015.625,-2592,1.58920907418761,848,0.519926425505825,-15632,9.58430410790926,7,4.81707317073171,-79,-0.426829268292683,25,-1.52439024390244,0,0,-43,-0.18695652173913,139,-0.678048780487805,
13688694,6035.15625,-2784,1.70692826486818,912,0.559166155732679,-15712,9.63335377069283,41,4.14634146341463,-68,-2.5,32,-1.95121951219512,-1,0.00434782608695652,-41,-0.178260869565217,140,-0.682926829268293,
13689334,6054.6875,-2800,1.71673819742489,848,0.519926425505825,-15824,9.70202329858982,-56,4.45121951219512,-73,3.41463414634146,24,-1.46341463414634,1,-0.00434782608695652,-39,-0.169565217391304,140,-0.682926829268293,
13689974,6074.21875,-2704,1.65787860208461,992,0.608215818516248,-15968,9.79031269160024,-104,4.45121951219512,-73,6.34146341463415,-16,0.975609756097561,0,0,-41,-0.178260869565217,140,-0.682926829268293,
13690614,6093.75,-2544,1.55977927651747,960,0.58859595340282,-15872,9.73145309625996,-60,3.17073170731707,-52,3.65853658536585,-18,1.09756097560976,-1,0.00434782608695652,-44,-0.191304347826087,140,-0.682926829268293,
13691254,6113.28125,-2400,1.47148988350705,976,0.598405885959534,-15824,9.70202329858982,13,2.74390243902439,-45,-0.792682926829268,-14,0.853658536585366,1,-0.00434782608695652,-45,-0.195652173913043,142,-0.692682926829268,
13691894,6132.8125,-2640,1.61863887185776,1024,0.627835683629675,-15952,9.78050275904353,60,2.80487804878049,-46,-3.65853658536585,-17,1.03658536585366,1,-0.00434782608695652,-42,-0.182608695652174,139,-0.678048780487805,
13692534,6152.34375,-2720,1.66768853464132,928,0.568976088289393,-16128,9.88841201716738,60,3.29268292682927,-54,-3.65853658536585,-17,1.03658536585366,1,-0.00434782608695652,-42,-0.182608695652174,140,-0.682926829268293,
13693174,6171.875,-2592,1.58920907418761,864,0.529736358062538,-16032,9.8295524218271,27,3.23170731707317,-53,-1.64634146341463,-22,1.34146341463415,0,0,-39,-0.169565217391304,138,-0.673170731707317,
13693814,6191.40625,-2800,1.71673819742489,800,0.490496627835684,-15952,9.78050275904353,41,3.41463414634146,-56,-2.5,-26,1.58536585365854,0,0,-44,-0.191304347826087,140,-0.682926829268293,
13694454,6210.9375,-2896,1.77559779276517,784,0.48068669527897,-15952,9.78050275904353,-9,3.47560975609756,-57,0.548780487804878,-30,1.82926829268293,0,0,-41,-0.178260869565217,139,-0.678048780487805,
13695094,6230.46875,-2736,1.67749846719804,768,0.470876762722256,-15984,9.80012262415696,-66,3.84146341463415,-63,4.02439024390244,-42,2.5609756097561,-1,0.00434782608695652,-41,-0.178260869565217,139,-0.678048780487805,
13695734,6250,-2784,1.70692826486818,816,0.500306560392397,-15904,9.75107296137339,-69,4.57317073170732,-75,4.20731707317073,-40,2.4390243902439,-1,0.00434782608695652,-44,-0.191304347826087,140,-0.682926829268293,
13696374,6269.53125,-2816,1.72654812998161,752,0.461066830165543,-15968,9.79031269160024,-66,4.63414634146342,-76,4.02439024390244,-40,2.4390243902439,-3,0.0130434782608696,-41,-0.178260869565217,141,-0.68780487804878,
13697014,6289.0625,-2864,1.75597792765175,800,0.490496627835684,-15824,9.70202329858982,-93,4.75609756097561,-78,5.67073170731707,-47,2.86585365853659,-1,0.00434782608695652,-40,-0.173913043478261,139,-0.678048780487805,
13697654,6308.59375,-2784,1.70692826486818,816,0.500306560392397,-15648,9.59411404046597,-122,4.81707317073171,-79,7.4390243902439,-53,3.23170731707317,2,-0.00869565217391304,-46,-0.2,141,-0.68780487804878,
13698294,6328.125,-2560,1.56958920907419,944,0.578786020846107,-15792,9.6824034334764,-120,4.08536585365854,-67,7.31707317073171,-55,3.35365853658537,0,0,-40,-0.173913043478261,142,-0.692682926829268,
13698934,6347.65625,-2240,1.37339055793991,1040,0.637645616186389,-15856,9.72164316370325,-57,2.68292682926829,-44,3.47560975609756,-35,2.13414634146341,0,0,-41,-0.178260869565217,142,-0.692682926829268,
13699574,6367.1875,-2464,1.51072961373391,992,0.608215818516248,-15904,9.75107296137339,59,0.792682926829268,-13,-3.59756097560976,-18,1.09756097560976,0,0,-44,-0.191304347826087,142,-0.692682926829268,
13700214,6386.71875,-2864,1.75597792765175,976,0.598405885959534,-16032,9.8295524218271,49,1.28048780487805,-21,-2.98780487804878,-26,1.58536585365854,1,-0.00434782608695652,-45,-0.195652173913043,142,-0.692682926829268,
13700854,6406.25,-3040,1.8638871857756,848,0.519926425505825,-16080,9.85898221949724,-20,2.37804878048781,-39,1.21951219512195,-27,1.64634146341463,0,0,-43,-0.18695652173913,140,-0.682926829268293,
13701494,6425.78125,-3040,1.8638871857756,800,0.490496627835684,-16032,9.8295524218271,-57,2.92682926829268,-48,3.47560975609756,-29,1.76829268292683,-1,0.00434782608695652,-39,-0.169565217391304,140,-0.682926829268293,
13702134,6445.3125,-2976,1.82464745554874,816,0.500306560392397,-16160,9.90803188228081,-62,3.41463414634146,-56,3.78048780487805,-27,1.64634146341463,1,-0.00434782608695652,-38,-0.165217391304348,140,-0.682926829268293,
13702774,6464.84375,-2736,1.67749846719804,720,0.441446965052115,-16224,9.94727161250766,-26,3.23170731707317,-53,1.58536585365854,-31,1.89024390243902,0,0,-40,-0.173913043478261,140,-0.682926829268293,
13703414,6484.375,-2784,1.70692826486818,784,0.48068669527897,-16224,9.94727161250766,0,3.23170731707317,-53,0,-21,1.28048780487805,-2,0.00869565217391304,-41,-0.178260869565217,140,-0.682926829268293,
13704054,6503.90625,-2944,1.80502759043532,784,0.48068669527897,-16016,9.81974248927039,-11,2.68292682926829,-44,0.670731707317073,-17,1.03658536585366,1,-0.00434782608695652,-42,-0.182608695652174,141,-0.68780487804878,
13704694,6523.4375,-2912,1.78540772532189,848,0.519926425505825,-15920,9.7608828939301,-18,2.4390243902439,-40,1.09756097560976,2,-0.121951219512195,0,0,-43,-0.18695652173913,141,-0.68780487804878,
13705334,6542.96875,-2848,1.74616799509503,848,0.519926425505825,-15904,9.75107296137339,-24,2.25609756097561,-37,1.46341463414634,16,-0.975609756097561,-1,0.00434782608695652,-44,-0.191304347826087,141,-0.68780487804878,
13705974,6562.5,-2848,1.74616799509503,672,0.412017167381974,-16032,9.8295524218271,-66,2.80487804878049,-46,4.02439024390244,10,-0.609756097560976,-4,0.0173913043478261,-38,-0.165217391304348,140,-0.682926829268293,
13706614,6582.03125,-2768,1.69711833231147,768,0.470876762722256,-16048,9.83936235438381,-125,3.53658536585366,-58,7.6219512195122,4,-0.24390243902439,1,-0.00434782608695652,-40,-0.173913043478261,140,-0.682926829268293,
13707254,6601.5625,-2560,1.56958920907419,848,0.519926425505825,-16080,9.85898221949724,-147,3.23170731707317,-53,8.96341463414634,1,-0.0609756097560976,-2,0.00869565217391304,-40,-0.173913043478261,141,-0.68780487804878,
13707894,6621.09375,-2256,1.38320049049663,768,0.470876762722256,-15840,9.71183323114654,-135,2.6219512195122,-43,8.23170731707317,6,-0.365853658536585,-2,0.00869565217391304,-40,-0.173913043478261,142,-0.692682926829268,
13708534,6640.625,-2192,1.34396076026977,784,0.48068669527897,-15840,9.71183323114654,-98,2.19512195121951,-36,5.97560975609756,19,-1.15853658536585,-3,0.0130434782608696,-40,-0.173913043478261,141,-0.68780487804878,
13709174,6660.15625,-2240,1.37339055793991,768,0.470876762722256,-15952,9.78050275904353,-127,2.5,-41,7.74390243902439,14,-0.853658536585366,0,0,-39,-0.169565217391304,143,-0.697560975609756,
13709814,6679.6875,-2416,1.48129981606376,800,0.490496627835684,-15952,9.78050275904353,-170,3.17073170731707,-52,10.3658536585366,-7,0.426829268292683,-3,0.0130434782608696,-41,-0.178260869565217,141,-0.68780487804878,
13710454,6699.21875,-2368,1.45187001839362,896,0.549356223175966,-16144,9.89822194972409,-210,3.78048780487805,-62,12.8048780487805,-21,1.28048780487805,-1,0.00434782608695652,-42,-0.182608695652174,143,-0.697560975609756,
13711094,6718.75,-2288,1.40282035561006,928,0.568976088289393,-16048,9.83936235438381,-196,4.45121951219512,-73,11.9512195121951,-36,2.19512195121951,-1,0.00434782608695652,-43,-0.18695652173913,141,-0.68780487804878,
13711734,6738.28125,-1952,1.19681177191907,976,0.598405885959534,-15984,9.80012262415696,-119,4.14634146341463,-68,7.25609756097561,-29,1.76829268292683,0,0,-44,-0.191304347826087,145,-0.707317073170732,
13712374,6757.8125,-1744,1.06928264868179,1024,0.627835683629675,-15936,9.77069282648682,13,3.41463414634146,-56,-0.792682926829268,-10,0.609756097560976,-4,0.0173913043478261,-40,-0.173913043478261,141,-0.68780487804878,
13713014,6777.34375,-2032,1.24586143470264,1024,0.627835683629675,-15984,9.80012262415696,92,2.25609756097561,-37,-5.60975609756098,1,-0.0609756097560976,-3,0.0130434782608696,-40,-0.173913043478261,141,-0.68780487804878,
13713654,6796.875,-2208,1.35377069282649,912,0.559166155732679,-16128,9.88841201716738,70,2.13414634146341,-35,-4.26829268292683,3,-0.182926829268293,-3,0.0130434782608696,-41,-0.178260869565217,140,-0.682926829268293,
13714294,6816.40625,-2368,1.45187001839362,912,0.559166155732679,-16144,9.89822194972409,40,2.98780487804878,-49,-2.4390243902439,1,-0.0609756097560976,-1,0.00434782608695652,-43,-0.18695652173913,142,-0.692682926829268,
13714934,6835.9375,-2416,1.48129981606376,944,0.578786020846107,-16144,9.89822194972409,-9,3.23170731707317,-53,0.548780487804878,-3,0.182926829268293,0,0,-44,-0.191304347826087,142,-0.692682926829268,
13715574,6855.46875,-2336,1.4322501532802,896,0.549356223175966,-16144,9.89822194972409,-31,4.08536585365854,-67,1.89024390243902,-7,0.426829268292683,-1,0.00434782608695652,-45,-0.195652173913043,143,-0.697560975609756,
13716214,6875,-2192,1.34396076026977,896,0.549356223175966,-16096,9.86879215205395,-16,4.02439024390244,-66,0.975609756097561,-7,0.426829268292683,-1,0.00434782608695652,-43,-0.18695652173913,141,-0.68780487804878,
13716854,6894.53125,-2160,1.32434089515635,944,0.578786020846107,-16096,9.86879215205395,17,3.78048780487805,-62,-1.03658536585366,-5,0.304878048780488,-1,0.00434782608695652,-41,-0.178260869565217,142,-0.692682926829268,
13717494,6914.0625,-2320,1.42244022072348,912,0.559166155732679,-16064,9.84917228694053,6,4.08536585365854,-67,-0.365853658536585,-11,0.670731707317073,-1,0.00434782608695652,-40,-0.173913043478261,141,-0.68780487804878,
13718134,6933.59375,-2224,1.3635806253832,976,0.598405885959534,-16032,9.8295524218271,-14,4.02439024390244,-66,0.853658536585366,-14,0.853658536585366,-3,0.0130434782608696,-45,-0.195652173913043,142,-0.692682926829268,
13718774,6953.125,-2176,1.33415082771306,896,0.549356223175966,-15888,9.74126302881668,-7,3.65853658536585,-60,0.426829268292683,-13,0.792682926829268,-3,0.0130434782608696,-42,-0.182608695652174,144,-0.702439024390244,
13719414,6972.65625,-2144,1.31453096259963,816,0.500306560392397,-16016,9.81974248927039,9,3.71951219512195,-61,-0.548780487804878,-7,0.426829268292683,0,0,-45,-0.195652173913043,144,-0.702439024390244,
13720054,6992.1875,-2240,1.37339055793991,848,0.519926425505825,-15968,9.79031269160024,16,3.71951219512195,-61,-0.975609756097561,-10,0.609756097560976,0,0,-44,-0.191304347826087,144,-0.702439024390244,
13720694,7011.71875,-2272,1.39301042305334,768,0.470876762722256,-15952,9.78050275904353,17,3.47560975609756,-57,-1.03658536585366,-20,1.21951219512195,0,0,-42,-0.182608695652174,143,-0.697560975609756,
13721334,7031.25,-2320,1.42244022072348,800,0.490496627835684,-16096,9.86879215205395,35,3.71951219512195,-61,-2.13414634146341,-23,1.40243902439024,-2,0.00869565217391304,-42,-0.182608695652174,143,-0.697560975609756,
13721974,7050.78125,-2496,1.53034947884733,1008,0.618025751072961,-16016,9.81974248927039,29,3.71951219512195,-61,-1.76829268292683,-20,1.21951219512195,-2,0.00869565217391304,-43,-0.18695652173913,144,-0.702439024390244,
13722614,7070.3125,-2432,1.49110974862048,928,0.568976088289393,-15904,9.75107296137339,37,3.59756097560976,-59,-2.25609756097561,-5,0.304878048780488,-4,0.0173913043478261,-45,-0.195652173913043,143,-0.697560975609756,
13723254,7089.84375,-2624,1.60882893930104,864,0.529736358062538,-16000,9.80993255671367,28,2.98780487804878,-49,-1.70731707317073,12,-0.731707317073171,0,0,-43,-0.18695652173913,143,-0.697560975609756,
13723894,7109.375,-2736,1.67749846719804,800,0.490496627835684,-16048,9.83936235438381,-14,3.17073170731707,-52,0.853658536585366,24,-1.46341463414634,0,0,-44,-0.191304347826087,142,-0.692682926829268,
13724534,7128.90625,-2656,1.62844880441447,864,0.529736358062538,-16000,9.80993255671367,-66,3.10975609756098,-51,4.02439024390244,23,-1.40243902439024,-2,0.00869565217391304,-45,-0.195652173913043,143,-0.697560975609756,
13725174,7148.4375,-2400,1.47148988350705,864,0.529736358062538,-16064,9.84917228694053,-55,3.10975609756098,-51,3.35365853658537,31,-1.89024390243902,-2,0.00869565217391304,-42,-0.182608695652174,143,-0.697560975609756,
13725814,7167.96875,-2272,1.39301042305334,816,0.500306560392397,-15968,9.79031269160024,-18,2.5,-41,1.09756097560976,38,-2.31707317073171,-4,0.0173913043478261,-40,-0.173913043478261,144,-0.702439024390244,
13726454,7187.5,-2208,1.35377069282649,752,0.461066830165543,-15968,9.79031269160024,16,1.95121951219512,-32,-0.975609756097561,48,-2.92682926829268,0,0,-45,-0.195652173913043,143,-0.697560975609756,
13727094,7207.03125,-2304,1.41263028816677,848,0.519926425505825,-16160,9.90803188228081,59,2.13414634146341,-35,-3.59756097560976,53,-3.23170731707317,-4,0.0173913043478261,-42,-0.182608695652174,143,-0.697560975609756,
13727734,7226.5625,-2416,1.48129981606376,688,0.421827099938688,-16256,9.96689147762109,48,2.5,-41,-2.92682926829268,54,-3.29268292682927,-1,0.00434782608695652,-43,-0.18695652173913,143,-0.697560975609756,
13728374,7246.09375,-2480,1.52053954629062,688,0.421827099938688,-16288,9.98651134273452,15,3.78048780487805,-62,-0.914634146341463,41,-2.5,-1,0.00434782608695652,-45,-0.195652173913043,143,-0.697560975609756,
13729014,7265.625,-2352,1.44206008583691,752,0.461066830165543,-16144,9.89822194972409,-12,3.23170731707317,-53,0.731707317073171,48,-2.92682926829268,-1,0.00434782608695652,-40,-0.173913043478261,143,-0.697560975609756,
13729654,7285.15625,-2320,1.42244022072348,704,0.431637032495402,-16064,9.84917228694053,7,3.59756097560976,-59,-0.426829268292683,56,-3.41463414634146,-3,0.0130434782608696,-45,-0.195652173913043,142,-0.692682926829268,
13730294,7304.6875,-2336,1.4322501532802,656,0.402207234825261,-16160,9.90803188228081,-2,3.71951219512195,-61,0.121951219512195,59,-3.59756097560976,-2,0.00869565217391304,-46,-0.2,142,-0.692682926829268,
13730934,7324.21875,-2304,1.41263028816677,832,0.510116492949111,-16016,9.81974248927039,-72,4.57317073170732,-75,4.39024390243902,42,-2.5609756097561,-1,0.00434782608695652,-44,-0.191304347826087,143,-0.697560975609756,
13731574,7343.75,-2272,1.39301042305334,976,0.598405885959534,-16016,9.81974248927039,-132,5.18292682926829,-85,8.04878048780488,24,-1.46341463414634,-3,0.0130434782608696,-46,-0.2,144,-0.702439024390244,
13732214,7363.28125,-1952,1.19681177191907,928,0.568976088289393,-15920,9.7608828939301,-108,5,-82,6.58536585365854,30,-1.82926829268293,-5,0.0217391304347826,-39,-0.169565217391304,142,-0.692682926829268,
13732854,7382.8125,-1792,1.09871244635193,928,0.568976088289393,-15776,9.67259350091968,-24,4.63414634146342,-76,1.46341463414634,37,-2.25609756097561,-5,0.0217391304347826,-40,-0.173913043478261,141,-0.68780487804878,
13733494,7402.34375,-2000,1.22624156958921,1024,0.627835683629675,-15808,9.69221336603311,38,3.35365853658537,-55,-2.31707317073171,50,-3.04878048780488,-3,0.0130434782608696,-44,-0.191304347826087,142,-0.692682926829268,
13734134,7421.875,-2096,1.28510116492949,992,0.608215818516248,-15920,9.7608828939301,67,3.29268292682927,-54,-4.08536585365854,48,-2.92682926829268,-3,0.0130434782608696,-42,-0.182608695652174,142,-0.692682926829268,
13734774,7441.40625,-2336,1.4322501532802,944,0.578786020846107,-15984,9.80012262415696,23,3.29268292682927,-54,-1.40243902439024,44,-2.68292682926829,0,0,-47,-0.204347826086957,142,-0.692682926829268,
13735414,7460.9375,-2304,1.41263028816677,928,0.568976088289393,-15952,9.78050275904353,-43,3.41463414634146,-56,2.6219512195122,27,-1.64634146341463,-1,0.00434782608695652,-47,-0.204347826086957,144,-0.702439024390244,
13736054,7480.46875,-2096,1.28510116492949,1056,0.647455548743102,-15952,9.78050275904353,-36,2.86585365853659,-47,2.19512195121951,22,-1.34146341463415,-3,0.0130434782608696,-43,-0.18695652173913,144,-0.702439024390244,
13736694,7500,-1872,1.1477621091355,1072,0.657265481299816,-15888,9.74126302881668,20,2.68292682926829,-44,-1.21951219512195,32,-1.95121951219512,-5,0.0217391304347826,-44,-0.191304347826087,144,-0.702439024390244,
13737334,7519.53125,-1872,1.1477621091355,912,0.559166155732679,-15792,9.6824034334764,44,2.37804878048781,-39,-2.68292682926829,34,-2.07317073170732,-1,0.00434782608695652,-46,-0.2,144,-0.702439024390244,
13737974,7539.0625,-2032,1.24586143470264,912,0.559166155732679,-15872,9.73145309625996,-1,2.37804878048781,-39,0.0609756097560976,15,-0.914634146341463,0,0,-46,-0.2,143,-0.697560975609756,
13738614,7558.59375,-2032,1.24586143470264,960,0.58859595340282,-15984,9.80012262415696,-36,2.86585365853659,-47,2.19512195121951,7,-0.426829268292683,-3,0.0130434782608696,-41,-0.178260869565217,142,-0.692682926829268,
13739254,7578.125,-2096,1.28510116492949,896,0.549356223175966,-16096,9.86879215205395,-22,3.10975609756098,-51,1.34146341463415,2,-0.121951219512195,-1,0.00434782608695652,-43,-0.18695652173913,143,-0.697560975609756,
13739894,7597.65625,-2096,1.28510116492949,992,0.608215818516248,-16064,9.84917228694053,-20,2.92682926829268,-48,1.21951219512195,5,-0.304878048780488,-3,0.0130434782608696,-44,-0.191304347826087,143,-0.697560975609756,
13740534,7617.1875,-2192,1.34396076026977,1008,0.618025751072961,-15936,9.77069282648682,-24,2.98780487804878,-49,1.46341463414634,4,-0.24390243902439,-4,0.0173913043478261,-45,-0.195652173913043,143,-0.697560975609756,
13741174,7636.71875,-2112,1.2949110974862,960,0.58859595340282,-15968,9.79031269160024,-10,2.74390243902439,-45,0.609756097560976,12,-0.731707317073171,-3,0.0130434782608696,-40,-0.173913043478261,141,-0.68780487804878,
13741814,7656.25,-2096,1.28510116492949,1008,0.618025751072961,-16016,9.81974248927039,-17,2.68292682926829,-44,1.03658536585366,9,-0.548780487804878,-2,0.00869565217391304,-41,-0.178260869565217,142,-0.692682926829268,
13742454,7675.78125,-2112,1.2949110974862,1024,0.627835683629675,-16112,9.87860208461067,-32,2.6219512195122,-43,1.95121951219512,3,-0.182926829268293,-2,0.00869565217391304,-44,-0.191304347826087,142,-0.692682926829268,
13743094,7695.3125,-2080,1.27529123237278,1072,0.657265481299816,-16032,9.8295524218271,-32,2.19512195121951,-36,1.95121951219512,3,-0.182926829268293,-4,0.0173913043478261,-43,-0.18695652173913,143,-0.697560975609756,
13743734,7714.84375,-1952,1.19681177191907,1008,0.618025751072961,-16016,9.81974248927039,-19,2.19512195121951,-36,1.15853658536585,5,-0.304878048780488,-4,0.0173913043478261,-38,-0.165217391304348,142,-0.692682926829268,
13744374,7734.375,-1968,1.20662170447578,1040,0.637645616186389,-15904,9.75107296137339,-14,1.95121951219512,-32,0.853658536585366,4,-0.24390243902439,-1,0.00434782608695652,-48,-0.208695652173913,145,-0.707317073170732,
13745014,7753.90625,-1936,1.18700183936235,992,0.608215818516248,-15840,9.71183323114654,-16,1.64634146341463,-27,0.975609756097561,2,-0.121951219512195,-3,0.0130434782608696,-43,-0.18695652173913,145,-0.707317073170732,
13745654,7773.4375,-1904,1.16738197424893,976,0.598405885959534,-15968,9.79031269160024,-13,1.28048780487805,-21,0.792682926829268,-5,0.304878048780488,-4,0.0173913043478261,-44,-0.191304347826087,144,-0.702439024390244,
13746294,7792.96875,-1920,1.17719190680564,1008,0.618025751072961,-16016,9.81974248927039,3,1.40243902439024,-23,-0.182926829268293,-8,0.487804878048781,-4,0.0173913043478261,-41,-0.178260869565217,143,-0.697560975609756,
13746934,7812.5,-1968,1.20662170447578,912,0.559166155732679,-16128,9.88841201716738,4,1.03658536585366,-17,-0.24390243902439,-12,0.731707317073171,-4,0.0173913043478261,-40,-0.173913043478261,141,-0.68780487804878,
13747574,7832.03125,-2016,1.23605150214592,960,0.58859595340282,-16080,9.85898221949724,-8,1.76829268292683,-29,0.487804878048781,-11,0.670731707317073,-4,0.0173913043478261,-45,-0.195652173913043,144,-0.702439024390244,
13748214,7851.5625,-1968,1.20662170447578,896,0.549356223175966,-16032,9.8295524218271,-7,2.07317073170732,-34,0.426829268292683,-21,1.28048780487805,-4,0.0173913043478261,-43,-0.18695652173913,143,-0.697560975609756,
13748854,7871.09375,-1920,1.17719190680564,784,0.48068669527897,-15936,9.77069282648682,-8,2.25609756097561,-37,0.487804878048781,-28,1.70731707317073,-3,0.0130434782608696,-43,-0.18695652173913,142,-0.692682926829268,
13749494,7890.625,-2016,1.23605150214592,752,0.461066830165543,-15984,9.80012262415696,17,1.89024390243902,-31,-1.03658536585366,-27,1.64634146341463,-4,0.0173913043478261,-44,-0.191304347826087,143,-0.697560975609756,
13750134,7910.15625,-2016,1.23605150214592,800,0.490496627835684,-16064,9.84917228694053,34,1.64634146341463,-27,-2.07317073170732,-26,1.58536585365854,-3,0.0130434782608696,-40,-0.173913043478261,142,-0.692682926829268,
13750774,7929.6875,-2240,1.37339055793991,768,0.470876762722256,-16208,9.93746167995095,34,1.58536585365854,-26,-2.07317073170732,-22,1.34146341463415,-2,0.00869565217391304,-46,-0.2,143,-0.697560975609756,
13751414,7949.21875,-2288,1.40282035561006,848,0.519926425505825,-16208,9.93746167995095,-5,1.76829268292683,-29,0.304878048780488,-19,1.15853658536585,-3,0.0130434782608696,-44,-0.191304347826087,144,-0.702439024390244,
13752054,7968.75,-2160,1.32434089515635,864,0.529736358062538,-16064,9.84917228694053,-17,2.5,-41,1.03658536585366,-22,1.34146341463415,-4,0.0173913043478261,-42,-0.182608695652174,144,-0.702439024390244,
13752694,7988.28125,-2176,1.33415082771306,912,0.559166155732679,-16032,9.8295524218271,-7,1.82926829268293,-30,0.426829268292683,-17,1.03658536585366,-1,0.00434782608695652,-46,-0.2,143,-0.697560975609756,
13753334,8007.8125,-2208,1.35377069282649,848,0.519926425505825,-16048,9.83936235438381,6,2.19512195121951,-36,-0.365853658536585,-16,0.975609756097561,-3,0.0130434782608696,-41,-0.178260869565217,144,-0.702439024390244,
13753974,8027.34375,-2272,1.39301042305334,816,0.500306560392397,-16016,9.81974248927039,11,2.25609756097561,-37,-0.670731707317073,-6,0.365853658536585,-3,0.0130434782608696,-43,-0.18695652173913,144,-0.702439024390244,
13754614,8046.875,-2240,1.37339055793991,880,0.539546290619252,-16048,9.83936235438381,1,2.25609756097561,-37,-0.0609756097560976,-8,0.487804878048781,-5,0.0217391304347826,-44,-0.191304347826087,143,-0.697560975609756,
13755254,8066.40625,-2160,1.32434089515635,832,0.510116492949111,-16032,9.8295524218271,-17,2.25609756097561,-37,1.03658536585366,-8,0.487804878048781,-3,0.0130434782608696,-41,-0.178260869565217,142,-0.692682926829268,
13755894,8085.9375,-2096,1.28510116492949,800,0.490496627835684,-16064,9.84917228694053,-16,2.25609756097561,-37,0.975609756097561,-16,0.975609756097561,-2,0.00869565217391304,-43,-0.18695652173913,143,-0.697560975609756,
13756534,8105.46875,-2032,1.24586143470264,784,0.48068669527897,-16032,9.8295524218271,-6,2.01219512195122,-33,0.365853658536585,-17,1.03658536585366,-1,0.00434782608695652,-42,-0.182608695652174,144,-0.702439024390244,
13757174,8125,-2096,1.28510116492949,768,0.470876762722256,-16112,9.87860208461067,-8,2.25609756097561,-37,0.487804878048781,-15,0.914634146341463,-3,0.0130434782608696,-45,-0.195652173913043,143,-0.697560975609756,
13757814,8144.53125,-2048,1.25567136725935,752,0.461066830165543,-16064,9.84917228694053,-14,2.5609756097561,-42,0.853658536585366,-14,0.853658536585366,-4,0.0173913043478261,-45,-0.195652173913043,145,-0.707317073170732,
13758454,8164.0625,-2176,1.33415082771306,768,0.470876762722256,-16128,9.88841201716738,-33,2.80487804878049,-46,2.01219512195122,-21,1.28048780487805,-4,0.0173913043478261,-38,-0.165217391304348,141,-0.68780487804878,
13759094,8183.59375,-2064,1.26548129981606,752,0.461066830165543,-16016,9.81974248927039,-65,2.86585365853659,-47,3.96341463414634,-29,1.76829268292683,-4,0.0173913043478261,-42,-0.182608695652174,144,-0.702439024390244,
13759734,8203.125,-2016,1.23605150214592,848,0.519926425505825,-15968,9.79031269160024,-70,2.68292682926829,-44,4.26829268292683,-30,1.82926829268293,-2,0.00869565217391304,-44,-0.191304347826087,143,-0.697560975609756,
13760374,8222.65625,-1904,1.16738197424893,848,0.519926425505825,-16016,9.81974248927039,-33,1.52439024390244,-25,2.01219512195122,-25,1.52439024390244,-4,0.0173913043478261,-44,-0.191304347826087,143,-0.697560975609756,
13761014,8242.1875,-2032,1.24586143470264,848,0.519926425505825,-16064,9.84917228694053,28,1.21951219512195,-20,-1.70731707317073,-10,0.609756097560976,-4,0.0173913043478261,-44,-0.191304347826087,143,-0.697560975609756,
13761654,8261.71875,-1936,1.18700183936235,768,0.470876762722256,-16032,9.8295524218271,35,1.46341463414634,-24,-2.13414634146341,-18,1.09756097560976,-5,0.0217391304347826,-45,-0.195652173913043,143,-0.697560975609756,
13762294,8281.25,-2096,1.28510116492949,720,0.441446965052115,-16032,9.8295524218271,38,2.5,-41,-2.31707317073171,-21,1.28048780487805,-3,0.0130434782608696,-42,-0.182608695652174,144,-0.702439024390244,
13762934,8300.78125,-2192,1.34396076026977,672,0.412017167381974,-16048,9.83936235438381,22,2.4390243902439,-40,-1.34146341463415,-26,1.58536585365854,-3,0.0130434782608696,-39,-0.169565217391304,143,-0.697560975609756,
13763574,8320.3125,-2224,1.3635806253832,688,0.421827099938688,-16000,9.80993255671367,-12,2.5609756097561,-42,0.731707317073171,-26,1.58536585365854,-4,0.0173913043478261,-38,-0.165217391304348,142,-0.692682926829268,
13764214,8339.84375,-2016,1.23605150214592,784,0.48068669527897,-16112,9.87860208461067,-16,2.6219512195122,-43,0.975609756097561,-24,1.46341463414634,-2,0.00869565217391304,-45,-0.195652173913043,145,-0.707317073170732,
13764854,8359.375,-2000,1.22624156958921,752,0.461066830165543,-16128,9.88841201716738,16,2.37804878048781,-39,-0.975609756097561,-22,1.34146341463415,-2,0.00869565217391304,-43,-0.18695652173913,143,-0.697560975609756,
13765494,8378.90625,-2144,1.31453096259963,832,0.510116492949111,-16064,9.84917228694053,41,2.19512195121951,-36,-2.5,-9,0.548780487804878,-1,0.00434782608695652,-42,-0.182608695652174,143,-0.697560975609756,
13766134,8398.4375,-2256,1.38320049049663,752,0.461066830165543,-16160,9.90803188228081,19,2.74390243902439,-45,-1.15853658536585,-13,0.792682926829268,-2,0.00869565217391304,-44,-0.191304347826087,144,-0.702439024390244,
13766774,8417.96875,-2256,1.38320049049663,704,0.431637032495402,-16240,9.95708154506438,-11,3.41463414634146,-56,0.670731707317073,-15,0.914634146341463,-4,0.0173913043478261,-44,-0.191304347826087,144,-0.702439024390244,
13767414,8437.5,-2240,1.37339055793991,768,0.470876762722256,-16240,9.95708154506438,-25,3.47560975609756,-57,1.52439024390244,-14,0.853658536585366,-3,0.0130434782608696,-43,-0.18695652173913,144,-0.702439024390244,
13768054,8457.03125,-2176,1.33415082771306,864,0.529736358062538,-16160,9.90803188228081,-7,3.53658536585366,-58,0.426829268292683,-13,0.792682926829268,-3,0.0130434782608696,-44,-0.191304347826087,143,-0.697560975609756,
13768694,8476.5625,-2128,1.30472103004292,848,0.519926425505825,-16160,9.90803188228081,22,3.53658536585366,-58,-1.34146341463415,-10,0.609756097560976,-3,0.0130434782608696,-45,-0.195652173913043,144,-0.702439024390244,
13769334,8496.09375,-2224,1.3635806253832,720,0.441446965052115,-16144,9.89822194972409,36,3.47560975609756,-57,-2.19512195121951,-7,0.426829268292683,-3,0.0130434782608696,-44,-0.191304347826087,143,-0.697560975609756,
13769974,8515.625,-2256,1.38320049049663,800,0.490496627835684,-16176,9.91784181483752,18,4.02439024390244,-66,-1.09756097560976,-5,0.304878048780488,-1,0.00434782608695652,-45,-0.195652173913043,142,-0.692682926829268,
13770614,8535.15625,-2128,1.30472103004292,736,0.451256897608829,-16176,9.91784181483752,-19,4.32926829268293,-71,1.15853658536585,0,0,-1,0.00434782608695652,-45,-0.195652173913043,144,-0.702439024390244,
13771254,8554.6875,-2080,1.27529123237278,800,0.490496627835684,-16064,9.84917228694053,-37,4.45121951219512,-73,2.25609756097561,-8,0.487804878048781,-3,0.0130434782608696,-42,-0.182608695652174,144,-0.702439024390244,
13771894,8574.21875,-1952,1.19681177191907,784,0.48068669527897,-16048,9.83936235438381,-33,4.39024390243902,-72,2.01219512195122,-15,0.914634146341463,-3,0.0130434782608696,-39,-0.169565217391304,142,-0.692682926829268,
13772534,8593.75,-1968,1.20662170447578,768,0.470876762722256,-15936,9.77069282648682,4,3.71951219512195,-61,-0.24390243902439,-19,1.15853658536585,-4,0.0173913043478261,-41,-0.178260869565217,144,-0.702439024390244,
13773174,8613.28125,-2016,1.23605150214592,768,0.470876762722256,-16016,9.81974248927039,50,3.53658536585366,-58,-3.04878048780488,-18,1.09756097560976,-2,0.00869565217391304,-44,-0.191304347826087,142,-0.692682926829268,
13773814,8632.8125,-2240,1.37339055793991,816,0.500306560392397,-15920,9.7608828939301,50,3.59756097560976,-59,-3.04878048780488,-20,1.21951219512195,-4,0.0173913043478261,-40,-0.173913043478261,143,-0.697560975609756,
13774454,8652.34375,-2304,1.41263028816677,896,0.549356223175966,-15808,9.69221336603311,-13,4.08536585365854,-67,0.792682926829268,-27,1.64634146341463,-1,0.00434782608695652,-41,-0.178260869565217,143,-0.697560975609756,
13775094,8671.875,-2160,1.32434089515635,896,0.549356223175966,-15888,9.74126302881668,-31,4.26829268292683,-70,1.89024390243902,-39,2.37804878048781,0,0,-45,-0.195652173913043,144,-0.702439024390244,
13775734,8691.40625,-2016,1.23605150214592,944,0.578786020846107,-15824,9.70202329858982,-9,3.65853658536585,-60,0.548780487804878,-28,1.70731707317073,-4,0.0173913043478261,-43,-0.18695652173913,144,-0.702439024390244,
13776374,8710.9375,-2128,1.30472103004292,944,0.578786020846107,-15872,9.73145309625996,19,2.98780487804878,-49,-1.15853658536585,-20,1.21951219512195,-2,0.00869565217391304,-43,-0.18695652173913,143,-0.697560975609756,
13777014,8730.46875,-2128,1.30472103004292,864,0.529736358062538,-15840,9.71183323114654,-4,2.74390243902439,-45,0.24390243902439,-15,0.914634146341463,-1,0.00434782608695652,-44,-0.191304347826087,142,-0.692682926829268,
13777654,8750,-2048,1.25567136725935,800,0.490496627835684,-15888,9.74126302881668,-32,2.31707317073171,-38,1.95121951219512,-17,1.03658536585366,-2,0.00869565217391304,-45,-0.195652173913043,143,-0.697560975609756,
13778294,8769.53125,-2016,1.23605150214592,800,0.490496627835684,-15952,9.78050275904353,-21,1.82926829268293,-30,1.28048780487805,-20,1.21951219512195,-2,0.00869565217391304,-42,-0.182608695652174,142,-0.692682926829268,
13778934,8789.0625,-1968,1.20662170447578,816,0.500306560392397,-16128,9.88841201716738,15,1.70731707317073,-28,-0.914634146341463,-27,1.64634146341463,-4,0.0173913043478261,-43,-0.18695652173913,143,-0.697560975609756,
13779574,8808.59375,-2144,1.31453096259963,816,0.500306560392397,-16160,9.90803188228081,51,2.07317073170732,-34,-3.10975609756098,-20,1.21951219512195,-4,0.0173913043478261,-39,-0.169565217391304,141,-0.68780487804878,
13780214,8828.125,-2304,1.41263028816677,768,0.470876762722256,-16144,9.89822194972409,22,2.37804878048781,-39,-1.34146341463415,-22,1.34146341463415,-2,0.00869565217391304,-41,-0.178260869565217,143,-0.697560975609756,
13780854,8847.65625,-2256,1.38320049049663,704,0.431637032495402,-16048,9.83936235438381,-24,2.92682926829268,-48,1.46341463414634,-28,1.70731707317073,-6,0.0260869565217391,-40,-0.173913043478261,144,-0.702439024390244,
13781494,8867.1875,-2224,1.3635806253832,672,0.412017167381974,-16080,9.85898221949724,-40,3.53658536585366,-58,2.4390243902439,-29,1.76829268292683,-2,0.00869565217391304,-45,-0.195652173913043,144,-0.702439024390244,
13782134,8886.71875,-2192,1.34396076026977,720,0.441446965052115,-16144,9.89822194972409,-29,3.23170731707317,-53,1.76829268292683,-29,1.76829268292683,-4,0.0173913043478261,-39,-0.169565217391304,141,-0.68780487804878,
13782774,8906.25,-2208,1.35377069282649,720,0.441446965052115,-16256,9.96689147762109,-3,3.23170731707317,-53,0.182926829268293,-19,1.15853658536585,-7,0.0304347826086957,-40,-0.173913043478261,142,-0.692682926829268,
13783414,8925.78125,-2240,1.37339055793991,704,0.431637032495402,-16400,10.0551808706315,16,3.47560975609756,-57,-0.975609756097561,-17,1.03658536585366,-3,0.0130434782608696,-41,-0.178260869565217,142,-0.692682926829268,
13784054,8945.3125,-2352,1.44206008583691,800,0.490496627835684,-16176,9.91784181483752,13,3.71951219512195,-61,-0.792682926829268,-11,0.670731707317073,-3,0.0130434782608696,-42,-0.182608695652174,144,-0.702439024390244,
13784694,8964.84375,-2336,1.4322501532802,720,0.441446965052115,-16128,9.88841201716738,-22,4.08536585365854,-67,1.34146341463415,-16,0.975609756097561,-5,0.0217391304347826,-43,-0.18695652173913,144,-0.702439024390244,
13785334,8984.375,-2208,1.35377069282649,816,0.500306560392397,-16160,9.90803188228081,-41,4.14634146341463,-68,2.5,-19,1.15853658536585,-2,0.00869565217391304,-38,-0.165217391304348,143,-0.697560975609756,
13785974,9003.90625,-2080,1.27529123237278,736,0.451256897608829,-16080,9.85898221949724,-27,4.08536585365854,-67,1.64634146341463,-10,0.609756097560976,-1,0.00434782608695652,-44,-0.191304347826087,143,-0.697560975609756,
13786614,9023.4375,-2192,1.34396076026977,736,0.451256897608829,-15968,9.79031269160024,-9,4.32926829268293,-71,0.548780487804878,-6,0.365853658536585,-3,0.0130434782608696,-45,-0.195652173913043,144,-0.702439024390244,
13787254,9042.96875,-2256,1.38320049049663,720,0.441446965052115,-15888,9.74126302881668,-36,4.57317073170732,-75,2.19512195121951,-13,0.792682926829268,-4,0.0173913043478261,-42,-0.182608695652174,144,-0.702439024390244,
13787894,9062.5,-2096,1.28510116492949,752,0.461066830165543,-15808,9.69221336603311,-62,4.63414634146342,-76,3.78048780487805,-16,0.975609756097561,-1,0.00434782608695652,-45,-0.195652173913043,143,-0.697560975609756,
13788534,9082.03125,-2032,1.24586143470264,752,0.461066830165543,-15856,9.72164316370325,-30,3.96341463414634,-65,1.82926829268293,-14,0.853658536585366,0,0,-45,-0.195652173913043,144,-0.702439024390244,
13789174,9101.5625,-2112,1.2949110974862,784,0.48068669527897,-15824,9.70202329858982,-7,3.04878048780488,-50,0.426829268292683,-8,0.487804878048781,-4,0.0173913043478261,-42,-0.182608695652174,145,-0.707317073170732,
13789814,9121.09375,-2192,1.34396076026977,896,0.549356223175966,-15792,9.6824034334764,6,2.5609756097561,-42,-0.365853658536585,-4,0.24390243902439,-3,0.0130434782608696,-41,-0.178260869565217,144,-0.702439024390244,
13790454,9140.625,-2176,1.33415082771306,864,0.529736358062538,-15744,9.65297363580625,-7,2.13414634146341,-35,0.426829268292683,0,0,-2,0.00869565217391304,-45,-0.195652173913043,145,-0.707317073170732,
13791094,9160.15625,-2160,1.32434089515635,880,0.539546290619252,-15840,9.71183323114654,-11,1.95121951219512,-32,0.670731707317073,7,-0.426829268292683,-2,0.00869565217391304,-45,-0.195652173913043,144,-0.702439024390244,
13791734,9179.6875,-2144,1.31453096259963,928,0.568976088289393,-15952,9.78050275904353,3,1.40243902439024,-23,-0.182926829268293,12,-0.731707317073171,-6,0.0260869565217391,-39,-0.169565217391304,142,-0.692682926829268,
13792374,9199.21875,-2160,1.32434089515635,832,0.510116492949111,-15936,9.77069282648682,6,0.792682926829268,-13,-0.365853658536585,16,-0.975609756097561,-4,0.0173913043478261,-40,-0.173913043478261,143,-0.697560975609756,
13793014,9218.75,-2176,1.33415082771306,816,0.500306560392397,-16080,9.85898221949724,6,0.731707317073171,-12,-0.365853658536585,19,-1.15853658536585,-3,0.0130434782608696,-44,-0.191304347826087,143,-0.697560975609756,
13793654,9238.28125,-2144,1.31453096259963,832,0.510116492949111,-16080,9.85898221949724,-9,1.03658536585366,-17,0.548780487804878,20,-1.21951219512195,-3,0.0130434782608696,-37,-0.160869565217391,142,-0.692682926829268,
13794294,9257.8125,-2064,1.26548129981606,752,0.461066830165543,-16032,9.8295524218271,-29,0.914634146341463,-15,1.76829268292683,19,-1.15853658536585,-3,0.0130434782608696,-39,-0.169565217391304,142,-0.692682926829268,
13794934,9277.34375,-2128,1.30472103004292,816,0.500306560392397,-16112,9.87860208461067,-36,1.46341463414634,-24,2.19512195121951,22,-1.34146341463415,-3,0.0130434782608696,-44,-0.191304347826087,144,-0.702439024390244,
13795574,9296.875,-2064,1.26548129981606,848,0.519926425505825,-16080,9.85898221949724,-33,1.64634146341463,-27,2.01219512195122,22,-1.34146341463415,-3,0.0130434782608696,-45,-0.195652173913043,144,-0.702439024390244,
13796214,9316.40625,-2016,1.23605150214592,848,0.519926425505825,-16064,9.84917228694053,-34,1.95121951219512,-32,2.07317073170732,20,-1.21951219512195,-4,0.0173913043478261,-40,-0.173913043478261,143,-0.697560975609756,
13796854,9335.9375,-1936,1.18700183936235,800,0.490496627835684,-16176,9.91784181483752,-35,1.58536585365854,-26,2.13414634146341,18,-1.09756097560976,-1,0.00434782608695652,-45,-0.195652173913043,143,-0.697560975609756,
13797494,9355.46875,-1936,1.18700183936235,768,0.470876762722256,-16176,9.91784181483752,-22,1.82926829268293,-30,1.34146341463415,17,-1.03658536585366,-4,0.0173913043478261,-39,-0.169565217391304,144,-0.702439024390244,
13798134,9375,-1904,1.16738197424893,864,0.529736358062538,-16048,9.83936235438381,-18,1.76829268292683,-29,1.09756097560976,15,-0.914634146341463,-6,0.0260869565217391,-42,-0.182608695652174,144,-0.702439024390244,
13798774,9394.53125,-1840,1.12814224402207,848,0.519926425505825,-16224,9.94727161250766,-4,1.52439024390244,-25,0.24390243902439,14,-0.853658536585366,-5,0.0217391304347826,-37,-0.160869565217391,143,-0.697560975609756,
13799414,9414.0625,-1952,1.19681177191907,800,0.490496627835684,-16144,9.89822194972409,5,1.89024390243902,-31,-0.304878048780488,20,-1.21951219512195,-3,0.0130434782608696,-39,-0.169565217391304,145,-0.707317073170732,
13800054,9433.59375,-1936,1.18700183936235,752,0.461066830165543,-16176,9.91784181483752,-22,2.19512195121951,-36,1.34146341463415,12,-0.731707317073171,-3,0.0130434782608696,-45,-0.195652173913043,143,-0.697560975609756,
13800694,9453.125,-1808,1.10852237890864,704,0.431637032495402,-16128,9.88841201716738,-51,2.5609756097561,-42,3.10975609756098,3,-0.182926829268293,-6,0.0260869565217391,-41,-0.178260869565217,143,-0.697560975609756,
13801334,9472.65625,-1696,1.03985285101165,768,0.470876762722256,-16240,9.95708154506438,-50,2.6219512195122,-43,3.04878048780488,-5,0.304878048780488,-3,0.0130434782608696,-40,-0.173913043478261,143,-0.697560975609756,
13801974,9492.1875,-1696,1.03985285101165,784,0.48068669527897,-16016,9.81974248927039,-17,2.5609756097561,-42,1.03658536585366,-11,0.670731707317073,-4,0.0173913043478261,-43,-0.18695652173913,144,-0.702439024390244,
13802614,9511.71875,-1856,1.13795217657879,768,0.470876762722256,-16032,9.8295524218271,25,2.92682926829268,-48,-1.52439024390244,-17,1.03658536585366,-4,0.0173913043478261,-41,-0.178260869565217,144,-0.702439024390244,
13803254,9531.25,-1984,1.2164316370325,704,0.431637032495402,-16000,9.80993255671367,19,2.74390243902439,-45,-1.15853658536585,-18,1.09756097560976,-3,0.0130434782608696,-43,-0.18695652173913,144,-0.702439024390244,
13803894,9550.78125,-1840,1.12814224402207,672,0.412017167381974,-16032,9.8295524218271,-16,2.5609756097561,-42,0.975609756097561,-27,1.64634146341463,-5,0.0217391304347826,-41,-0.178260869565217,144,-0.702439024390244,
13804534,9570.3125,-1840,1.12814224402207,720,0.441446965052115,-16096,9.86879215205395,-9,2.4390243902439,-40,0.548780487804878,-22,1.34146341463415,-4,0.0173913043478261,-43,-0.18695652173913,141,-0.68780487804878,
13805174,9589.84375,-1872,1.1477621091355,608,0.37277743715512,-16064,9.84917228694053,7,2.01219512195122,-33,-0.426829268292683,-17,1.03658536585366,-4,0.0173913043478261,-40,-0.173913043478261,145,-0.707317073170732,
13805814,9609.375,-1984,1.2164316370325,688,0.421827099938688,-16192,9.92765174739424,0,2.4390243902439,-40,0,-19,1.15853658536585,-4,0.0173913043478261,-40,-0.173913043478261,142,-0.692682926829268,
13806454,9628.90625,-2032,1.24586143470264,752,0.461066830165543,-16128,9.88841201716738,-25,3.04878048780488,-50,1.52439024390244,-23,1.40243902439024,-3,0.0130434782608696,-41,-0.178260869565217,145,-0.707317073170732,
13807094,9648.4375,-2000,1.22624156958921,816,0.500306560392397,-16128,9.88841201716738,-28,3.29268292682927,-54,1.70731707317073,-32,1.95121951219512,-2,0.00869565217391304,-41,-0.178260869565217,145,-0.707317073170732,
13807734,9667.96875,-1856,1.13795217657879,784,0.48068669527897,-16064,9.84917228694053,-13,3.04878048780488,-50,0.792682926829268,-34,2.07317073170732,-5,0.0217391304347826,-41,-0.178260869565217,143,-0.697560975609756,
13808374,9687.5,-1904,1.16738197424893,720,0.441446965052115,-16080,9.85898221949724,14,2.80487804878049,-46,-0.853658536585366,-26,1.58536585365854,-3,0.0130434782608696,-45,-0.195652173913043,145,-0.707317073170732,
13809014,9707.03125,-1952,1.19681177191907,688,0.421827099938688,-16144,9.89822194972409,28,2.98780487804878,-49,-1.70731707317073,-14,0.853658536585366,-2,0.00869565217391304,-44,-0.191304347826087,144,-0.702439024390244,
13809654,9726.5625,-2160,1.32434089515635,656,0.402207234825261,-16112,9.87860208461067,-1,3.23170731707317,-53,0.0609756097560976,-16,0.975609756097561,-2,0.00869565217391304,-45,-0.195652173913043,144,-0.702439024390244,
13810294,9746.09375,-2096,1.28510116492949,688,0.421827099938688,-16080,9.85898221949724,-34,3.53658536585366,-58,2.07317073170732,-22,1.34146341463415,-4,0.0173913043478261,-44,-0.191304347826087,146,-0.712195121951219,
13810934,9765.625,-2000,1.22624156958921,608,0.37277743715512,-16128,9.88841201716738,-22,3.59756097560976,-59,1.34146341463415,-25,1.52439024390244,-2,0.00869565217391304,-43,-0.18695652173913,146,-0.712195121951219,
13811574,9785.15625,-2000,1.22624156958921,672,0.412017167381974,-16048,9.83936235438381,-5,3.47560975609756,-57,0.304878048780488,-17,1.03658536585366,-2,0.00869565217391304,-41,-0.178260869565217,145,-0.707317073170732,
13812214,9804.6875,-1984,1.2164316370325,672,0.412017167381974,-16096,9.86879215205395,4,3.23170731707317,-53,-0.24390243902439,-13,0.792682926829268,-2,0.00869565217391304,-41,-0.178260869565217,145,-0.707317073170732,
13812854,9824.21875,-2064,1.26548129981606,688,0.421827099938688,-16080,9.85898221949724,7,3.17073170731707,-52,-0.426829268292683,-8,0.487804878048781,-5,0.0217391304347826,-45,-0.195652173913043,145,-0.707317073170732,
13813494,9843.75,-2160,1.32434089515635,672,0.412017167381974,-16032,9.8295524218271,3,3.35365853658537,-55,-0.182926829268293,-4,0.24390243902439,-7,0.0304347826086957,-44,-0.191304347826087,142,-0.692682926829268,
13814134,9863.28125,-2112,1.2949110974862,624,0.382587369711833,-16000,9.80993255671367,-26,3.53658536585366,-58,1.58536585365854,-3,0.182926829268293,-3,0.0130434782608696,-44,-0.191304347826087,144,-0.702439024390244,
13814774,9882.8125,-1984,1.2164316370325,688,0.421827099938688,-15968,9.79031269160024,-27,3.47560975609756,-57,1.64634146341463,-2,0.121951219512195,-3,0.0130434782608696,-44,-0.191304347826087,144,-0.702439024390244,
13815414,9902.34375,-2016,1.23605150214592,704,0.431637032495402,-16016,9.81974248927039,-34,3.35365853658537,-55,2.07317073170732,0,0,-5,0.0217391304347826,-41,-0.178260869565217,143,-0.697560975609756,
13816054,9921.875,-1904,1.16738197424893,688,0.421827099938688,-16032,9.8295524218271,-46,3.53658536585366,-58,2.80487804878049,-3,0.182926829268293,-5,0.0217391304347826,-39,-0.169565217391304,144,-0.702439024390244,
13816694,9941.40625,-1760,1.0790925812385,672,0.412017167381974,-16064,9.84917228694053,-36,3.35365853658537,-55,2.19512195121951,3,-0.182926829268293,-3,0.0130434782608696,-45,-0.195652173913043,145,-0.707317073170732,
13817334,9960.9375,-1792,1.09871244635193,704,0.431637032495402,-16096,9.86879215205395,2,3.23170731707317,-53,-0.121951219512195,0,0,-5,0.0217391304347826,-42,-0.182608695652174,143,-0.697560975609756,
13817974,9980.46875,-1952,1.19681177191907,528,0.323727774371551,-16112,9.87860208461067,6,3.53658536585366,-58,-0.365853658536585,-3,0.182926829268293,-4,0.0173913043478261,-41,-0.178260869565217,145,-0.707317073170732,
13818614,10000,-1952,1.19681177191907,592,0.362967504598406,-16096,9.86879215205395,-21,4.08536585365854,-67,1.28048780487805,-10,0.609756097560976,-3,0.0130434782608696,-44,-0.191304347826087,143,-0.697560975609756,
13819254,10019.53125,-1888,1.15757204169221,704,0.431637032495402,-16080,9.85898221949724,-57,4.81707317073171,-79,3.47560975609756,-17,1.03658536585366,-2,0.00869565217391304,-44,-0.191304347826087,146,-0.712195121951219,
13819894,10039.0625,-1840,1.12814224402207,768,0.470876762722256,-16112,9.87860208461067,-60,4.87804878048781,-80,3.65853658536585,-22,1.34146341463415,-4,0.0173913043478261,-40,-0.173913043478261,143,-0.697560975609756,
13820534,10058.59375,-1648,1.01042305334151,880,0.539546290619252,-16160,9.90803188228081,-46,4.39024390243902,-72,2.80487804878049,-17,1.03658536585366,-3,0.0130434782608696,-42,-0.182608695652174,144,-0.702439024390244,
13821174,10078.125,-1744,1.06928264868179,816,0.500306560392397,-16272,9.9767014101778,-3,4.51219512195122,-74,0.182926829268293,-15,0.914634146341463,-2,0.00869565217391304,-42,-0.182608695652174,145,-0.707317073170732,
13821814,10097.65625,-1872,1.1477621091355,784,0.48068669527897,-16176,9.91784181483752,11,4.69512195121951,-77,-0.670731707317073,-10,0.609756097560976,-5,0.0217391304347826,-43,-0.18695652173913,145,-0.707317073170732,
13822454,10117.1875,-1856,1.13795217657879,752,0.461066830165543,-16080,9.85898221949724,-26,4.9390243902439,-81,1.58536585365854,-17,1.03658536585366,-5,0.0217391304347826,-43,-0.18695652173913,144,-0.702439024390244,
13823094,10136.71875,4944,-3.03126916002452,-2096,-1.28510116492949,-24368,14.9405272838749,-48,4.9390243902439,-81,2.92682926829268,-23,1.40243902439024,-3,0.0130434782608696,-42,-0.182608695652174,144,-0.702439024390244,
13823734,10156.25,-512,0.313917841814838,3920,2.40343347639485,-17008,10.4279583077866,1276,-22.7439024390244,373,-77.8048780487805,-122,7.4390243902439,-2,0.00869565217391304,-42,-0.182608695652174,142,-0.692682926829268,
13824374,10175.78125,-9616,5.89576946658492,4976,3.05088902513795,-17344,10.6339668914776,1042,28.6585365853659,-470,-63.5365853658537,77,-4.69512195121951,-1,0.00434782608695652,-38,-0.165217391304348,142,-0.692682926829268,
13825014,10195.3125,-4480,2.74678111587983,848,0.519926425505825,-16944,10.3887185775598,-1504,10.7317073170732,-176,91.7073170731707,221,-13.4756097560976,-5,0.0217391304347826,-40,-0.173913043478261,145,-0.707317073170732,
13825654,10214.84375,1264,-0.77498467198038,1808,1.10852237890864,-14752,9.04475781729001,-1431,20.1219512195122,-330,87.2560975609756,93,-5.67073170731707,-5,0.0217391304347826,-45,-0.195652173913043,147,-0.717073170731707,
13826294,10234.375,1360,-0.833844267320662,2352,1.44206008583691,-15520,9.51563458001226,-580,-3.35365853658537,55,35.3658536585366,-17,1.03658536585366,-5,0.0217391304347826,-45,-0.195652173913043,148,-0.721951219512195,
13826934,10253.90625,-1008,0.618025751072961,-960,-0.58859595340282,-16576,10.1630901287554,231,-13.109756097561,215,-14.0853658536585,211,-12.8658536585366,-5,0.0217391304347826,-42,-0.182608695652174,145,-0.707317073170732,
13827574,10273.4375,-2112,1.2949110974862,-80,-0.0490496627835684,-16944,10.3887185775598,251,2.80487804878049,-46,-15.3048780487805,67,-4.08536585365854,-6,0.0260869565217391,-42,-0.182608695652174,144,-0.702439024390244,
13828214,10292.96875,-1552,0.951563458001226,976,0.598405885959534,-16720,10.2513795217658,-16,4.57317073170732,-75,0.975609756097561,4,-0.24390243902439,-7,0.0304347826086957,-40,-0.173913043478261,147,-0.717073170731707,
13828854,10312.5,-1008,0.618025751072961,448,0.274678111587983,-16368,10.0355610055181,-31,4.69512195121951,-77,1.89024390243902,14,-0.853658536585366,-6,0.0260869565217391,-44,-0.191304347826087,147,-0.717073170731707,
13829494,10332.03125,-1456,0.892703862660944,784,0.48068669527897,-16208,9.93746167995095,34,5.79268292682927,-95,-2.07317073170732,0,0,-5,0.0217391304347826,-42,-0.182608695652174,146,-0.712195121951219,
13830134,10351.5625,-1120,0.686695278969957,880,0.539546290619252,-15952,9.78050275904353,-70,6.46341463414634,-106,4.26829268292683,-7,0.426829268292683,-6,0.0260869565217391,-43,-0.18695652173913,146,-0.712195121951219,
13830774,10371.09375,-848,0.519926425505825,880,0.539546290619252,-15808,9.69221336603311,-38,6.28048780487805,-103,2.31707317073171,-14,0.853658536585366,-7,0.0304347826086957,-42,-0.182608695652174,146,-0.712195121951219,
13831414,10390.625,-1344,0.824034334763949,928,0.568976088289393,-15936,9.77069282648682,57,4.87804878048781,-80,-3.47560975609756,-18,1.09756097560976,-4,0.0173913043478261,-44,-0.191304347826087,145,-0.707317073170732,
13832054,10410.15625,-1328,0.814224402207235,912,0.559166155732679,-15856,9.72164316370325,33,4.9390243902439,-81,-2.01219512195122,-29,1.76829268292683,-4,0.0173913043478261,-46,-0.2,146,-0.712195121951219,
13832694,10429.6875,-1408,0.863274064990803,992,0.608215818516248,-15856,9.72164316370325,37,4.26829268292683,-70,-2.25609756097561,-23,1.40243902439024,-5,0.0217391304347826,-44,-0.191304347826087,147,-0.717073170731707,
13833334,10449.21875,-1536,0.941753525444513,912,0.559166155732679,-15872,9.73145309625996,28,3.53658536585366,-58,-1.70731707317073,-17,1.03658536585366,-5,0.0217391304347826,-40,-0.173913043478261,147,-0.717073170731707,
13833974,10468.75,-1472,0.902513795217658,832,0.510116492949111,-16032,9.8295524218271,-5,3.84146341463415,-63,0.304878048780488,-16,0.975609756097561,-2,0.00869565217391304,-46,-0.2,146,-0.712195121951219,
13834614,10488.28125,-1600,0.980993255671367,688,0.421827099938688,-16080,9.85898221949724,-20,4.26829268292683,-70,1.21951219512195,-27,1.64634146341463,-5,0.0217391304347826,-45,-0.195652173913043,146,-0.712195121951219,
13835254,10507.8125,-1328,0.814224402207235,800,0.490496627835684,-16160,9.90803188228081,-65,4.9390243902439,-81,3.96341463414634,-47,2.86585365853659,-6,0.0260869565217391,-41,-0.178260869565217,147,-0.717073170731707,
13835894,10527.34375,-1328,0.814224402207235,848,0.519926425505825,-16176,9.91784181483752,-35,4.75609756097561,-78,2.13414634146341,-61,3.71951219512195,-5,0.0217391304347826,-40,-0.173913043478261,145,-0.707317073170732,
13836534,10546.875,-1376,0.843654199877376,880,0.539546290619252,-16176,9.91784181483752,9,5.18292682926829,-85,-0.548780487804878,-63,3.84146341463415,-5,0.0217391304347826,-45,-0.195652173913043,146,-0.712195121951219,
13837174,10566.40625,8592,-5.26793378295524,-3024,-1.85407725321888,-24416,14.9699570815451,4188,-44.5121951219512,730,-255.365853658537,-1876,114.390243902439,-6,0.0260869565217391,-43,-0.18695652173913,149,-0.726829268292683,
13837814,10585.9375,-704,0.431637032495402,7536,4.62047823421214,-18384,11.271612507664,2503,31.890243902439,-523,-152.621951219512,817,-49.8170731707317,-7,0.0304347826086957,-36,-0.156521739130435,144,-0.702439024390244,
13838454,10605.46875,-13920,8.53464132434089,5408,3.31575720416922,-18736,11.4874310239117,-1091,33.4756097560976,-549,66.5243902439024,192,-11.7073170731707,-3,0.0130434782608696,-38,-0.165217391304348,141,-0.68780487804878,
