Shimmer,Shimmer,Shimmer,Shimmer,Shimmer,Shimmer,Shimmer,Shimmer,Shimmer,Shimmer,Shimmer,Shimmer,Shimmer,Shimmer,Shimmer,Shimmer,Shimmer,Shimmer,Shimmer,Shimmer,
Timestamp,Timestamp,Wide Range Accelerometer X,Wide Range Accelerometer X,Wide Range Accelerometer Y,Wide Range Accelerometer Y,Wide Range Accelerometer Z,Wide Range Accelerometer Z,Gyroscope X,Gyroscope X,Gyroscope Y,Gyroscope Y,Gyroscope Z,Gyroscope Z,Magnetometer X,Magnetometer X,Magnetometer Y,Magnetometer Y,Magnetometer Z,Magnetometer Z,
RAW,CAL,RAW,CAL,RAW,CAL,RAW,CAL,RAW,CAL,RAW,CAL,RAW,CAL,RAW,CAL,RAW,CAL,RAW,CAL,
no units,mSecs,no units,m/(sec^2),no units,m/(sec^2),no units,m/(sec^2),no units,deg/sec,no units,deg/sec,no units,deg/sec,no units,local,no units,local,no units,local,
7652854,0,4944,-3.03126916002452,-15392,-9.43715511955855,-1552,0.951563458001226,-36,3.41463414634146,-56,2.19512195121951,-2,0.121951219512195,-73,0.317391304347826,44,0.191304347826087,124,-0.604878048780488,
7653494,19.53125,5072,-3.10974862047823,-15392,-9.43715511955855,-1504,0.922133660331085,-23,3.53658536585366,-58,1.40243902439024,2,-0.121951219512195,-74,0.321739130434783,42,0.182608695652174,126,-0.614634146341463,
7654134,39.0625,5168,-3.16860821581852,-15328,-9.3979153893317,-1568,0.96137339055794,-13,2.98780487804878,-49,0.792682926829268,4,-0.24390243902439,-73,0.317391304347826,43,0.18695652173913,124,-0.604878048780488,
7654774,58.59375,5088,-3.11955855303495,-15424,-9.45677498467198,-1568,0.96137339055794,-18,3.59756097560976,-59,1.09756097560976,-16,0.975609756097561,-71,0.308695652173913,42,0.182608695652174,124,-0.604878048780488,
7655414,78.125,5056,-3.09993868792152,-15200,-9.31943592887799,-1632,1.00061312078479,8,2.5,-41,-0.487804878048781,-12,0.731707317073171,-72,0.31304347826087,42,0.182608695652174,124,-0.604878048780488,
7656054,97.65625,5056,-3.09993868792152,-15200,-9.31943592887799,-1616,0.990803188228081,18,2.80487804878049,-46,-1.09756097560976,-8,0.487804878048781,-71,0.308695652173913,41,0.178260869565217,124,-0.604878048780488,
7656694,117.1875,5056,-3.09993868792152,-15280,-9.36848559166156,-1584,0.971183323114654,8,2.37804878048781,-39,-0.487804878048781,-10,0.609756097560976,-73,0.317391304347826,44,0.191304347826087,125,-0.609756097560976,
7657334,136.71875,5024,-3.08031882280809,-15248,-9.34886572654813,-1648,1.01042305334151,-1,2.37804878048781,-39,0.0609756097560976,-10,0.609756097560976,-72,0.31304347826087,40,0.173913043478261,125,-0.609756097560976,
7657974,156.25,5104,-3.12936848559166,-15264,-9.35867565910484,-1600,0.980993255671367,0,2.13414634146341,-35,0,-12,0.731707317073171,-71,0.308695652173913,41,0.178260869565217,125,-0.609756097560976,
7658614,175.78125,5056,-3.09993868792152,-15296,-9.37829552421827,-1584,0.971183323114654,-7,2.37804878048781,-39,0.426829268292683,-13,0.792682926829268,-73,0.317391304347826,44,0.191304347826087,123,-0.6,
7659254,195.3125,5088,-3.11955855303495,-15264,-9.35867565910484,-1600,0.980993255671367,-5,2.68292682926829,-44,0.304878048780488,-23,1.40243902439024,-73,0.317391304347826,41,0.178260869565217,124,-0.604878048780488,
7659894,214.84375,5088,-3.11955855303495,-15328,-9.3979153893317,-1696,1.03985285101165,-2,2.80487804878049,-46,0.121951219512195,-20,1.21951219512195,-72,0.31304347826087,41,0.178260869565217,125,-0.609756097560976,
7660534,234.375,5024,-3.08031882280809,-15296,-9.37829552421827,-1584,0.971183323114654,-2,2.98780487804878,-49,0.121951219512195,-18,1.09756097560976,-72,0.31304347826087,43,0.18695652173913,124,-0.604878048780488,
7661174,253.90625,5024,-3.08031882280809,-15376,-9.42734518700184,-1552,0.951563458001226,-10,2.74390243902439,-45,0.609756097560976,-18,1.09756097560976,-72,0.31304347826087,46,0.2,124,-0.604878048780488,
7661814,273.4375,5168,-3.16860821581852,-15360,-9.41753525444513,-1552,0.951563458001226,-5,2.68292682926829,-44,0.304878048780488,-14,0.853658536585366,-71,0.308695652173913,41,0.178260869565217,125,-0.609756097560976,
7662454,292.96875,5120,-3.13917841814837,-15264,-9.35867565910484,-1632,1.00061312078479,11,2.37804878048781,-39,-0.670731707317073,-15,0.914634146341463,-72,0.31304347826087,45,0.195652173913043,125,-0.609756097560976,
7663094,312.5,5056,-3.09993868792152,-15296,-9.37829552421827,-1664,1.02023298589822,22,2.68292682926829,-44,-1.34146341463415,-17,1.03658536585366,-73,0.317391304347826,45,0.195652173913043,123,-0.6,
7663734,332.03125,5040,-3.09012875536481,-15328,-9.3979153893317,-1616,0.990803188228081,27,2.68292682926829,-44,-1.64634146341463,-13,0.792682926829268,-71,0.308695652173913,44,0.191304347826087,123,-0.6,
7664374,351.5625,4960,-3.04107909258124,-15312,-9.38810545677498,-1600,0.980993255671367,14,2.68292682926829,-44,-0.853658536585366,-14,0.853658536585366,-73,0.317391304347826,41,0.178260869565217,125,-0.609756097560976,
7665014,371.09375,4976,-3.05088902513795,-15376,-9.42734518700184,-1648,1.01042305334151,-2,3.17073170731707,-52,0.121951219512195,-16,0.975609756097561,-73,0.317391304347826,44,0.191304347826087,125,-0.609756097560976,
7665654,390.625,4960,-3.04107909258124,-15376,-9.42734518700184,-1584,0.971183323114654,-8,3.41463414634146,-56,0.487804878048781,-13,0.792682926829268,-71,0.308695652173913,42,0.182608695652174,124,-0.604878048780488,
7666294,410.15625,4944,-3.03126916002452,-15440,-9.46658491722869,-1632,1.00061312078479,-22,3.96341463414634,-65,1.34146341463415,-13,0.792682926829268,-73,0.317391304347826,45,0.195652173913043,122,-0.595121951219512,
7666934,429.6875,5008,-3.07050889025138,-15392,-9.43715511955855,-1632,1.00061312078479,-38,4.39024390243902,-72,2.31707317073171,-17,1.03658536585366,-73,0.317391304347826,46,0.2,125,-0.609756097560976,
7667574,449.21875,5024,-3.08031882280809,-15296,-9.37829552421827,-1552,0.951563458001226,-34,4.63414634146342,-76,2.07317073170732,-13,0.792682926829268,-73,0.317391304347826,46,0.2,124,-0.604878048780488,
7668214,468.75,5072,-3.10974862047823,-15408,-9.44696505211527,-1536,0.941753525444513,-35,4.45121951219512,-73,2.13414634146341,-12,0.731707317073171,-72,0.31304347826087,39,0.169565217391304,126,-0.614634146341463,
7668854,488.28125,5072,-3.10974862047823,-15376,-9.42734518700184,-1488,0.912323727774372,-33,4.26829268292683,-70,2.01219512195122,-20,1.21951219512195,-72,0.31304347826087,41,0.178260869565217,125,-0.609756097560976,
7669494,507.8125,5040,-3.09012875536481,-15264,-9.35867565910484,-1584,0.971183323114654,-43,3.84146341463415,-63,2.6219512195122,-20,1.21951219512195,-73,0.317391304347826,43,0.18695652173913,125,-0.609756097560976,
7670134,527.34375,5056,-3.09993868792152,-15248,-9.34886572654813,-1552,0.951563458001226,-26,3.96341463414634,-65,1.58536585365854,-16,0.975609756097561,-74,0.321739130434783,44,0.191304347826087,123,-0.6,
7670774,546.875,5008,-3.07050889025138,-15296,-9.37829552421827,-1536,0.941753525444513,-22,3.23170731707317,-53,1.34146341463415,-12,0.731707317073171,-71,0.308695652173913,40,0.173913043478261,125,-0.609756097560976,
7671414,566.40625,5136,-3.14898835070509,-15344,-9.40772532188841,-1584,0.971183323114654,-20,3.29268292682927,-54,1.21951219512195,-11,0.670731707317073,-73,0.317391304347826,40,0.173913043478261,125,-0.609756097560976,
7672054,585.9375,5136,-3.14898835070509,-15328,-9.3979153893317,-1472,0.902513795217658,-8,3.23170731707317,-53,0.487804878048781,-7,0.426829268292683,-73,0.317391304347826,44,0.191304347826087,125,-0.609756097560976,
7672694,605.46875,5216,-3.19803801348866,-15408,-9.44696505211527,-1504,0.922133660331085,2,3.23170731707317,-53,-0.121951219512195,-5,0.304878048780488,-71,0.308695652173913,43,0.18695652173913,124,-0.604878048780488,
7673334,625,5168,-3.16860821581852,-15280,-9.36848559166156,-1584,0.971183323114654,21,3.04878048780488,-50,-1.28048780487805,-4,0.24390243902439,-75,0.326086956521739,44,0.191304347826087,123,-0.6,
7673974,644.53125,5024,-3.08031882280809,-15296,-9.37829552421827,-1552,0.951563458001226,26,2.80487804878049,-46,-1.58536585365854,-5,0.304878048780488,-74,0.321739130434783,42,0.182608695652174,126,-0.614634146341463,
7674614,664.0625,5008,-3.07050889025138,-15408,-9.44696505211527,-1520,0.931943592887799,14,2.92682926829268,-48,-0.853658536585366,-5,0.304878048780488,-74,0.321739130434783,48,0.208695652173913,124,-0.604878048780488,
7675254,683.59375,5008,-3.07050889025138,-15488,-9.49601471489883,-1472,0.902513795217658,2,2.92682926829268,-48,-0.121951219512195,0,0,-74,0.321739130434783,47,0.204347826086957,123,-0.6,
7675894,703.125,5040,-3.09012875536481,-15424,-9.45677498467198,-1536,0.941753525444513,-7,3.47560975609756,-57,0.426829268292683,8,-0.487804878048781,-74,0.321739130434783,40,0.173913043478261,124,-0.604878048780488,
7676534,722.65625,5088,-3.11955855303495,-15376,-9.42734518700184,-1568,0.96137339055794,-20,3.78048780487805,-62,1.21951219512195,3,-0.182926829268293,-73,0.317391304347826,42,0.182608695652174,124,-0.604878048780488,
7677174,742.1875,5072,-3.10974862047823,-15376,-9.42734518700184,-1696,1.03985285101165,-24,4.08536585365854,-67,1.46341463414634,-4,0.24390243902439,-72,0.31304347826087,39,0.169565217391304,125,-0.609756097560976,
7677814,761.71875,4992,-3.06069895769467,-15376,-9.42734518700184,-1664,1.02023298589822,-33,4.39024390243902,-72,2.01219512195122,-11,0.670731707317073,-72,0.31304347826087,40,0.173913043478261,126,-0.614634146341463,
7678454,781.25,5104,-3.12936848559166,-15312,-9.38810545677498,-1744,1.06928264868179,-35,4.51219512195122,-74,2.13414634146341,-12,0.731707317073171,-74,0.321739130434783,44,0.191304347826087,125,-0.609756097560976,
7679094,800.78125,5104,-3.12936848559166,-15280,-9.36848559166156,-1600,0.980993255671367,-36,4.26829268292683,-70,2.19512195121951,-11,0.670731707317073,-75,0.326086956521739,45,0.195652173913043,125,-0.609756097560976,
7679734,820.3125,5168,-3.16860821581852,-15328,-9.3979153893317,-1568,0.96137339055794,-31,3.53658536585366,-58,1.89024390243902,-10,0.609756097560976,-73,0.317391304347826,41,0.178260869565217,125,-0.609756097560976,
7680374,839.84375,5152,-3.1587982832618,-15360,-9.41753525444513,-1568,0.96137339055794,-38,3.59756097560976,-59,2.31707317073171,-10,0.609756097560976,-73,0.317391304347826,47,0.204347826086957,125,-0.609756097560976,
7681014,859.375,5136,-3.14898835070509,-15264,-9.35867565910484,-1600,0.980993255671367,-39,3.17073170731707,-52,2.37804878048781,-12,0.731707317073171,-73,0.317391304347826,44,0.191304347826087,124,-0.604878048780488,
7681654,878.90625,5184,-3.17841814837523,-15248,-9.34886572654813,-1728,1.05947271612508,-35,3.10975609756098,-51,2.13414634146341,-13,0.792682926829268,-72,0.31304347826087,43,0.18695652173913,125,-0.609756097560976,
7682294,898.4375,5280,-3.23727774371551,-15216,-9.3292458614347,-1728,1.05947271612508,-13,2.98780487804878,-49,0.792682926829268,-15,0.914634146341463,-72,0.31304347826087,41,0.178260869565217,125,-0.609756097560976,
7682934,917.96875,5296,-3.24708767627223,-15200,-9.31943592887799,-1680,1.03004291845494,-5,2.68292682926829,-44,0.304878048780488,-12,0.731707317073171,-74,0.321739130434783,42,0.182608695652174,125,-0.609756097560976,
7683574,937.5,5248,-3.21765787860208,-15264,-9.35867565910484,-1680,1.03004291845494,-2,2.74390243902439,-45,0.121951219512195,-12,0.731707317073171,-74,0.321739130434783,42,0.182608695652174,126,-0.614634146341463,
7684214,957.03125,5248,-3.21765787860208,-15264,-9.35867565910484,-1648,1.01042305334151,22,2.5609756097561,-42,-1.34146341463415,-14,0.853658536585366,-74,0.321739130434783,41,0.178260869565217,124,-0.604878048780488,
7684854,976.5625,5152,-3.1587982832618,-15184,-9.30962599632127,-1648,1.01042305334151,22,2.37804878048781,-39,-1.34146341463415,-16,0.975609756097561,-73,0.317391304347826,40,0.173913043478261,125,-0.609756097560976,
7685494,996.09375,5184,-3.17841814837523,-15232,-9.33905579399141,-1632,1.00061312078479,22,2.6219512195122,-43,-1.34146341463415,-20,1.21951219512195,-74,0.321739130434783,43,0.18695652173913,126,-0.614634146341463,
7686134,1015.625,5088,-3.11955855303495,-15296,-9.37829552421827,-1616,0.990803188228081,30,2.19512195121951,-36,-1.82926829268293,-13,0.792682926829268,-73,0.317391304347826,41,0.178260869565217,125,-0.609756097560976,
7686774,1035.15625,5056,-3.09993868792152,-15440,-9.46658491722869,-1568,0.96137339055794,21,2.5,-41,-1.28048780487805,-7,0.426829268292683,-76,0.330434782608696,41,0.178260869565217,125,-0.609756097560976,
7687414,1054.6875,5072,-3.10974862047823,-15408,-9.44696505211527,-1648,1.01042305334151,-1,2.98780487804878,-49,0.0609756097560976,-6,0.365853658536585,-73,0.317391304347826,44,0.191304347826087,124,-0.604878048780488,
7688054,1074.21875,5040,-3.09012875536481,-15312,-9.38810545677498,-1648,1.01042305334151,-15,3.17073170731707,-52,0.914634146341463,-9,0.548780487804878,-73,0.317391304347826,43,0.18695652173913,125,-0.609756097560976,
7688694,1093.75,5120,-3.13917841814837,-15312,-9.38810545677498,-1616,0.990803188228081,-23,3.47560975609756,-57,1.40243902439024,-22,1.34146341463415,-73,0.317391304347826,40,0.173913043478261,126,-0.614634146341463,
7689334,1113.28125,5136,-3.14898835070509,-15296,-9.37829552421827,-1648,1.01042305334151,-21,3.35365853658537,-55,1.28048780487805,-25,1.52439024390244,-74,0.321739130434783,42,0.182608695652174,124,-0.604878048780488,
7689974,1132.8125,5184,-3.17841814837523,-15344,-9.40772532188841,-1632,1.00061312078479,-16,3.29268292682927,-54,0.975609756097561,-19,1.15853658536585,-73,0.317391304347826,43,0.18695652173913,124,-0.604878048780488,
7690614,1152.34375,5152,-3.1587982832618,-15280,-9.36848559166156,-1728,1.05947271612508,-9,3.17073170731707,-52,0.548780487804878,-14,0.853658536585366,-75,0.326086956521739,46,0.2,124,-0.604878048780488,
7691254,1171.875,5184,-3.17841814837523,-15280,-9.36848559166156,-1680,1.03004291845494,-2,3.29268292682927,-54,0.121951219512195,-10,0.609756097560976,-72,0.31304347826087,40,0.173913043478261,126,-0.614634146341463,
7691894,1191.40625,5280,-3.23727774371551,-15280,-9.36848559166156,-1680,1.03004291845494,19,3.04878048780488,-50,-1.15853658536585,-8,0.487804878048781,-74,0.321739130434783,42,0.182608695652174,126,-0.614634146341463,
7692534,1210.9375,5216,-3.19803801348866,-15344,-9.40772532188841,-1648,1.01042305334151,21,3.35365853658537,-55,-1.28048780487805,-9,0.548780487804878,-73,0.317391304347826,44,0.191304347826087,124,-0.604878048780488,
7693174,1230.46875,5184,-3.17841814837523,-15232,-9.33905579399141,-1616,0.990803188228081,21,3.23170731707317,-53,-1.28048780487805,-13,0.792682926829268,-72,0.31304347826087,43,0.18695652173913,125,-0.609756097560976,
7693814,1250,5168,-3.16860821581852,-15312,-9.38810545677498,-1520,0.931943592887799,23,2.98780487804878,-49,-1.40243902439024,-11,0.670731707317073,-73,0.317391304347826,41,0.178260869565217,125,-0.609756097560976,
7694454,1269.53125,5104,-3.12936848559166,-15360,-9.41753525444513,-1568,0.96137339055794,10,2.98780487804878,-49,-0.609756097560976,-15,0.914634146341463,-74,0.321739130434783,40,0.173913043478261,125,-0.609756097560976,
7695094,1289.0625,5072,-3.10974862047823,-15376,-9.42734518700184,-1616,0.990803188228081,2,2.92682926829268,-48,-0.121951219512195,-6,0.365853658536585,-72,0.31304347826087,39,0.169565217391304,125,-0.609756097560976,
7695734,1308.59375,5008,-3.07050889025138,-15328,-9.3979153893317,-1696,1.03985285101165,-1,3.23170731707317,-53,0.0609756097560976,2,-0.121951219512195,-73,0.317391304347826,41,0.178260869565217,125,-0.609756097560976,
7696374,1328.125,5056,-3.09993868792152,-15296,-9.37829552421827,-1648,1.01042305334151,-11,3.10975609756098,-51,0.670731707317073,-2,0.121951219512195,-74,0.321739130434783,44,0.191304347826087,124,-0.604878048780488,
7697014,1347.65625,5168,-3.16860821581852,-15312,-9.38810545677498,-1648,1.01042305334151,-18,3.23170731707317,-53,1.09756097560976,-4,0.24390243902439,-75,0.326086956521739,40,0.173913043478261,123,-0.6,
7697654,1367.1875,5200,-3.18822808093194,-15312,-9.38810545677498,-1600,0.980993255671367,-17,3.47560975609756,-57,1.03658536585366,-3,0.182926829268293,-71,0.308695652173913,41,0.178260869565217,124,-0.604878048780488,
7698294,1386.71875,5264,-3.2274678111588,-15328,-9.3979153893317,-1680,1.03004291845494,-7,3.59756097560976,-59,0.426829268292683,1,-0.0609756097560976,-74,0.321739130434783,47,0.204347826086957,124,-0.604878048780488,
7698934,1406.25,5296,-3.24708767627223,-15248,-9.34886572654813,-1648,1.01042305334151,2,3.59756097560976,-59,-0.121951219512195,-4,0.24390243902439,-77,0.334782608695652,45,0.195652173913043,123,-0.6,
7699574,1425.78125,5152,-3.1587982832618,-15280,-9.36848559166156,-1632,1.00061312078479,14,3.47560975609756,-57,-0.853658536585366,-8,0.487804878048781,-72,0.31304347826087,41,0.178260869565217,126,-0.614634146341463,
7700214,1445.3125,5152,-3.1587982832618,-15280,-9.36848559166156,-1680,1.03004291845494,10,3.41463414634146,-56,-0.609756097560976,-11,0.670731707317073,-72,0.31304347826087,46,0.2,125,-0.609756097560976,
7700854,1464.84375,5056,-3.09993868792152,-15344,-9.40772532188841,-1600,0.980993255671367,5,3.29268292682927,-54,-0.304878048780488,-12,0.731707317073171,-73,0.317391304347826,43,0.18695652173913,124,-0.604878048780488,
7701494,1484.375,5136,-3.14898835070509,-15248,-9.34886572654813,-1600,0.980993255671367,-2,3.35365853658537,-55,0.121951219512195,-11,0.670731707317073,-73,0.317391304347826,44,0.191304347826087,124,-0.604878048780488,
7702134,1503.90625,5248,-3.21765787860208,-15280,-9.36848559166156,-1632,1.00061312078479,-1,3.35365853658537,-55,0.0609756097560976,-11,0.670731707317073,-75,0.326086956521739,41,0.178260869565217,126,-0.614634146341463,
7702774,1523.4375,5216,-3.19803801348866,-15344,-9.40772532188841,-1616,0.990803188228081,2,3.47560975609756,-57,-0.121951219512195,-11,0.670731707317073,-74,0.321739130434783,40,0.173913043478261,125,-0.609756097560976,
7703414,1542.96875,5136,-3.14898835070509,-15312,-9.38810545677498,-1760,1.0790925812385,1,3.53658536585366,-58,-0.0609756097560976,-13,0.792682926829268,-73,0.317391304347826,42,0.182608695652174,125,-0.609756097560976,
7704054,1562.5,5136,-3.14898835070509,-15248,-9.34886572654813,-1776,1.08890251379522,0,3.23170731707317,-53,0,-14,0.853658536585366,-72,0.31304347826087,42,0.182608695652174,125,-0.609756097560976,
7704694,1582.03125,5184,-3.17841814837523,-15248,-9.34886572654813,-1696,1.03985285101165,9,2.98780487804878,-49,-0.548780487804878,-10,0.609756097560976,-74,0.321739130434783,44,0.191304347826087,125,-0.609756097560976,
7705334,1601.5625,5200,-3.18822808093194,-15248,-9.34886572654813,-1728,1.05947271612508,13,2.92682926829268,-48,-0.792682926829268,-9,0.548780487804878,-72,0.31304347826087,44,0.191304347826087,124,-0.604878048780488,
7705974,1621.09375,5200,-3.18822808093194,-15296,-9.37829552421827,-1648,1.01042305334151,20,2.37804878048781,-39,-1.21951219512195,-5,0.304878048780488,-72,0.31304347826087,41,0.178260869565217,124,-0.604878048780488,
7706614,1640.625,5216,-3.19803801348866,-15312,-9.38810545677498,-1600,0.980993255671367,40,2.4390243902439,-40,-2.4390243902439,-8,0.487804878048781,-75,0.326086956521739,41,0.178260869565217,125,-0.609756097560976,
7707254,1660.15625,5120,-3.13917841814837,-15312,-9.38810545677498,-1696,1.03985285101165,53,2.01219512195122,-33,-3.23170731707317,-8,0.487804878048781,-73,0.317391304347826,46,0.2,124,-0.604878048780488,
7707894,1679.6875,5056,-3.09993868792152,-15360,-9.41753525444513,-1680,1.03004291845494,55,2.01219512195122,-33,-3.35365853658537,-8,0.487804878048781,-74,0.321739130434783,44,0.191304347826087,125,-0.609756097560976,
7708534,1699.21875,5040,-3.09012875536481,-15360,-9.41753525444513,-1648,1.01042305334151,39,2.13414634146341,-35,-2.37804878048781,-9,0.548780487804878,-72,0.31304347826087,40,0.173913043478261,126,-0.614634146341463,
7709174,1718.75,4960,-3.04107909258124,-15408,-9.44696505211527,-1680,1.03004291845494,11,2.5609756097561,-42,-0.670731707317073,-8,0.487804878048781,-73,0.317391304347826,40,0.173913043478261,125,-0.609756097560976,
7709814,1738.28125,4944,-3.03126916002452,-15328,-9.3979153893317,-1600,0.980993255671367,-8,2.92682926829268,-48,0.487804878048781,-7,0.426829268292683,-72,0.31304347826087,45,0.195652173913043,124,-0.604878048780488,
7710454,1757.8125,5024,-3.08031882280809,-15328,-9.3979153893317,-1792,1.09871244635193,-35,3.10975609756098,-51,2.13414634146341,-6,0.365853658536585,-72,0.31304347826087,44,0.191304347826087,124,-0.604878048780488,
7711094,1777.34375,5120,-3.13917841814837,-15312,-9.38810545677498,-1776,1.08890251379522,-47,3.78048780487805,-62,2.86585365853659,-9,0.548780487804878,-73,0.317391304347826,43,0.18695652173913,124,-0.604878048780488,
7711734,1796.875,5168,-3.16860821581852,-15296,-9.37829552421827,-1648,1.01042305334151,-57,4.14634146341463,-68,3.47560975609756,-7,0.426829268292683,-73,0.317391304347826,42,0.182608695652174,126,-0.614634146341463,
7712374,1816.40625,5264,-3.2274678111588,-15328,-9.3979153893317,-1696,1.03985285101165,-56,4.08536585365854,-67,3.41463414634146,-10,0.609756097560976,-72,0.31304347826087,44,0.191304347826087,124,-0.604878048780488,
7713014,1835.9375,5264,-3.2274678111588,-15248,-9.34886572654813,-1648,1.01042305334151,-42,3.90243902439024,-64,2.5609756097561,-7,0.426829268292683,-72,0.31304347826087,42,0.182608695652174,124,-0.604878048780488,
7713654,1855.46875,5248,-3.21765787860208,-15248,-9.34886572654813,-1632,1.00061312078479,-22,3.41463414634146,-56,1.34146341463415,-6,0.365853658536585,-74,0.321739130434783,40,0.173913043478261,125,-0.609756097560976,
7714294,1875,5200,-3.18822808093194,-15216,-9.3292458614347,-1648,1.01042305334151,-10,2.68292682926829,-44,0.609756097560976,-1,0.0609756097560976,-78,0.339130434782609,43,0.18695652173913,124,-0.604878048780488,
7714934,1894.53125,5200,-3.18822808093194,-15280,-9.36848559166156,-1616,0.990803188228081,5,2.31707317073171,-38,-0.304878048780488,-4,0.24390243902439,-71,0.308695652173913,39,0.169565217391304,125,-0.609756097560976,
7715574,1914.0625,5184,-3.17841814837523,-15216,-9.3292458614347,-1696,1.03985285101165,21,2.01219512195122,-33,-1.28048780487805,-1,0.0609756097560976,-72,0.31304347826087,40,0.173913043478261,124,-0.604878048780488,
7716214,1933.59375,5184,-3.17841814837523,-15264,-9.35867565910484,-1696,1.03985285101165,25,1.89024390243902,-31,-1.52439024390244,-4,0.24390243902439,-73,0.317391304347826,45,0.195652173913043,126,-0.614634146341463,
7716854,1953.125,5120,-3.13917841814837,-15296,-9.37829552421827,-1728,1.05947271612508,25,2.19512195121951,-36,-1.52439024390244,-3,0.182926829268293,-74,0.321739130434783,45,0.195652173913043,125,-0.609756097560976,
7717494,1972.65625,5104,-3.12936848559166,-15392,-9.43715511955855,-1648,1.01042305334151,14,2.5,-41,-0.853658536585366,-3,0.182926829268293,-72,0.31304347826087,40,0.173913043478261,125,-0.609756097560976,
7718134,1992.1875,5056,-3.09993868792152,-15360,-9.41753525444513,-1712,1.04966278356836,-6,2.6219512195122,-43,0.365853658536585,-3,0.182926829268293,-72,0.31304347826087,42,0.182608695652174,124,-0.604878048780488,
7718774,2011.71875,5024,-3.08031882280809,-15312,-9.38810545677498,-1680,1.03004291845494,-27,2.5609756097561,-42,1.64634146341463,-7,0.426829268292683,-73,0.317391304347826,42,0.182608695652174,125,-0.609756097560976,
7719414,2031.25,5136,-3.14898835070509,-15264,-9.35867565910484,-1632,1.00061312078479,-39,2.74390243902439,-45,2.37804878048781,-10,0.609756097560976,-73,0.317391304347826,45,0.195652173913043,123,-0.6,
7720054,2050.78125,5296,-3.24708767627223,-15184,-9.30962599632127,-1632,1.00061312078479,-34,3.90243902439024,-64,2.07317073170732,-7,0.426829268292683,-75,0.326086956521739,45,0.195652173913043,125,-0.609756097560976,
7720694,2070.3125,5280,-3.23727774371551,-15360,-9.41753525444513,-1616,0.990803188228081,-28,2.6219512195122,-43,1.70731707317073,2,-0.121951219512195,-72,0.31304347826087,42,0.182608695652174,124,-0.604878048780488,
7721334,2089.84375,5296,-3.24708767627223,-15344,-9.40772532188841,-1632,1.00061312078479,-26,2.5,-41,1.58536585365854,2,-0.121951219512195,-72,0.31304347826087,43,0.18695652173913,124,-0.604878048780488,
7721974,2109.375,5376,-3.29613733905579,-15264,-9.35867565910484,-1648,1.01042305334151,-10,2.5609756097561,-42,0.609756097560976,-2,0.121951219512195,-72,0.31304347826087,43,0.18695652173913,124,-0.604878048780488,
7722614,2128.90625,5360,-3.28632740649908,-15296,-9.37829552421827,-1680,1.03004291845494,15,2.5609756097561,-42,-0.914634146341463,-10,0.609756097560976,-75,0.326086956521739,44,0.191304347826087,123,-0.6,
7723254,2148.4375,5232,-3.20784794604537,-15200,-9.31943592887799,-1696,1.03985285101165,25,2.19512195121951,-36,-1.52439024390244,-13,0.792682926829268,-74,0.321739130434783,41,0.178260869565217,126,-0.614634146341463,
7723894,2167.96875,5248,-3.21765787860208,-15168,-9.29981606376456,-1600,0.980993255671367,26,2.37804878048781,-39,-1.58536585365854,-16,0.975609756097561,-72,0.31304347826087,41,0.178260869565217,126,-0.614634146341463,
7724534,2187.5,5152,-3.1587982832618,-15248,-9.34886572654813,-1552,0.951563458001226,36,1.89024390243902,-31,-2.19512195121951,-10,0.609756097560976,-72,0.31304347826087,41,0.178260869565217,126,-0.614634146341463,
7725174,2207.03125,5184,-3.17841814837523,-15296,-9.37829552421827,-1664,1.02023298589822,13,2.5609756097561,-42,-0.792682926829268,-13,0.792682926829268,-73,0.317391304347826,43,0.18695652173913,125,-0.609756097560976,
7725814,2226.5625,5152,-3.1587982832618,-15232,-9.33905579399141,-1664,1.02023298589822,12,2.13414634146341,-35,-0.731707317073171,-12,0.731707317073171,-73,0.317391304347826,45,0.195652173913043,124,-0.604878048780488,
7726454,2246.09375,5104,-3.12936848559166,-15184,-9.30962599632127,-1664,1.02023298589822,13,2.13414634146341,-35,-0.792682926829268,-11,0.670731707317073,-72,0.31304347826087,40,0.173913043478261,124,-0.604878048780488,
7727094,2265.625,5184,-3.17841814837523,-15104,-9.26057633353771,-1584,0.971183323114654,22,2.5,-41,-1.34146341463415,-13,0.792682926829268,-72,0.31304347826087,41,0.178260869565217,125,-0.609756097560976,
7727734,2285.15625,5120,-3.13917841814837,-15248,-9.34886572654813,-1648,1.01042305334151,19,1.95121951219512,-32,-1.15853658536585,-4,0.24390243902439,-73,0.317391304347826,44,0.191304347826087,126,-0.614634146341463,
7728374,2304.6875,5104,-3.12936848559166,-15312,-9.38810545677498,-1568,0.96137339055794,1,2.5609756097561,-42,-0.0609756097560976,-8,0.487804878048781,-73,0.317391304347826,43,0.18695652173913,124,-0.604878048780488,
7729014,2324.21875,5200,-3.18822808093194,-15328,-9.3979153893317,-1568,0.96137339055794,-6,2.13414634146341,-35,0.365853658536585,-11,0.670731707317073,-73,0.317391304347826,40,0.173913043478261,125,-0.609756097560976,
7729654,2343.75,5280,-3.23727774371551,-15376,-9.42734518700184,-1632,1.00061312078479,9,2.4390243902439,-40,-0.548780487804878,-13,0.792682926829268,-74,0.321739130434783,40,0.173913043478261,125,-0.609756097560976,
7730294,2363.28125,5152,-3.1587982832618,-15328,-9.3979153893317,-1632,1.00061312078479,17,2.31707317073171,-38,-1.03658536585366,-17,1.03658536585366,-73,0.317391304347826,43,0.18695652173913,124,-0.604878048780488,
7730934,2382.8125,5056,-3.09993868792152,-15264,-9.35867565910484,-1680,1.03004291845494,12,4.14634146341463,-68,-0.731707317073171,-19,1.15853658536585,-71,0.308695652173913,43,0.18695652173913,125,-0.609756097560976,
7731574,2402.34375,5072,-3.10974862047823,-15328,-9.3979153893317,-1632,1.00061312078479,-1,2.98780487804878,-49,0.0609756097560976,-17,1.03658536585366,-73,0.317391304347826,41,0.178260869565217,126,-0.614634146341463,
7732214,2421.875,5088,-3.11955855303495,-15424,-9.45677498467198,-1600,0.980993255671367,-17,2.68292682926829,-44,1.03658536585366,-13,0.792682926829268,-74,0.321739130434783,45,0.195652173913043,124,-0.604878048780488,
7732854,2441.40625,5056,-3.09993868792152,-15392,-9.43715511955855,-1680,1.03004291845494,-34,2.74390243902439,-45,2.07317073170732,-11,0.670731707317073,-74,0.321739130434783,47,0.204347826086957,124,-0.604878048780488,
7733494,2460.9375,5216,-3.19803801348866,-15328,-9.3979153893317,-1632,1.00061312078479,-43,3.35365853658537,-55,2.6219512195122,-13,0.792682926829268,-73,0.317391304347826,41,0.178260869565217,125,-0.609756097560976,
7734134,2480.46875,5216,-3.19803801348866,-15296,-9.37829552421827,-1616,0.990803188228081,-48,3.23170731707317,-53,2.92682926829268,-13,0.792682926829268,-74,0.321739130434783,40,0.173913043478261,124,-0.604878048780488,
7734774,2500,5216,-3.19803801348866,-15248,-9.34886572654813,-1680,1.03004291845494,-34,3.41463414634146,-56,2.07317073170732,-15,0.914634146341463,-72,0.31304347826087,40,0.173913043478261,124,-0.604878048780488,
7735414,2519.53125,5120,-3.13917841814837,-15232,-9.33905579399141,-1600,0.980993255671367,-32,3.04878048780488,-50,1.95121951219512,-13,0.792682926829268,-74,0.321739130434783,41,0.178260869565217,124,-0.604878048780488,
7736054,2539.0625,5136,-3.14898835070509,-15136,-9.28019619865113,-1584,0.971183323114654,-21,3.35365853658537,-55,1.28048780487805,-11,0.670731707317073,-75,0.326086956521739,44,0.191304347826087,124,-0.604878048780488,
7736694,2558.59375,5152,-3.1587982832618,-15280,-9.36848559166156,-1568,0.96137339055794,-20,2.5,-41,1.21951219512195,-6,0.365853658536585,-74,0.321739130434783,45,0.195652173913043,125,-0.609756097560976,
7737334,2578.125,5136,-3.14898835070509,-15280,-9.36848559166156,-1600,0.980993255671367,-35,2.68292682926829,-44,2.13414634146341,-4,0.24390243902439,-73,0.317391304347826,44,0.191304347826087,123,-0.6,
7737974,2597.65625,5296,-3.24708767627223,-15264,-9.35867565910484,-1616,0.990803188228081,-23,2.5,-41,1.40243902439024,-5,0.304878048780488,-74,0.321739130434783,44,0.191304347826087,124,-0.604878048780488,
7738614,2617.1875,5264,-3.2274678111588,-15296,-9.37829552421827,-1616,0.990803188228081,-9,2.6219512195122,-43,0.548780487804878,-5,0.304878048780488,-74,0.321739130434783,42,0.182608695652174,124,-0.604878048780488,
7739254,2636.71875,5312,-3.25689760882894,-15184,-9.30962599632127,-1616,0.990803188228081,4,3.10975609756098,-51,-0.24390243902439,-8,0.487804878048781,-74,0.321739130434783,43,0.18695652173913,124,-0.604878048780488,
7739894,2656.25,5152,-3.1587982832618,-15296,-9.37829552421827,-1600,0.980993255671367,12,2.25609756097561,-37,-0.731707317073171,-1,0.0609756097560976,-73,0.317391304347826,41,0.178260869565217,125,-0.609756097560976,
7740534,2675.78125,5088,-3.11955855303495,-15296,-9.37829552421827,-1600,0.980993255671367,-3,2.80487804878049,-46,0.182926829268293,-2,0.121951219512195,-73,0.317391304347826,47,0.204347826086957,124,-0.604878048780488,
7741174,2695.3125,5072,-3.10974862047823,-15312,-9.38810545677498,-1664,1.02023298589822,-33,2.5,-41,2.01219512195122,-3,0.182926829268293,-72,0.31304347826087,45,0.195652173913043,124,-0.604878048780488,
7741814,2714.84375,5104,-3.12936848559166,-15312,-9.38810545677498,-1744,1.06928264868179,-49,3.47560975609756,-57,2.98780487804878,-3,0.182926829268293,-73,0.317391304347826,43,0.18695652173913,123,-0.6,
7742454,2734.375,5152,-3.1587982832618,-15248,-9.34886572654813,-1712,1.04966278356836,-67,3.41463414634146,-56,4.08536585365854,-10,0.609756097560976,-75,0.326086956521739,41,0.178260869565217,126,-0.614634146341463,
7743094,2753.90625,5328,-3.26670754138565,-15248,-9.34886572654813,-1600,0.980993255671367,-65,3.96341463414634,-65,3.96341463414634,-10,0.609756097560976,-74,0.321739130434783,41,0.178260869565217,124,-0.604878048780488,
7743734,2773.4375,5328,-3.26670754138565,-15360,-9.41753525444513,-1568,0.96137339055794,-45,3.65853658536585,-60,2.74390243902439,4,-0.24390243902439,-73,0.317391304347826,42,0.182608695652174,124,-0.604878048780488,
7744374,2792.96875,5424,-3.32556713672594,-15360,-9.41753525444513,-1664,1.02023298589822,-42,3.84146341463415,-63,2.5609756097561,1,-0.0609756097560976,-74,0.321739130434783,45,0.195652173913043,124,-0.604878048780488,
7745014,2812.5,5392,-3.30594727161251,-15248,-9.34886572654813,-1648,1.01042305334151,-34,3.65853658536585,-60,2.07317073170732,-3,0.182926829268293,-75,0.326086956521739,44,0.191304347826087,125,-0.609756097560976,
7745654,2832.03125,5360,-3.28632740649908,-15200,-9.31943592887799,-1600,0.980993255671367,-3,3.41463414634146,-56,0.182926829268293,-8,0.487804878048781,-75,0.326086956521739,46,0.2,125,-0.609756097560976,
7746294,2851.5625,5328,-3.26670754138565,-15216,-9.3292458614347,-1568,0.96137339055794,23,2.98780487804878,-49,-1.40243902439024,-12,0.731707317073171,-73,0.317391304347826,41,0.178260869565217,125,-0.609756097560976,
7746934,2871.09375,5216,-3.19803801348866,-15264,-9.35867565910484,-1504,0.922133660331085,27,2.74390243902439,-45,-1.64634146341463,-15,0.914634146341463,-73,0.317391304347826,42,0.182608695652174,124,-0.604878048780488,
7747574,2890.625,5168,-3.16860821581852,-15264,-9.35867565910484,-1472,0.902513795217658,23,2.80487804878049,-46,-1.40243902439024,-14,0.853658536585366,-74,0.321739130434783,43,0.18695652173913,126,-0.614634146341463,
7748214,2910.15625,5104,-3.12936848559166,-15312,-9.38810545677498,-1568,0.96137339055794,10,2.74390243902439,-45,-0.609756097560976,-14,0.853658536585366,-74,0.321739130434783,45,0.195652173913043,124,-0.604878048780488,
7748854,2929.6875,5120,-3.13917841814837,-15328,-9.3979153893317,-1536,0.941753525444513,4,2.92682926829268,-48,-0.24390243902439,-11,0.670731707317073,-73,0.317391304347826,43,0.18695652173913,124,-0.604878048780488,
7749494,2949.21875,5168,-3.16860821581852,-15280,-9.36848559166156,-1520,0.931943592887799,-6,3.23170731707317,-53,0.365853658536585,-10,0.609756097560976,-73,0.317391304347826,41,0.178260869565217,125,-0.609756097560976,
7750134,2968.75,5248,-3.21765787860208,-15280,-9.36848559166156,-1472,0.902513795217658,-5,3.23170731707317,-53,0.304878048780488,-9,0.548780487804878,-74,0.321739130434783,44,0.191304347826087,124,-0.604878048780488,
7750774,2988.28125,5216,-3.19803801348866,-15264,-9.35867565910484,-1440,0.88289393010423,0,2.86585365853659,-47,0,-10,0.609756097560976,-73,0.317391304347826,43,0.18695652173913,124,-0.604878048780488,
7751414,3007.8125,5296,-3.24708767627223,-15248,-9.34886572654813,-1504,0.922133660331085,2,2.74390243902439,-45,-0.121951219512195,-5,0.304878048780488,-75,0.326086956521739,44,0.191304347826087,126,-0.614634146341463,
7752054,3027.34375,5264,-3.2274678111588,-15216,-9.3292458614347,-1616,0.990803188228081,15,2.68292682926829,-44,-0.914634146341463,-6,0.365853658536585,-74,0.321739130434783,42,0.182608695652174,125,-0.609756097560976,
7752694,3046.875,5312,-3.25689760882894,-15312,-9.38810545677498,-1552,0.951563458001226,30,2.5,-41,-1.82926829268293,-5,0.304878048780488,-75,0.326086956521739,47,0.204347826086957,123,-0.6,
7753334,3066.40625,5248,-3.21765787860208,-15280,-9.36848559166156,-1552,0.951563458001226,38,2.4390243902439,-40,-2.31707317073171,-7,0.426829268292683,-72,0.31304347826087,41,0.178260869565217,125,-0.609756097560976,
7753974,3085.9375,5264,-3.2274678111588,-15328,-9.3979153893317,-1536,0.941753525444513,43,2.31707317073171,-38,-2.6219512195122,-7,0.426829268292683,-74,0.321739130434783,42,0.182608695652174,126,-0.614634146341463,
7754614,3105.46875,5168,-3.16860821581852,-15296,-9.37829552421827,-1520,0.931943592887799,42,2.5609756097561,-42,-2.5609756097561,-11,0.670731707317073,-74,0.321739130434783,45,0.195652173913043,124,-0.604878048780488,
7755254,3125,5136,-3.14898835070509,-15248,-9.34886572654813,-1536,0.941753525444513,32,2.68292682926829,-44,-1.95121951219512,-6,0.365853658536585,-73,0.317391304347826,41,0.178260869565217,124,-0.604878048780488,
7755894,3144.53125,5072,-3.10974862047823,-15312,-9.38810545677498,-1456,0.892703862660944,23,2.5609756097561,-42,-1.40243902439024,-3,0.182926829268293,-73,0.317391304347826,41,0.178260869565217,124,-0.604878048780488,
7756534,3164.0625,5056,-3.09993868792152,-15248,-9.34886572654813,-1504,0.922133660331085,7,2.5,-41,-0.426829268292683,-5,0.304878048780488,-75,0.326086956521739,44,0.191304347826087,125,-0.609756097560976,
7757174,3183.59375,5152,-3.1587982832618,-15344,-9.40772532188841,-1600,0.980993255671367,-9,2.68292682926829,-44,0.548780487804878,-5,0.304878048780488,-74,0.321739130434783,44,0.191304347826087,125,-0.609756097560976,
7757814,3203.125,5120,-3.13917841814837,-15296,-9.37829552421827,-1664,1.02023298589822,-9,2.68292682926829,-44,0.548780487804878,-2,0.121951219512195,-73,0.317391304347826,44,0.191304347826087,124,-0.604878048780488,
7758454,3222.65625,5152,-3.1587982832618,-15232,-9.33905579399141,-1648,1.01042305334151,-14,2.6219512195122,-43,0.853658536585366,-2,0.121951219512195,-74,0.321739130434783,41,0.178260869565217,126,-0.614634146341463,
7759094,3242.1875,5200,-3.18822808093194,-15216,-9.3292458614347,-1536,0.941753525444513,-15,2.31707317073171,-38,0.914634146341463,0,0,-74,0.321739130434783,44,0.191304347826087,124,-0.604878048780488,
7759734,3261.71875,5232,-3.20784794604537,-15200,-9.31943592887799,-1600,0.980993255671367,-15,2.4390243902439,-40,0.914634146341463,0,0,-73,0.317391304347826,44,0.191304347826087,123,-0.6,
7760374,3281.25,5216,-3.19803801348866,-15168,-9.29981606376456,-1584,0.971183323114654,-15,2.5609756097561,-42,0.914634146341463,-3,0.182926829268293,-76,0.330434782608696,43,0.18695652173913,124,-0.604878048780488,
7761014,3300.78125,5328,-3.26670754138565,-15248,-9.34886572654813,-1536,0.941753525444513,-12,2.31707317073171,-38,0.731707317073171,-7,0.426829268292683,-75,0.326086956521739,42,0.182608695652174,125,-0.609756097560976,
7761654,3320.3125,5264,-3.2274678111588,-15280,-9.36848559166156,-1536,0.941753525444513,-9,2.5609756097561,-42,0.548780487804878,-6,0.365853658536585,-72,0.31304347826087,43,0.18695652173913,124,-0.604878048780488,
7762294,3339.84375,5264,-3.2274678111588,-15264,-9.35867565910484,-1536,0.941753525444513,-3,2.5,-41,0.182926829268293,-3,0.182926829268293,-75,0.326086956521739,43,0.18695652173913,124,-0.604878048780488,
7762934,3359.375,5216,-3.19803801348866,-15264,-9.35867565910484,-1568,0.96137339055794,-3,2.5609756097561,-42,0.182926829268293,-5,0.304878048780488,-73,0.317391304347826,41,0.178260869565217,125,-0.609756097560976,
7763574,3378.90625,5088,-3.11955855303495,-15312,-9.38810545677498,-1568,0.96137339055794,-2,2.31707317073171,-38,0.121951219512195,-5,0.304878048780488,-74,0.321739130434783,42,0.182608695652174,125,-0.609756097560976,
7764214,3398.4375,5216,-3.19803801348866,-15232,-9.33905579399141,-1664,1.02023298589822,6,2.19512195121951,-36,-0.365853658536585,-6,0.365853658536585,-73,0.317391304347826,42,0.182608695652174,124,-0.604878048780488,
7764854,3417.96875,5152,-3.1587982832618,-15264,-9.35867565910484,-1664,1.02023298589822,14,2.19512195121951,-36,-0.853658536585366,-2,0.121951219512195,-73,0.317391304347826,41,0.178260869565217,125,-0.609756097560976,
7765494,3437.5,5280,-3.23727774371551,-15072,-9.24095646842428,-1584,0.971183323114654,16,2.13414634146341,-35,-0.975609756097561,-12,0.731707317073171,-74,0.321739130434783,46,0.2,126,-0.614634146341463,
7766134,3457.03125,5200,-3.18822808093194,-15408,-9.44696505211527,-1552,0.951563458001226,39,1.58536585365854,-26,-2.37804878048781,1,-0.0609756097560976,-74,0.321739130434783,46,0.2,126,-0.614634146341463,
7766774,3476.5625,5232,-3.20784794604537,-15424,-9.45677498467198,-1488,0.912323727774372,30,2.92682926829268,-48,-1.82926829268293,-2,0.121951219512195,-74,0.321739130434783,40,0.173913043478261,125,-0.609756097560976,
7767414,3496.09375,5264,-3.2274678111588,-15376,-9.42734518700184,-1472,0.902513795217658,24,2.19512195121951,-36,-1.46341463414634,1,-0.0609756097560976,-74,0.321739130434783,41,0.178260869565217,125,-0.609756097560976,
7768054,3515.625,5120,-3.13917841814837,-15328,-9.3979153893317,-1616,0.990803188228081,24,2.5609756097561,-42,-1.46341463414634,2,-0.121951219512195,-73,0.317391304347826,46,0.2,124,-0.604878048780488,
7768694,3535.15625,5104,-3.12936848559166,-15248,-9.34886572654813,-1568,0.96137339055794,15,3.17073170731707,-52,-0.914634146341463,-7,0.426829268292683,-72,0.31304347826087,41,0.178260869565217,124,-0.604878048780488,
7769334,3554.6875,5056,-3.09993868792152,-15232,-9.33905579399141,-1616,0.990803188228081,-1,3.59756097560976,-59,0.0609756097560976,-17,1.03658536585366,-74,0.321739130434783,40,0.173913043478261,125,-0.609756097560976,
7769974,3574.21875,5056,-3.09993868792152,-15360,-9.41753525444513,-1632,1.00061312078479,-17,4.08536585365854,-67,1.03658536585366,-15,0.914634146341463,-72,0.31304347826087,44,0.191304347826087,125,-0.609756097560976,
7770614,3593.75,5200,-3.18822808093194,-15328,-9.3979153893317,-1552,0.951563458001226,-37,4.08536585365854,-67,2.25609756097561,-15,0.914634146341463,-74,0.321739130434783,49,0.21304347826087,125,-0.609756097560976,
7771254,3613.28125,5328,-3.26670754138565,-15264,-9.35867565910484,-1568,0.96137339055794,-43,4.14634146341463,-68,2.6219512195122,-14,0.853658536585366,-75,0.326086956521739,40,0.173913043478261,125,-0.609756097560976,
7771894,3632.8125,5344,-3.27651747394237,-15216,-9.3292458614347,-1584,0.971183323114654,-35,4.32926829268293,-71,2.13414634146341,-14,0.853658536585366,-74,0.321739130434783,40,0.173913043478261,125,-0.609756097560976,
7772534,3652.34375,5296,-3.24708767627223,-15216,-9.3292458614347,-1648,1.01042305334151,-23,4.20731707317073,-69,1.40243902439024,-23,1.40243902439024,-73,0.317391304347826,42,0.182608695652174,124,-0.604878048780488,
7773174,3671.875,5344,-3.27651747394237,-15232,-9.33905579399141,-1584,0.971183323114654,-1,3.96341463414634,-65,0.0609756097560976,-20,1.21951219512195,-73,0.317391304347826,41,0.178260869565217,125,-0.609756097560976,
7773814,3691.40625,5280,-3.23727774371551,-15232,-9.33905579399141,-1600,0.980993255671367,17,3.53658536585366,-58,-1.03658536585366,-20,1.21951219512195,-73,0.317391304347826,44,0.191304347826087,125,-0.609756097560976,
7774454,3710.9375,5296,-3.24708767627223,-15296,-9.37829552421827,-1552,0.951563458001226,32,3.35365853658537,-55,-1.95121951219512,-16,0.975609756097561,-74,0.321739130434783,44,0.191304347826087,125,-0.609756097560976,
7775094,3730.46875,5264,-3.2274678111588,-15360,-9.41753525444513,-1568,0.96137339055794,43,2.98780487804878,-49,-2.6219512195122,-10,0.609756097560976,-73,0.317391304347826,40,0.173913043478261,125,-0.609756097560976,
7775734,3750,5184,-3.17841814837523,-15376,-9.42734518700184,-1568,0.96137339055794,48,3.04878048780488,-50,-2.92682926829268,-8,0.487804878048781,-76,0.330434782608696,45,0.195652173913043,125,-0.609756097560976,
7776374,3769.53125,5168,-3.16860821581852,-15328,-9.3979153893317,-1520,0.931943592887799,48,3.10975609756098,-51,-2.92682926829268,-11,0.670731707317073,-73,0.317391304347826,43,0.18695652173913,125,-0.609756097560976,
7777014,3789.0625,5104,-3.12936848559166,-15296,-9.37829552421827,-1552,0.951563458001226,36,3.23170731707317,-53,-2.19512195121951,-11,0.670731707317073,-75,0.326086956521739,45,0.195652173913043,123,-0.6,
7777654,3808.59375,5120,-3.13917841814837,-15280,-9.36848559166156,-1568,0.96137339055794,19,3.04878048780488,-50,-1.15853658536585,-9,0.548780487804878,-72,0.31304347826087,40,0.173913043478261,125,-0.609756097560976,
7778294,3828.125,5072,-3.10974862047823,-15392,-9.43715511955855,-1552,0.951563458001226,0,3.47560975609756,-57,0,-9,0.548780487804878,-73,0.317391304347826,45,0.195652173913043,123,-0.6,
7778934,3847.65625,5104,-3.12936848559166,-15296,-9.37829552421827,-1616,0.990803188228081,-19,3.59756097560976,-59,1.15853658536585,-5,0.304878048780488,-72,0.31304347826087,44,0.191304347826087,124,-0.604878048780488,
7779574,3867.1875,5200,-3.18822808093194,-15344,-9.40772532188841,-1632,1.00061312078479,-32,3.59756097560976,-59,1.95121951219512,-7,0.426829268292683,-74,0.321739130434783,44,0.191304347826087,124,-0.604878048780488,
7780214,3886.71875,5264,-3.2274678111588,-15312,-9.38810545677498,-1648,1.01042305334151,-28,3.65853658536585,-60,1.70731707317073,-9,0.548780487804878,-74,0.321739130434783,40,0.173913043478261,125,-0.609756097560976,
7780854,3906.25,5216,-3.19803801348866,-15280,-9.36848559166156,-1632,1.00061312078479,-20,3.47560975609756,-57,1.21951219512195,-8,0.487804878048781,-75,0.326086956521739,41,0.178260869565217,125,-0.609756097560976,
7781494,3925.78125,5248,-3.21765787860208,-15248,-9.34886572654813,-1680,1.03004291845494,-15,3.10975609756098,-51,0.914634146341463,-8,0.487804878048781,-72,0.31304347826087,41,0.178260869565217,124,-0.604878048780488,
7782134,3945.3125,5232,-3.20784794604537,-15264,-9.35867565910484,-1616,0.990803188228081,-4,2.80487804878049,-46,0.24390243902439,-5,0.304878048780488,-73,0.317391304347826,46,0.2,123,-0.6,
7782774,3964.84375,5216,-3.19803801348866,-15312,-9.38810545677498,-1568,0.96137339055794,-3,2.74390243902439,-45,0.182926829268293,-4,0.24390243902439,-73,0.317391304347826,44,0.191304347826087,125,-0.609756097560976,
7783414,3984.375,5200,-3.18822808093194,-15296,-9.37829552421827,-1600,0.980993255671367,-3,2.5,-41,0.182926829268293,-4,0.24390243902439,-74,0.321739130434783,44,0.191304347826087,124,-0.604878048780488,
7784054,4003.90625,5232,-3.20784794604537,-15296,-9.37829552421827,-1584,0.971183323114654,-7,2.86585365853659,-47,0.426829268292683,-4,0.24390243902439,-75,0.326086956521739,47,0.204347826086957,125,-0.609756097560976,
7784694,4023.4375,5216,-3.19803801348866,-15376,-9.42734518700184,-1664,1.02023298589822,-9,2.68292682926829,-44,0.548780487804878,-5,0.304878048780488,-72,0.31304347826087,41,0.178260869565217,125,-0.609756097560976,
7785334,4042.96875,5232,-3.20784794604537,-15328,-9.3979153893317,-1584,0.971183323114654,-15,2.86585365853659,-47,0.914634146341463,-6,0.365853658536585,-74,0.321739130434783,44,0.191304347826087,125,-0.609756097560976,
7785974,4062.5,5232,-3.20784794604537,-15312,-9.38810545677498,-1536,0.941753525444513,-19,2.74390243902439,-45,1.15853658536585,-1,0.0609756097560976,-74,0.321739130434783,42,0.182608695652174,124,-0.604878048780488,
7786614,4082.03125,5200,-3.18822808093194,-15328,-9.3979153893317,-1584,0.971183323114654,-21,2.80487804878049,-46,1.28048780487805,-2,0.121951219512195,-74,0.321739130434783,41,0.178260869565217,125,-0.609756097560976,
7787254,4101.5625,5216,-3.19803801348866,-15216,-9.3292458614347,-1680,1.03004291845494,-17,2.98780487804878,-49,1.03658536585366,-2,0.121951219512195,-72,0.31304347826087,40,0.173913043478261,125,-0.609756097560976,
7787894,4121.09375,5248,-3.21765787860208,-15280,-9.36848559166156,-1616,0.990803188228081,-11,2.80487804878049,-46,0.670731707317073,-4,0.24390243902439,-73,0.317391304347826,44,0.191304347826087,122,-0.595121951219512,
7788534,4140.625,5328,-3.26670754138565,-15344,-9.40772532188841,-1600,0.980993255671367,-15,2.80487804878049,-46,0.914634146341463,-3,0.182926829268293,-73,0.317391304347826,43,0.18695652173913,123,-0.6,
7789174,4160.15625,5296,-3.24708767627223,-15344,-9.40772532188841,-1584,0.971183323114654,-9,2.80487804878049,-46,0.548780487804878,3,-0.182926829268293,-76,0.330434782608696,44,0.191304347826087,125,-0.609756097560976,
7789814,4179.6875,5312,-3.25689760882894,-15312,-9.38810545677498,-1584,0.971183323114654,5,2.92682926829268,-48,-0.304878048780488,6,-0.365853658536585,-76,0.330434782608696,43,0.18695652173913,124,-0.604878048780488,
7790454,4199.21875,5344,-3.27651747394237,-15232,-9.33905579399141,-1616,0.990803188228081,8,3.10975609756098,-51,-0.487804878048781,0,0,-72,0.31304347826087,42,0.182608695652174,123,-0.6,
7791094,4218.75,5232,-3.20784794604537,-15200,-9.31943592887799,-1616,0.990803188228081,19,3.04878048780488,-50,-1.15853658536585,-1,0.0609756097560976,-76,0.330434782608696,41,0.178260869565217,124,-0.604878048780488,
7791734,4238.28125,5168,-3.16860821581852,-15200,-9.31943592887799,-1616,0.990803188228081,29,3.04878048780488,-50,-1.76829268292683,0,0,-74,0.321739130434783,41,0.178260869565217,125,-0.609756097560976,
7792374,4257.8125,5120,-3.13917841814837,-15216,-9.3292458614347,-1520,0.931943592887799,17,2.6219512195122,-43,-1.03658536585366,0,0,-75,0.326086956521739,43,0.18695652173913,125,-0.609756097560976,
7793014,4277.34375,5168,-3.16860821581852,-15232,-9.33905579399141,-1584,0.971183323114654,6,2.68292682926829,-44,-0.365853658536585,3,-0.182926829268293,-72,0.31304347826087,40,0.173913043478261,124,-0.604878048780488,
7793654,4296.875,5200,-3.18822808093194,-15296,-9.37829552421827,-1568,0.96137339055794,-12,2.6219512195122,-43,0.731707317073171,3,-0.182926829268293,-72,0.31304347826087,40,0.173913043478261,124,-0.604878048780488,
7794294,4316.40625,5232,-3.20784794604537,-15232,-9.33905579399141,-1632,1.00061312078479,-18,3.23170731707317,-53,1.09756097560976,-2,0.121951219512195,-75,0.326086956521739,46,0.2,124,-0.604878048780488,
7794934,4335.9375,5296,-3.24708767627223,-15280,-9.36848559166156,-1600,0.980993255671367,-18,3.90243902439024,-64,1.09756097560976,-11,0.670731707317073,-73,0.317391304347826,44,0.191304347826087,125,-0.609756097560976,
7795574,4355.46875,5216,-3.19803801348866,-15248,-9.34886572654813,-1584,0.971183323114654,-15,3.71951219512195,-61,0.914634146341463,-11,0.670731707317073,-73,0.317391304347826,43,0.18695652173913,124,-0.604878048780488,
7796214,4375,5184,-3.17841814837523,-15280,-9.36848559166156,-1632,1.00061312078479,-15,3.53658536585366,-58,0.914634146341463,-8,0.487804878048781,-72,0.31304347826087,41,0.178260869565217,125,-0.609756097560976,
7796854,4394.53125,5296,-3.24708767627223,-15280,-9.36848559166156,-1648,1.01042305334151,-1,3.53658536585366,-58,0.0609756097560976,-8,0.487804878048781,-73,0.317391304347826,44,0.191304347826087,124,-0.604878048780488,
7797494,4414.0625,5264,-3.2274678111588,-15296,-9.37829552421827,-1680,1.03004291845494,14,3.29268292682927,-54,-0.853658536585366,-10,0.609756097560976,-73,0.317391304347826,44,0.191304347826087,124,-0.604878048780488,
7798134,4433.59375,5296,-3.24708767627223,-15264,-9.35867565910484,-1648,1.01042305334151,25,3.10975609756098,-51,-1.52439024390244,-9,0.548780487804878,-73,0.317391304347826,43,0.18695652173913,125,-0.609756097560976,
7798774,4453.125,5264,-3.2274678111588,-15248,-9.34886572654813,-1600,0.980993255671367,30,3.04878048780488,-50,-1.82926829268293,-14,0.853658536585366,-75,0.326086956521739,42,0.182608695652174,124,-0.604878048780488,
7799414,4472.65625,5200,-3.18822808093194,-15312,-9.38810545677498,-1568,0.96137339055794,25,3.29268292682927,-54,-1.52439024390244,-17,1.03658536585366,-74,0.321739130434783,43,0.18695652173913,125,-0.609756097560976,
7800054,4492.1875,5136,-3.14898835070509,-15312,-9.38810545677498,-1568,0.96137339055794,17,3.41463414634146,-56,-1.03658536585366,-13,0.792682926829268,-72,0.31304347826087,42,0.182608695652174,125,-0.609756097560976,
7800694,4511.71875,5216,-3.19803801348866,-15328,-9.3979153893317,-1584,0.971183323114654,11,3.65853658536585,-60,-0.670731707317073,-14,0.853658536585366,-75,0.326086956521739,41,0.178260869565217,125,-0.609756097560976,
7801334,4531.25,5200,-3.18822808093194,-15328,-9.3979153893317,-1552,0.951563458001226,-6,4.08536585365854,-67,0.365853658536585,-16,0.975609756097561,-73,0.317391304347826,44,0.191304347826087,124,-0.604878048780488,
7801974,4550.78125,5184,-3.17841814837523,-15312,-9.38810545677498,-1584,0.971183323114654,-13,3.90243902439024,-64,0.792682926829268,-15,0.914634146341463,-73,0.317391304347826,39,0.169565217391304,125,-0.609756097560976,
7802614,4570.3125,5168,-3.16860821581852,-15312,-9.38810545677498,-1632,1.00061312078479,-7,3.78048780487805,-62,0.426829268292683,-14,0.853658536585366,-72,0.31304347826087,40,0.173913043478261,125,-0.609756097560976,
7803254,4589.84375,5216,-3.19803801348866,-15264,-9.35867565910484,-1632,1.00061312078479,-9,3.84146341463415,-63,0.548780487804878,-12,0.731707317073171,-74,0.321739130434783,45,0.195652173913043,126,-0.614634146341463,
7803894,4609.375,5232,-3.20784794604537,-15264,-9.35867565910484,-1536,0.941753525444513,-4,3.65853658536585,-60,0.24390243902439,-13,0.792682926829268,-74,0.321739130434783,45,0.195652173913043,124,-0.604878048780488,
7804534,4628.90625,5216,-3.19803801348866,-15232,-9.33905579399141,-1584,0.971183323114654,4,3.41463414634146,-56,-0.24390243902439,-10,0.609756097560976,-74,0.321739130434783,44,0.191304347826087,125,-0.609756097560976,
7805174,4648.4375,5232,-3.20784794604537,-15296,-9.37829552421827,-1632,1.00061312078479,12,3.10975609756098,-51,-0.731707317073171,-10,0.609756097560976,-74,0.321739130434783,42,0.182608695652174,124,-0.604878048780488,
7805814,4667.96875,5248,-3.21765787860208,-15248,-9.34886572654813,-1664,1.02023298589822,26,2.92682926829268,-48,-1.58536585365854,-8,0.487804878048781,-74,0.321739130434783,44,0.191304347826087,124,-0.604878048780488,
7806454,4687.5,5344,-3.27651747394237,-15152,-9.29000613120785,-1632,1.00061312078479,43,1.95121951219512,-32,-2.6219512195122,-10,0.609756097560976,-75,0.326086956521739,45,0.195652173913043,124,-0.604878048780488,
7807094,4707.03125,5376,-3.29613733905579,-15200,-9.31943592887799,-1744,1.06928264868179,89,1.46341463414634,-24,-5.42682926829268,1,-0.0609756097560976,-73,0.317391304347826,41,0.178260869565217,126,-0.614634146341463,
7807734,4726.5625,5424,-3.32556713672594,-15328,-9.3979153893317,-1744,1.06928264868179,129,0.914634146341463,-15,-7.86585365853659,6,-0.365853658536585,-72,0.31304347826087,44,0.191304347826087,124,-0.604878048780488,
7808374,4746.09375,5280,-3.23727774371551,-15312,-9.38810545677498,-1680,1.03004291845494,136,1.34146341463415,-22,-8.29268292682927,7,-0.426829268292683,-74,0.321739130434783,48,0.208695652173913,124,-0.604878048780488,
7809014,4765.625,5072,-3.10974862047823,-15232,-9.33905579399141,-1712,1.04966278356836,113,1.76829268292683,-29,-6.89024390243902,-1,0.0609756097560976,-73,0.317391304347826,41,0.178260869565217,126,-0.614634146341463,
7809654,4785.15625,5008,-3.07050889025138,-15168,-9.29981606376456,-1760,1.0790925812385,62,2.5,-41,-3.78048780487805,-1,0.0609756097560976,-73,0.317391304347826,41,0.178260869565217,125,-0.609756097560976,
7810294,4804.6875,5280,-3.23727774371551,-15216,-9.3292458614347,-1664,1.02023298589822,57,2.37804878048781,-39,-3.47560975609756,2,-0.121951219512195,-72,0.31304347826087,42,0.182608695652174,124,-0.604878048780488,
7810934,4824.21875,5456,-3.34518700183936,-15248,-9.34886572654813,-1616,0.990803188228081,116,0.975609756097561,-16,-7.07317073170732,21,-1.28048780487805,-71,0.308695652173913,40,0.173913043478261,125,-0.609756097560976,
7811574,4843.75,5648,-3.46290619251993,-15168,-9.29981606376456,-1744,1.06928264868179,178,-0.792682926829268,13,-10.8536585365854,51,-3.10975609756098,-72,0.31304347826087,45,0.195652173913043,124,-0.604878048780488,
7812214,4863.28125,6352,-3.89454322501533,-15328,-9.3979153893317,-2080,1.27529123237278,295,-5,82,-17.9878048780488,139,-8.47560975609756,-73,0.317391304347826,47,0.204347826086957,124,-0.604878048780488,
7812854,4882.8125,6848,-4.19865113427345,-15264,-9.35867565910484,-2752,1.68730839975475,545,-7.5,123,-33.2317073170732,240,-14.6341463414634,-72,0.31304347826087,42,0.182608695652174,124,-0.604878048780488,
7813494,4902.34375,6416,-3.93378295524218,-14336,-8.78969957081545,-3824,2.34457388105457,671,-10.5487804878049,173,-40.9146341463415,303,-18.4756097560976,-70,0.304347826086957,41,0.178260869565217,124,-0.604878048780488,
7814134,4921.875,6320,-3.8749233599019,-14672,-8.99570815450644,-5520,3.38442673206622,707,-1.46341463414634,24,-43.109756097561,358,-21.8292682926829,-70,0.304347826086957,44,0.191304347826087,123,-0.6,
7814774,4941.40625,5424,-3.32556713672594,-14336,-8.78969957081545,-6368,3.90435315757204,478,6.64634146341464,-109,-29.1463414634146,392,-23.9024390243902,-68,0.295652173913043,43,0.18695652173913,121,-0.590243902439024,
7815414,4960.9375,6384,-3.91416309012876,-15024,-9.21152667075414,-6672,4.0907418761496,158,11.9512195121951,-196,-9.63414634146342,421,-25.6707317073171,-66,0.28695652173913,40,0.173913043478261,124,-0.604878048780488,
7816054,4980.46875,9136,-5.60147148988351,-16512,-10.1238503985285,-7824,4.79705702023299,267,24.2073170731707,-397,-16.280487804878,466,-28.4146341463415,-65,0.282608695652174,47,0.204347826086957,121,-0.590243902439024,
7816694,5000,10176,-6.2391171060699,-17104,-10.4868179031269,-8816,5.40527283874923,581,34.9390243902439,-573,-35.4268292682927,393,-23.9634146341463,-63,0.273913043478261,44,0.191304347826087,123,-0.6,
7817334,5019.53125,10576,-6.48436541998774,-17584,-10.7811158798283,-10304,6.3175965665236,740,47.7439024390244,-783,-45.1219512195122,135,-8.23170731707317,-62,0.269565217391304,43,0.18695652173913,124,-0.604878048780488,
7817974,5039.0625,10976,-6.72961373390558,-17936,-10.996934396076,-11536,7.07296137339056,872,58.2317073170732,-955,-53.1707317073171,-83,5.0609756097561,-64,0.278260869565217,39,0.169565217391304,126,-0.614634146341463,
7818614,5058.59375,11696,-7.17106069895769,-18656,-11.4383813611281,-11904,7.29858982219497,1064,71.4634146341463,-1172,-64.8780487804878,-359,21.890243902439,-62,0.269565217391304,38,0.165217391304348,126,-0.614634146341463,
7819254,5078.125,12304,-7.54383813611281,-19360,-11.8700183936235,-11792,7.22992029429798,1406,89.2073170731707,-1463,-85.7317073170732,-627,38.2317073170732,-60,0.260869565217391,38,0.165217391304348,127,-0.619512195121951,
7819894,5097.65625,12464,-7.64193746167995,-20064,-12.3016554261189,-11696,7.17106069895769,1791,105.182926829268,-1725,-109.207317073171,-868,52.9268292682927,-59,0.256521739130435,35,0.152173913043478,130,-0.634146341463415,
7820534,5117.1875,11520,-7.06315144083384,-20912,-12.8215818516248,-11744,7.20049049662784,2126,117.256097560976,-1923,-129.634146341463,-979,59.6951219512195,-60,0.260869565217391,39,0.169565217391304,131,-0.639024390243902,
7821174,5136.71875,10144,-6.21949724095647,-21792,-13.361128142244,-12528,7.68117719190681,2219,132.012195121951,-2165,-135.30487804878,-961,58.5975609756098,-58,0.252173913043478,36,0.156521739130435,135,-0.658536585365854,
7821814,5156.25,8736,-5.35622317596567,-22400,-13.7339055793991,-12976,7.95585530349479,2067,146.341463414634,-2400,-126.036585365854,-947,57.7439024390244,-57,0.247826086956522,30,0.130434782608696,135,-0.658536585365854,
7822454,5175.78125,7680,-4.70876762722256,-22256,-13.6456161863887,-12848,7.87737584304108,1725,159.024390243902,-2608,-105.182926829268,-990,60.3658536585366,-54,0.234782608695652,28,0.121739130434783,140,-0.682926829268293,
7823094,5195.3125,7440,-4.56161863887186,-21984,-13.4788473329246,-12400,7.6026977314531,1418,168.231707317073,-2759,-86.4634146341463,-1050,64.0243902439024,-57,0.247826086956522,28,0.121739130434783,141,-0.68780487804878,
7823734,5214.84375,7472,-4.58123850398528,-21744,-13.3316983445739,-11504,7.05334150827713,1292,174.207317073171,-2857,-78.780487804878,-1061,64.6951219512195,-53,0.230434782608696,22,0.0956521739130435,145,-0.707317073170732,
7824374,5234.375,6976,-4.27713059472716,-20896,-12.8117719190681,-10496,6.43531575720417,1258,178.59756097561,-2929,-76.7073170731707,-1062,64.7560975609756,-52,0.226086956521739,19,0.0826086956521739,147,-0.717073170731707,
7825014,5253.90625,5904,-3.61986511342735,-19808,-12.1446965052115,-9584,5.87614960147149,1105,179.756097560976,-2948,-67.3780487804878,-1063,64.8170731707317,-50,0.217391304347826,13,0.0565217391304348,151,-0.736585365853659,
7825654,5273.4375,5152,-3.1587982832618,-18432,-11.3010423053341,-8912,5.46413243408952,843,179.085365853659,-2937,-51.4024390243902,-1107,67.5,-51,0.221739130434783,15,0.0652173913043478,152,-0.741463414634146,
7826294,5292.96875,5056,-3.09993868792152,-16800,-10.3004291845494,-8480,5.19926425505825,717,175.609756097561,-2880,-43.719512195122,-1146,69.8780487804878,-47,0.204347826086957,6,0.0260869565217391,156,-0.760975609756098,
7826934,5312.5,5200,-3.18822808093194,-15408,-9.44696505211527,-8048,4.93439607602698,806,168.59756097561,-2765,-49.1463414634146,-1104,67.3170731707317,-49,0.21304347826087,2,0.00869565217391304,160,-0.780487804878049,
7827574,5332.03125,4960,-3.04107909258124,-14112,-8.65236051502146,-7856,4.81667688534641,1007,160.731707317073,-2636,-61.4024390243902,-1006,61.3414634146341,-46,0.2,-1,-0.00434782608695652,160,-0.780487804878049,
7828214,5351.5625,4240,-2.59963212752912,-12656,-7.75965665236051,-7648,4.68914776210914,1173,151.280487804878,-2481,-71.5243902439024,-858,52.3170731707317,-45,0.195652173913043,-1,-0.00434782608695652,161,-0.785365853658537,
7828854,5371.09375,3424,-2.09932556713673,-11200,-6.86695278969957,-7712,4.72838749233599,1266,142.256097560976,-2333,-77.1951219512195,-699,42.6219512195122,-45,0.195652173913043,-7,-0.0304347826086957,161,-0.785365853658537,
7829494,5390.625,2864,-1.75597792765175,-9648,-5.91538933169834,-8000,4.90496627835684,1321,132.865853658537,-2179,-80.5487804878049,-570,34.7560975609756,-40,0.173913043478261,-16,-0.0695652173913043,164,-0.8,
7830134,5410.15625,2608,-1.59901900674433,-8656,-5.3071735131821,-8048,4.93439607602698,1327,123.414634146341,-2024,-80.9146341463415,-457,27.8658536585366,-36,0.156521739130435,-16,-0.0695652173913043,164,-0.8,
7830774,5429.6875,2048,-1.25567136725935,-7968,-4.88534641324341,-7888,4.83629675045984,1300,115.670731707317,-1897,-79.2682926829268,-378,23.0487804878049,-36,0.156521739130435,-14,-0.0608695652173913,161,-0.785365853658537,
7831414,5449.21875,1568,-0.96137339055794,-6832,-4.18884120171674,-7984,4.89515634580012,1187,105.792682926829,-1735,-72.3780487804878,-323,19.6951219512195,-32,0.139130434782609,-18,-0.0782608695652174,160,-0.780487804878049,
7832054,5468.75,1456,-0.892703862660944,-5808,-3.56100551808706,-8432,5.16983445738811,1147,96.9512195121951,-1590,-69.9390243902439,-236,14.390243902439,-30,0.130434782608696,-25,-0.108695652173913,162,-0.790243902439024,
7832694,5488.28125,1280,-0.784794604537094,-4976,-3.05088902513795,-8640,5.29736358062538,1207,87.8048780487805,-1440,-73.5975609756098,-147,8.96341463414634,-26,0.11304347826087,-28,-0.121739130434783,160,-0.780487804878049,
7833334,5507.8125,880,-0.539546290619252,-4192,-2.57020232985898,-8992,5.51318209687308,1298,79.7560975609756,-1308,-79.1463414634146,-52,3.17073170731707,-22,0.0956521739130435,-32,-0.139130434782609,158,-0.770731707317073,
7833974,5527.34375,544,-0.333537706928265,-3584,-2.19742489270386,-9440,5.78786020846107,1325,72.3170731707317,-1186,-80.7926829268293,-6,0.365853658536585,-18,0.0782608695652174,-38,-0.165217391304348,159,-0.775609756097561,
7834614,5546.875,320,-0.196198651134273,-3184,-1.95217657878602,-9872,6.05272838749234,1397,65.8536585365854,-1080,-85.1829268292683,14,-0.853658536585366,-17,0.0739130434782609,-37,-0.160869565217391,156,-0.760975609756098,
7835254,5566.40625,288,-0.176578786020846,-2544,-1.55977927651747,-10240,6.27835683629675,1514,61.2804878048781,-1005,-92.3170731707317,-12,0.731707317073171,-15,0.0652173913043478,-37,-0.160869565217391,153,-0.746341463414634,
7835894,5585.9375,-240,0.147148988350705,-1856,-1.13795217657879,-10512,6.44512568976088,1572,56.2804878048781,-923,-95.8536585365854,-52,3.17073170731707,-12,0.0521739130434783,-38,-0.165217391304348,151,-0.736585365853659,
7836534,5605.46875,-1520,0.931943592887799,-1312,-0.804414469650521,-10720,6.57265481299816,1517,51.219512195122,-840,-92.5,-59,3.59756097560976,-8,0.0347826086956522,-44,-0.191304347826087,149,-0.726829268292683,
7837174,5625,-2816,1.72654812998161,-1024,-0.627835683629675,-11344,6.95524218270999,1260,46.5853658536585,-764,-76.8292682926829,-31,1.89024390243902,-9,0.0391304347826087,-39,-0.169565217391304,147,-0.717073170731707,
7837814,5644.53125,-3648,2.23666462293072,-624,-0.382587369711833,-11600,7.11220110361741,870,43.2926829268293,-710,-53.0487804878049,-18,1.09756097560976,-6,0.0260869565217391,-40,-0.173913043478261,144,-0.702439024390244,
7838454,5664.0625,-3840,2.35438381361128,-240,-0.147148988350705,-12176,7.4653586756591,489,39.3292682926829,-645,-29.8170731707317,-32,1.95121951219512,-2,0.00869565217391304,-48,-0.208695652173913,145,-0.707317073170732,
7839094,5683.59375,-3312,2.03065603923973,112,0.0686695278969957,-12464,7.64193746167995,237,35.0609756097561,-575,-14.4512195121951,-56,3.41463414634146,-1,0.00434782608695652,-49,-0.21304347826087,143,-0.697560975609756,
7839734,5703.125,-2800,1.71673819742489,240,0.147148988350705,-12704,7.78908645003066,151,30.2439024390244,-496,-9.20731707317073,-68,4.14634146341463,1,-0.00434782608695652,-50,-0.217391304347826,143,-0.697560975609756,
7840374,5722.65625,-2704,1.65787860208461,400,0.245248313917842,-12816,7.85775597792765,212,27.2560975609756,-447,-12.9268292682927,-56,3.41463414634146,-256,1.11304347826087,-46,-0.2,140,-0.682926829268293,
7841014,5742.1875,-2944,1.80502759043532,608,0.37277743715512,-12912,7.91661557326793,226,21.890243902439,-359,-13.780487804878,-46,2.80487804878049,1,-0.00434782608695652,-46,-0.2,143,-0.697560975609756,
7841654,5761.71875,-2992,1.83445738810546,656,0.402207234825261,-13376,8.20110361741263,218,19.390243902439,-318,-13.2926829268293,-53,3.23170731707317,2,-0.00869565217391304,-51,-0.221739130434783,142,-0.692682926829268,
7842294,5781.25,-3024,1.85407725321888,832,0.510116492949111,-13776,8.44635193133047,226,16.5853658536585,-272,-13.780487804878,-47,2.86585365853659,2,-0.00869565217391304,-52,-0.226086956521739,143,-0.697560975609756,
7842934,5800.78125,-3296,2.02084610668302,960,0.58859595340282,-14064,8.62293071735132,225,14.2682926829268,-234,-13.719512195122,-37,2.25609756097561,2,-0.00869565217391304,-49,-0.21304347826087,141,-0.68780487804878,
7843574,5820.3125,-3440,2.10913549969344,976,0.598405885959534,-14192,8.70141017780503,144,11.6463414634146,-191,-8.78048780487805,-23,1.40243902439024,3,-0.0130434782608696,-49,-0.21304347826087,139,-0.678048780487805,
7844214,5839.84375,-3488,2.13856529736358,1072,0.657265481299816,-14208,8.71122011036174,55,9.87804878048781,-162,-3.35365853658537,-27,1.64634146341463,3,-0.0130434782608696,-51,-0.221739130434783,139,-0.678048780487805,
7844854,5859.375,-3200,1.96198651134273,1264,0.77498467198038,-14432,8.84855916615573,68,7.5,-123,-4.14634146341463,-31,1.89024390243902,2,-0.00869565217391304,-48,-0.208695652173913,138,-0.673170731707317,
7845494,5878.90625,-2944,1.80502759043532,1328,0.814224402207235,-14640,8.97608828939301,149,5.91463414634146,-97,-9.08536585365854,-35,2.13414634146341,4,-0.0173913043478261,-49,-0.21304347826087,139,-0.678048780487805,
7846134,5898.4375,-2896,1.77559779276517,1376,0.843654199877376,-14656,8.98589822194972,235,4.45121951219512,-73,-14.3292682926829,-34,2.07317073170732,4,-0.0173913043478261,-49,-0.21304347826087,140,-0.682926829268293,
7846774,5917.96875,-3232,1.98160637645616,1424,0.873083997547517,-14928,9.15266707541386,245,2.86585365853659,-47,-14.9390243902439,-19,1.15853658536585,1,-0.00434782608695652,-48,-0.208695652173913,137,-0.668292682926829,
7847414,5937.5,-3440,2.10913549969344,1488,0.912323727774372,-15296,9.37829552421827,195,2.07317073170732,-34,-11.890243902439,-13,0.792682926829268,2,-0.00869565217391304,-52,-0.226086956521739,138,-0.673170731707317,
7848054,5957.03125,-3552,2.17780502759044,1552,0.951563458001226,-15408,9.44696505211527,152,1.52439024390244,-25,-9.26829268292683,-6,0.365853658536585,5,-0.0217391304347826,-51,-0.221739130434783,138,-0.673170731707317,
7848694,5976.5625,-3376,2.06989576946658,1472,0.902513795217658,-15520,9.51563458001226,150,1.58536585365854,-26,-9.14634146341463,4,-0.24390243902439,1,-0.00434782608695652,-46,-0.2,137,-0.668292682926829,
7849334,5996.09375,-3520,2.15818516247701,1440,0.88289393010423,-15520,9.51563458001226,129,1.64634146341463,-27,-7.86585365853659,2,-0.121951219512195,5,-0.0217391304347826,-49,-0.21304347826087,139,-0.678048780487805,
7849974,6015.625,-3792,2.32495401594114,1440,0.88289393010423,-15616,9.57449417535254,5,1.58536585365854,-26,-0.304878048780488,12,-0.731707317073171,4,-0.0173913043478261,-47,-0.204347826086957,139,-0.678048780487805,
7850614,6035.15625,-3536,2.16799509503372,1248,0.765174739423666,-15872,9.73145309625996,-81,1.89024390243902,-31,4.9390243902439,4,-0.24390243902439,6,-0.0260869565217391,-52,-0.226086956521739,139,-0.678048780487805,
7851254,6054.6875,-3088,1.89331698344574,1328,0.814224402207235,-15968,9.79031269160024,-12,1.28048780487805,-21,0.731707317073171,5,-0.304878048780488,5,-0.0217391304347826,-51,-0.221739130434783,139,-0.678048780487805,
7851894,6074.21875,-3024,1.85407725321888,1456,0.892703862660944,-16016,9.81974248927039,88,0.853658536585366,-14,-5.36585365853659,10,-0.609756097560976,4,-0.0173913043478261,-49,-0.21304347826087,139,-0.678048780487805,
7852534,6093.75,-3200,1.96198651134273,1488,0.912323727774372,-16000,9.80993255671367,135,0.24390243902439,-4,-8.23170731707317,10,-0.609756097560976,3,-0.0130434782608696,-50,-0.217391304347826,137,-0.668292682926829,
7853174,6113.28125,-3616,2.21704475781729,1344,0.824034334763949,-15920,9.7608828939301,159,-0.182926829268293,3,-9.69512195121951,27,-1.64634146341463,5,-0.0217391304347826,-52,-0.226086956521739,139,-0.678048780487805,
7853814,6132.8125,-3792,2.32495401594114,1200,0.735744941753525,-15920,9.7608828939301,127,0.365853658536585,-6,-7.74390243902439,22,-1.34146341463415,6,-0.0260869565217391,-48,-0.208695652173913,137,-0.668292682926829,
7854454,6152.34375,-4032,2.47210300429185,1216,0.745554874310239,-16112,9.87860208461067,54,1.64634146341463,-27,-3.29268292682927,18,-1.09756097560976,6,-0.0260869565217391,-49,-0.21304347826087,137,-0.668292682926829,
7855094,6171.875,-3936,2.41324340895156,1152,0.706315144083384,-16352,10.0257510729614,-35,2.25609756097561,-37,2.13414634146341,21,-1.28048780487805,6,-0.0260869565217391,-49,-0.21304347826087,138,-0.673170731707317,
7855734,6191.40625,-3712,2.27590435315757,1040,0.637645616186389,-16448,10.0846106683017,-59,3.04878048780488,-50,3.59756097560976,25,-1.52439024390244,3,-0.0130434782608696,-51,-0.221739130434783,138,-0.673170731707317,
7856374,6210.9375,-3280,2.0110361741263,1024,0.627835683629675,-16272,9.9767014101778,-10,3.41463414634146,-56,0.609756097560976,30,-1.82926829268293,5,-0.0217391304347826,-52,-0.226086956521739,139,-0.678048780487805,
7857014,6230.46875,-3232,1.98160637645616,1040,0.637645616186389,-16032,9.8295524218271,51,3.35365853658537,-55,-3.10975609756098,18,-1.09756097560976,6,-0.0260869565217391,-52,-0.226086956521739,137,-0.668292682926829,
7857654,6250,-3440,2.10913549969344,1024,0.627835683629675,-16000,9.80993255671367,42,3.96341463414634,-65,-2.5609756097561,3,-0.182926829268293,6,-0.0260869565217391,-53,-0.230434782608696,138,-0.673170731707317,
7858294,6269.53125,-3424,2.09932556713673,1008,0.618025751072961,-16064,9.84917228694053,20,4.9390243902439,-81,-1.21951219512195,-10,0.609756097560976,6,-0.0260869565217391,-48,-0.208695652173913,138,-0.673170731707317,
7858934,6289.0625,-3408,2.08951563458001,1040,0.637645616186389,-16048,9.83936235438381,33,5.48780487804878,-90,-2.01219512195122,-16,0.975609756097561,4,-0.0173913043478261,-46,-0.2,138,-0.673170731707317,
7859574,6308.59375,-3520,2.15818516247701,1024,0.627835683629675,-15888,9.74126302881668,17,5.24390243902439,-86,-1.03658536585366,-13,0.792682926829268,6,-0.0260869565217391,-53,-0.230434782608696,138,-0.673170731707317,
7860214,6328.125,-3568,2.18761496014715,1152,0.706315144083384,-15904,9.75107296137339,-35,5.24390243902439,-86,2.13414634146341,-10,0.609756097560976,4,-0.0173913043478261,-45,-0.195652173913043,136,-0.663414634146342,
7860854,6347.65625,-3616,2.21704475781729,1152,0.706315144083384,-15872,9.73145309625996,-72,5.48780487804878,-90,4.39024390243902,-7,0.426829268292683,5,-0.0217391304347826,-47,-0.204347826086957,137,-0.668292682926829,
7861494,6367.1875,-3440,2.10913549969344,1216,0.745554874310239,-15904,9.75107296137339,-65,5.0609756097561,-83,3.96341463414634,-6,0.365853658536585,4,-0.0173913043478261,-49,-0.21304347826087,136,-0.663414634146342,
7862134,6386.71875,-3296,2.02084610668302,1184,0.725935009196812,-15824,9.70202329858982,-41,4.69512195121951,-77,2.5,-4,0.24390243902439,5,-0.0217391304347826,-47,-0.204347826086957,136,-0.663414634146342,
7862774,6406.25,-3280,2.0110361741263,1104,0.676885346413243,-15856,9.72164316370325,-10,4.69512195121951,-77,0.609756097560976,-16,0.975609756097561,6,-0.0260869565217391,-53,-0.230434782608696,139,-0.678048780487805,
7863414,6425.78125,-3376,2.06989576946658,1296,0.794604537093807,-15856,9.72164316370325,7,4.69512195121951,-77,-0.426829268292683,-27,1.64634146341463,6,-0.0260869565217391,-50,-0.217391304347826,137,-0.668292682926829,
7864054,6445.3125,-3376,2.06989576946658,1216,0.745554874310239,-15936,9.77069282648682,24,5.36585365853659,-88,-1.46341463414634,-38,2.31707317073171,3,-0.0130434782608696,-48,-0.208695652173913,136,-0.663414634146342,
7864694,6464.84375,-3456,2.11894543225015,1152,0.706315144083384,-15872,9.73145309625996,10,6.09756097560976,-100,-0.609756097560976,-37,2.25609756097561,4,-0.0173913043478261,-50,-0.217391304347826,137,-0.668292682926829,
7865334,6484.375,-3680,2.25628448804414,1280,0.784794604537094,-15696,9.62354383813611,-28,6.46341463414634,-106,1.70731707317073,-45,2.74390243902439,3,-0.0130434782608696,-53,-0.230434782608696,139,-0.678048780487805,
7865974,6503.90625,-3680,2.25628448804414,1344,0.824034334763949,-15600,9.56468424279583,-78,6.40243902439024,-105,4.75609756097561,-44,2.68292682926829,6,-0.0260869565217391,-52,-0.226086956521739,138,-0.673170731707317,
7866614,6523.4375,-3616,2.21704475781729,1328,0.814224402207235,-15616,9.57449417535254,-76,5.30487804878049,-87,4.63414634146342,-33,2.01219512195122,5,-0.0217391304347826,-49,-0.21304347826087,137,-0.668292682926829,
7867254,6542.96875,-3536,2.16799509503372,1440,0.88289393010423,-15680,9.6137339055794,-37,4.20731707317073,-69,2.25609756097561,-16,0.975609756097561,4,-0.0173913043478261,-49,-0.21304347826087,138,-0.673170731707317,
7867894,6562.5,-3664,2.24647455548743,1440,0.88289393010423,-15760,9.66278356836297,9,3.10975609756098,-51,-0.548780487804878,3,-0.182926829268293,1,-0.00434782608695652,-48,-0.208695652173913,137,-0.668292682926829,
7868534,6582.03125,-3712,2.27590435315757,1424,0.873083997547517,-15776,9.67259350091968,29,2.98780487804878,-49,-1.76829268292683,11,-0.670731707317073,6,-0.0260869565217391,-53,-0.230434782608696,137,-0.668292682926829,
7869174,6601.5625,-3744,2.295524218271,1392,0.853464132434089,-15792,9.6824034334764,34,3.29268292682927,-54,-2.07317073170732,15,-0.914634146341463,3,-0.0130434782608696,-49,-0.21304347826087,138,-0.673170731707317,
7869814,6621.09375,-3696,2.26609442060086,1472,0.902513795217658,-15904,9.75107296137339,23,3.29268292682927,-54,-1.40243902439024,9,-0.548780487804878,4,-0.0173913043478261,-48,-0.208695652173913,137,-0.668292682926829,
7870454,6640.625,-3664,2.24647455548743,1488,0.912323727774372,-15904,9.75107296137339,17,3.53658536585366,-58,-1.03658536585366,12,-0.731707317073171,5,-0.0217391304347826,-51,-0.221739130434783,137,-0.668292682926829,
7871094,6660.15625,-3584,2.19742489270386,1360,0.833844267320662,-15984,9.80012262415696,45,3.59756097560976,-59,-2.74390243902439,16,-0.975609756097561,4,-0.0173913043478261,-46,-0.2,136,-0.663414634146342,
7871734,6679.6875,-3648,2.23666462293072,1328,0.814224402207235,-15920,9.7608828939301,61,3.84146341463415,-63,-3.71951219512195,22,-1.34146341463415,2,-0.00869565217391304,-47,-0.204347826086957,136,-0.663414634146342,
7872374,6699.21875,-3728,2.28571428571429,1424,0.873083997547517,-15776,9.67259350091968,24,3.90243902439024,-64,-1.46341463414634,24,-1.46341463414634,5,-0.0217391304347826,-51,-0.221739130434783,137,-0.668292682926829,
7873014,6718.75,-3616,2.21704475781729,1328,0.814224402207235,-15808,9.69221336603311,-25,3.84146341463415,-63,1.52439024390244,27,-1.64634146341463,7,-0.0304347826086957,-50,-0.217391304347826,136,-0.663414634146342,
7873654,6738.28125,-3392,2.0797057020233,1344,0.824034334763949,-15904,9.75107296137339,-28,3.17073170731707,-52,1.70731707317073,28,-1.70731707317073,3,-0.0130434782608696,-52,-0.226086956521739,136,-0.663414634146342,
7874294,6757.8125,-3312,2.03065603923973,1328,0.814224402207235,-15936,9.77069282648682,17,3.17073170731707,-52,-1.03658536585366,36,-2.19512195121951,2,-0.00869565217391304,-52,-0.226086956521739,138,-0.673170731707317,
7874934,6777.34375,-3488,2.13856529736358,1408,0.863274064990803,-15904,9.75107296137339,46,3.10975609756098,-51,-2.80487804878049,34,-2.07317073170732,3,-0.0130434782608696,-47,-0.204347826086957,135,-0.658536585365854,
7875574,6796.875,-3472,2.12875536480687,1408,0.863274064990803,-15888,9.74126302881668,30,3.10975609756098,-51,-1.82926829268293,23,-1.40243902439024,3,-0.0130434782608696,-48,-0.208695652173913,136,-0.663414634146342,
7876214,6816.40625,-3456,2.11894543225015,1472,0.902513795217658,-15808,9.69221336603311,30,3.35365853658537,-55,-1.82926829268293,18,-1.09756097560976,4,-0.0173913043478261,-49,-0.21304347826087,136,-0.663414634146342,
7876854,6835.9375,-3552,2.17780502759044,1488,0.912323727774372,-15968,9.79031269160024,29,3.47560975609756,-57,-1.76829268292683,16,-0.975609756097561,4,-0.0173913043478261,-48,-0.208695652173913,137,-0.668292682926829,
7877494,6855.46875,-3664,2.24647455548743,1456,0.892703862660944,-15920,9.7608828939301,20,4.14634146341463,-68,-1.21951219512195,13,-0.792682926829268,3,-0.0130434782608696,-47,-0.204347826086957,134,-0.653658536585366,
7878134,6875,-3776,2.31514408338443,1472,0.902513795217658,-15856,9.72164316370325,-20,4.63414634146342,-76,1.21951219512195,9,-0.548780487804878,3,-0.0130434782608696,-47,-0.204347826086957,138,-0.673170731707317,
7878774,6894.53125,-3632,2.226854690374,1456,0.892703862660944,-15904,9.75107296137339,-53,4.45121951219512,-73,3.23170731707317,7,-0.426829268292683,5,-0.0217391304347826,-51,-0.221739130434783,138,-0.673170731707317,
7879414,6914.0625,-3472,2.12875536480687,1536,0.941753525444513,-15776,9.67259350091968,-41,4.69512195121951,-77,2.5,4,-0.24390243902439,6,-0.0260869565217391,-55,-0.239130434782609,138,-0.673170731707317,
7880054,6933.59375,-3392,2.0797057020233,1504,0.922133660331085,-15760,9.66278356836297,18,4.51219512195122,-74,-1.09756097560976,4,-0.24390243902439,5,-0.0217391304347826,-53,-0.230434782608696,136,-0.663414634146342,
7880694,6953.125,-3488,2.13856529736358,1568,0.96137339055794,-15680,9.6137339055794,41,4.14634146341463,-68,-2.5,5,-0.304878048780488,6,-0.0260869565217391,-51,-0.221739130434783,136,-0.663414634146342,
7881334,6972.65625,-3568,2.18761496014715,1600,0.980993255671367,-15664,9.60392397302268,39,3.78048780487805,-62,-2.37804878048781,-8,0.487804878048781,4,-0.0173913043478261,-49,-0.21304347826087,136,-0.663414634146342,
7881974,6992.1875,-3680,2.25628448804414,1552,0.951563458001226,-15728,9.64316370324954,34,3.59756097560976,-59,-2.07317073170732,-4,0.24390243902439,6,-0.0260869565217391,-53,-0.230434782608696,139,-0.678048780487805,
7882614,7011.71875,-3680,2.25628448804414,1616,0.990803188228081,-15552,9.53525444512569,24,3.29268292682927,-54,-1.46341463414634,2,-0.121951219512195,4,-0.0173913043478261,-52,-0.226086956521739,138,-0.673170731707317,
7883254,7031.25,-3648,2.23666462293072,1600,0.980993255671367,-15584,9.55487431023912,14,3.10975609756098,-51,-0.853658536585366,4,-0.24390243902439,4,-0.0173913043478261,-51,-0.221739130434783,137,-0.668292682926829,
7883894,7050.78125,-3696,2.26609442060086,1552,0.951563458001226,-15488,9.49601471489883,4,3.17073170731707,-52,-0.24390243902439,2,-0.121951219512195,6,-0.0260869565217391,-53,-0.230434782608696,136,-0.663414634146342,
7884534,7070.3125,-3664,2.24647455548743,1504,0.922133660331085,-15552,9.53525444512569,-17,2.80487804878049,-46,1.03658536585366,6,-0.365853658536585,3,-0.0130434782608696,-55,-0.239130434782609,137,-0.668292682926829,
7885174,7089.84375,-3600,2.20723482526058,1520,0.931943592887799,-15632,9.58430410790926,-15,2.68292682926829,-44,0.914634146341463,0,0,4,-0.0173913043478261,-51,-0.221739130434783,136,-0.663414634146342,
7885814,7109.375,-3600,2.20723482526058,1648,1.01042305334151,-15712,9.63335377069283,-2,2.13414634146341,-35,0.121951219512195,5,-0.304878048780488,6,-0.0260869565217391,-54,-0.234782608695652,136,-0.663414634146342,
7886454,7128.90625,-3728,2.28571428571429,1616,0.990803188228081,-15616,9.57449417535254,-6,2.07317073170732,-34,0.365853658536585,8,-0.487804878048781,6,-0.0260869565217391,-55,-0.239130434782609,137,-0.668292682926829,
7887094,7148.4375,-3776,2.31514408338443,1520,0.931943592887799,-15664,9.60392397302268,-17,2.01219512195122,-33,1.03658536585366,14,-0.853658536585366,5,-0.0217391304347826,-51,-0.221739130434783,138,-0.673170731707317,
7887734,7167.96875,-3680,2.25628448804414,1488,0.912323727774372,-15792,9.6824034334764,-31,1.76829268292683,-29,1.89024390243902,20,-1.21951219512195,4,-0.0173913043478261,-50,-0.217391304347826,136,-0.663414634146342,
7888374,7187.5,-3472,2.12875536480687,1408,0.863274064990803,-15872,9.73145309625996,-40,1.58536585365854,-26,2.4390243902439,14,-0.853658536585366,5,-0.0217391304347826,-55,-0.239130434782609,137,-0.668292682926829,
7889014,7207.03125,-3440,2.10913549969344,1408,0.863274064990803,-15920,9.7608828939301,-22,1.70731707317073,-28,1.34146341463415,14,-0.853658536585366,4,-0.0173913043478261,-47,-0.204347826086957,136,-0.663414634146342,
7889654,7226.5625,-3552,2.17780502759044,1536,0.941753525444513,-15840,9.71183323114654,-17,2.01219512195122,-33,1.03658536585366,10,-0.609756097560976,5,-0.0217391304347826,-50,-0.217391304347826,137,-0.668292682926829,
7890294,7246.09375,-3552,2.17780502759044,1424,0.873083997547517,-15904,9.75107296137339,-31,2.31707317073171,-38,1.89024390243902,5,-0.304878048780488,6,-0.0260869565217391,-52,-0.226086956521739,137,-0.668292682926829,
7890934,7265.625,-3520,2.15818516247701,1488,0.912323727774372,-15984,9.80012262415696,-27,2.6219512195122,-43,1.64634146341463,5,-0.304878048780488,5,-0.0217391304347826,-48,-0.208695652173913,136,-0.663414634146342,
7891574,7285.15625,-3504,2.14837522992029,1456,0.892703862660944,-15984,9.80012262415696,0,2.68292682926829,-44,0,8,-0.487804878048781,4,-0.0173913043478261,-53,-0.230434782608696,138,-0.673170731707317,
7892214,7304.6875,-3520,2.15818516247701,1472,0.902513795217658,-15952,9.78050275904353,20,2.74390243902439,-45,-1.21951219512195,12,-0.731707317073171,5,-0.0217391304347826,-50,-0.217391304347826,138,-0.673170731707317,
7892854,7324.21875,-3616,2.21704475781729,1488,0.912323727774372,-16000,9.80993255671367,15,2.4390243902439,-40,-0.914634146341463,11,-0.670731707317073,3,-0.0130434782608696,-49,-0.21304347826087,136,-0.663414634146342,
7893494,7343.75,-3648,2.23666462293072,1504,0.922133660331085,-15984,9.80012262415696,0,2.5609756097561,-42,0,15,-0.914634146341463,5,-0.0217391304347826,-55,-0.239130434782609,138,-0.673170731707317,
7894134,7363.28125,-3632,2.226854690374,1504,0.922133660331085,-16000,9.80993255671367,-11,3.04878048780488,-50,0.670731707317073,7,-0.426829268292683,5,-0.0217391304347826,-53,-0.230434782608696,134,-0.653658536585366,
7894774,7382.8125,-3616,2.21704475781729,1520,0.931943592887799,-16016,9.81974248927039,-28,3.41463414634146,-56,1.70731707317073,9,-0.548780487804878,2,-0.00869565217391304,-48,-0.208695652173913,137,-0.668292682926829,
7895414,7402.34375,-3536,2.16799509503372,1568,0.96137339055794,-15968,9.79031269160024,-33,3.90243902439024,-64,2.01219512195122,7,-0.426829268292683,3,-0.0130434782608696,-48,-0.208695652173913,135,-0.658536585365854,
7896054,7421.875,-3488,2.13856529736358,1568,0.96137339055794,-15952,9.78050275904353,-10,3.78048780487805,-62,0.609756097560976,9,-0.548780487804878,4,-0.0173913043478261,-49,-0.21304347826087,136,-0.663414634146342,
7896694,7441.40625,-3408,2.08951563458001,1536,0.941753525444513,-15872,9.73145309625996,6,3.78048780487805,-62,-0.365853658536585,11,-0.670731707317073,3,-0.0130434782608696,-50,-0.217391304347826,138,-0.673170731707317,
7897334,7460.9375,-3392,2.0797057020233,1488,0.912323727774372,-15888,9.74126302881668,-9,3.78048780487805,-62,0.548780487804878,6,-0.365853658536585,2,-0.00869565217391304,-50,-0.217391304347826,137,-0.668292682926829,
7897974,7480.46875,-3472,2.12875536480687,1536,0.941753525444513,-15952,9.78050275904353,-10,3.90243902439024,-64,0.609756097560976,1,-0.0609756097560976,2,-0.00869565217391304,-51,-0.221739130434783,137,-0.668292682926829,
7898614,7500,-3408,2.08951563458001,1584,0.971183323114654,-15920,9.7608828939301,3,4.39024390243902,-72,-0.182926829268293,-6,0.365853658536585,3,-0.0130434782608696,-54,-0.234782608695652,136,-0.663414634146342,
7899254,7519.53125,-3472,2.12875536480687,1600,0.980993255671367,-15920,9.7608828939301,32,4.57317073170732,-75,-1.95121951219512,-8,0.487804878048781,3,-0.0130434782608696,-49,-0.21304347826087,135,-0.658536585365854,
7899894,7539.0625,-3568,2.18761496014715,1584,0.971183323114654,-15792,9.6824034334764,42,5,-82,-2.5609756097561,-7,0.426829268292683,5,-0.0217391304347826,-53,-0.230434782608696,136,-0.663414634146342,
7900534,7558.59375,-3648,2.23666462293072,1584,0.971183323114654,-15760,9.66278356836297,20,4.9390243902439,-81,-1.21951219512195,-9,0.548780487804878,4,-0.0173913043478261,-49,-0.21304347826087,134,-0.653658536585366,
7901174,7578.125,-3680,2.25628448804414,1616,0.990803188228081,-15680,9.6137339055794,-13,4.69512195121951,-77,0.792682926829268,-13,0.792682926829268,4,-0.0173913043478261,-47,-0.204347826086957,137,-0.668292682926829,
7901814,7597.65625,-3520,2.15818516247701,1696,1.03985285101165,-15744,9.65297363580625,-31,4.75609756097561,-78,1.89024390243902,-19,1.15853658536585,1,-0.00434782608695652,-48,-0.208695652173913,136,-0.663414634146342,
7902454,7617.1875,-3392,2.0797057020233,1712,1.04966278356836,-15600,9.56468424279583,-3,4.08536585365854,-67,0.182926829268293,-16,0.975609756097561,3,-0.0130434782608696,-52,-0.226086956521739,135,-0.658536585365854,
7903094,7636.71875,-3440,2.10913549969344,1776,1.08890251379522,-15728,9.64316370324954,36,3.41463414634146,-56,-2.19512195121951,-9,0.548780487804878,5,-0.0217391304347826,-53,-0.230434782608696,136,-0.663414634146342,
7903734,7656.25,-3536,2.16799509503372,1680,1.03004291845494,-15744,9.65297363580625,64,3.17073170731707,-52,-3.90243902439024,-13,0.792682926829268,2,-0.00869565217391304,-49,-0.21304347826087,136,-0.663414634146342,
7904374,7675.78125,-3632,2.226854690374,1600,0.980993255671367,-15792,9.6824034334764,58,3.41463414634146,-56,-3.53658536585366,-12,0.731707317073171,4,-0.0173913043478261,-50,-0.217391304347826,134,-0.653658536585366,
7905014,7695.3125,-3568,2.18761496014715,1664,1.02023298589822,-15568,9.5450643776824,33,3.23170731707317,-53,-2.01219512195122,-17,1.03658536585366,5,-0.0217391304347826,-51,-0.221739130434783,138,-0.673170731707317,
7905654,7714.84375,-3616,2.21704475781729,1584,0.971183323114654,-15584,9.55487431023912,29,3.17073170731707,-52,-1.76829268292683,-8,0.487804878048781,6,-0.0260869565217391,-52,-0.226086956521739,137,-0.668292682926829,
7906294,7734.375,-3648,2.23666462293072,1552,0.951563458001226,-15712,9.63335377069283,23,3.23170731707317,-53,-1.40243902439024,-15,0.914634146341463,4,-0.0173913043478261,-48,-0.208695652173913,134,-0.653658536585366,
7906934,7753.90625,-3600,2.20723482526058,1568,0.96137339055794,-15696,9.62354383813611,8,2.5609756097561,-42,-0.487804878048781,-12,0.731707317073171,6,-0.0260869565217391,-55,-0.239130434782609,138,-0.673170731707317,
7907574,7773.4375,-3584,2.19742489270386,1568,0.96137339055794,-15648,9.59411404046597,-12,2.19512195121951,-36,0.731707317073171,-16,0.975609756097561,5,-0.0217391304347826,-54,-0.234782608695652,135,-0.658536585365854,
7908214,7792.96875,-3648,2.23666462293072,1536,0.941753525444513,-15744,9.65297363580625,-11,2.6219512195122,-43,0.670731707317073,-22,1.34146341463415,6,-0.0260869565217391,-51,-0.221739130434783,135,-0.658536585365854,
7908854,7812.5,-3632,2.226854690374,1616,0.990803188228081,-15680,9.6137339055794,-28,2.98780487804878,-49,1.70731707317073,-25,1.52439024390244,5,-0.0217391304347826,-48,-0.208695652173913,135,-0.658536585365854,
7909494,7832.03125,-3632,2.226854690374,1648,1.01042305334151,-15664,9.60392397302268,-46,3.23170731707317,-53,2.80487804878049,-34,2.07317073170732,4,-0.0173913043478261,-53,-0.230434782608696,137,-0.668292682926829,
7910134,7851.5625,-3504,2.14837522992029,1600,0.980993255671367,-15664,9.60392397302268,-17,2.74390243902439,-45,1.03658536585366,-32,1.95121951219512,3,-0.0130434782608696,-52,-0.226086956521739,136,-0.663414634146342,
7910774,7871.09375,-3648,2.23666462293072,1696,1.03985285101165,-15728,9.64316370324954,35,2.07317073170732,-34,-2.13414634146341,-22,1.34146341463415,4,-0.0173913043478261,-49,-0.21304347826087,135,-0.658536585365854,
7911414,7890.625,-3872,2.37400367872471,1648,1.01042305334151,-15696,9.62354383813611,43,1.58536585365854,-26,-2.6219512195122,-11,0.670731707317073,3,-0.0130434782608696,-52,-0.226086956521739,137,-0.668292682926829,
7912054,7910.15625,-3840,2.35438381361128,1568,0.96137339055794,-15856,9.72164316370325,7,1.28048780487805,-21,-0.426829268292683,-12,0.731707317073171,5,-0.0217391304347826,-55,-0.239130434782609,137,-0.668292682926829,
7912694,7929.6875,-3744,2.295524218271,1584,0.971183323114654,-15872,9.73145309625996,-14,1.46341463414634,-24,0.853658536585366,-12,0.731707317073171,4,-0.0173913043478261,-48,-0.208695652173913,134,-0.653658536585366,
7913334,7949.21875,-3696,2.26609442060086,1520,0.931943592887799,-15936,9.77069282648682,-23,1.46341463414634,-24,1.40243902439024,-13,0.792682926829268,5,-0.0217391304347826,-49,-0.21304347826087,136,-0.663414634146342,
7913974,7968.75,-3696,2.26609442060086,1440,0.88289393010423,-16064,9.84917228694053,-9,1.89024390243902,-31,0.548780487804878,-14,0.853658536585366,3,-0.0130434782608696,-49,-0.21304347826087,137,-0.668292682926829,
7914614,7988.28125,-3680,2.25628448804414,1328,0.814224402207235,-16000,9.80993255671367,-7,2.80487804878049,-46,0.426829268292683,-17,1.03658536585366,3,-0.0130434782608696,-51,-0.221739130434783,137,-0.668292682926829,
7915254,8007.8125,-3696,2.26609442060086,1360,0.833844267320662,-16080,9.85898221949724,-13,3.23170731707317,-53,0.792682926829268,-20,1.21951219512195,4,-0.0173913043478261,-46,-0.2,135,-0.658536585365854,
7915894,8027.34375,-3632,2.226854690374,1376,0.843654199877376,-16048,9.83936235438381,-8,3.29268292682927,-54,0.487804878048781,-23,1.40243902439024,5,-0.0217391304347826,-47,-0.204347826086957,136,-0.663414634146342,
7916534,8046.875,-3632,2.226854690374,1376,0.843654199877376,-15968,9.79031269160024,7,3.35365853658537,-55,-0.426829268292683,-18,1.09756097560976,5,-0.0217391304347826,-53,-0.230434782608696,138,-0.673170731707317,
7917174,8066.40625,-3696,2.26609442060086,1328,0.814224402207235,-15824,9.70202329858982,20,3.23170731707317,-53,-1.21951219512195,-10,0.609756097560976,4,-0.0173913043478261,-50,-0.217391304347826,137,-0.668292682926829,
7917814,8085.9375,-3728,2.28571428571429,1392,0.853464132434089,-15808,9.69221336603311,5,3.71951219512195,-61,-0.304878048780488,-12,0.731707317073171,6,-0.0260869565217391,-48,-0.208695652173913,134,-0.653658536585366,
7918454,8105.46875,-3664,2.24647455548743,1472,0.902513795217658,-15776,9.67259350091968,-13,3.59756097560976,-59,0.792682926829268,-14,0.853658536585366,7,-0.0304347826086957,-51,-0.221739130434783,136,-0.663414634146342,
7919094,8125,-3568,2.18761496014715,1472,0.902513795217658,-15776,9.67259350091968,-2,3.35365853658537,-55,0.121951219512195,-9,0.548780487804878,4,-0.0173913043478261,-50,-0.217391304347826,136,-0.663414634146342,
7919734,8144.53125,-3568,2.18761496014715,1456,0.892703862660944,-15632,9.58430410790926,39,2.86585365853659,-47,-2.37804878048781,-6,0.365853658536585,4,-0.0173913043478261,-52,-0.226086956521739,136,-0.663414634146342,
7920374,8164.0625,-3760,2.30533415082771,1472,0.902513795217658,-15680,9.6137339055794,63,2.19512195121951,-36,-3.84146341463415,0,0,5,-0.0217391304347826,-53,-0.230434782608696,137,-0.668292682926829,
7921014,8183.59375,-3856,2.364193746168,1504,0.922133660331085,-15712,9.63335377069283,38,2.31707317073171,-38,-2.31707317073171,1,-0.0609756097560976,7,-0.0304347826086957,-53,-0.230434782608696,136,-0.663414634146342,
7921654,8203.125,-3888,2.38381361128142,1520,0.931943592887799,-15648,9.59411404046597,-6,2.07317073170732,-34,0.365853658536585,5,-0.304878048780488,6,-0.0260869565217391,-54,-0.234782608695652,136,-0.663414634146342,
7922294,8222.65625,-3840,2.35438381361128,1520,0.931943592887799,-15616,9.57449417535254,-7,2.25609756097561,-37,0.426829268292683,18,-1.09756097560976,6,-0.0260869565217391,-53,-0.230434782608696,134,-0.653658536585366,
7922934,8242.1875,-3888,2.38381361128142,1520,0.931943592887799,-15552,9.53525444512569,-19,2.07317073170732,-34,1.15853658536585,18,-1.09756097560976,5,-0.0217391304347826,-51,-0.221739130434783,137,-0.668292682926829,
7923574,8261.71875,-3872,2.37400367872471,1584,0.971183323114654,-15744,9.65297363580625,-30,1.64634146341463,-27,1.82926829268293,18,-1.09756097560976,6,-0.0260869565217391,-55,-0.239130434782609,136,-0.663414634146342,
7924214,8281.25,-3616,2.21704475781729,1648,1.01042305334151,-15920,9.7608828939301,16,1.40243902439024,-23,-0.975609756097561,28,-1.70731707317073,6,-0.0260869565217391,-50,-0.217391304347826,136,-0.663414634146342,
7924854,8300.78125,-3680,2.25628448804414,1552,0.951563458001226,-15920,9.7608828939301,88,0.792682926829268,-13,-5.36585365853659,42,-2.5609756097561,5,-0.0217391304347826,-51,-0.221739130434783,137,-0.668292682926829,
7925494,8320.3125,-3888,2.38381361128142,1440,0.88289393010423,-15888,9.74126302881668,87,1.21951219512195,-20,-5.30487804878049,42,-2.5609756097561,5,-0.0217391304347826,-53,-0.230434782608696,135,-0.658536585365854,
7926134,8339.84375,-3872,2.37400367872471,1376,0.843654199877376,-15872,9.73145309625996,3,2.07317073170732,-34,-0.182926829268293,27,-1.64634146341463,4,-0.0173913043478261,-47,-0.204347826086957,136,-0.663414634146342,
7926774,8359.375,-3552,2.17780502759044,1360,0.833844267320662,-15920,9.7608828939301,-32,2.6219512195122,-43,1.95121951219512,16,-0.975609756097561,6,-0.0260869565217391,-49,-0.21304347826087,135,-0.658536585365854,
7927414,8378.90625,-3424,2.09932556713673,1440,0.88289393010423,-15840,9.71183323114654,2,2.25609756097561,-37,-0.121951219512195,22,-1.34146341463415,3,-0.0130434782608696,-48,-0.208695652173913,135,-0.658536585365854,
7928054,8398.4375,-3488,2.13856529736358,1424,0.873083997547517,-15888,9.74126302881668,56,1.70731707317073,-28,-3.41463414634146,25,-1.52439024390244,7,-0.0304347826086957,-51,-0.221739130434783,136,-0.663414634146342,
7928694,8417.96875,-3728,2.28571428571429,1520,0.931943592887799,-15840,9.71183323114654,60,1.89024390243902,-31,-3.65853658536585,22,-1.34146341463415,5,-0.0217391304347826,-52,-0.226086956521739,136,-0.663414634146342,
7929334,8437.5,-3760,2.30533415082771,1392,0.853464132434089,-15856,9.72164316370325,24,2.31707317073171,-38,-1.46341463414634,18,-1.09756097560976,3,-0.0130434782608696,-52,-0.226086956521739,135,-0.658536585365854,
7929974,8457.03125,-3792,2.32495401594114,1456,0.892703862660944,-15824,9.70202329858982,3,3.23170731707317,-53,-0.182926829268293,7,-0.426829268292683,6,-0.0260869565217391,-53,-0.230434782608696,135,-0.658536585365854,
7930614,8476.5625,-3680,2.25628448804414,1520,0.931943592887799,-15824,9.70202329858982,-16,3.41463414634146,-56,0.975609756097561,5,-0.304878048780488,7,-0.0304347826086957,-53,-0.230434782608696,135,-0.658536585365854,
7931254,8496.09375,-3472,2.12875536480687,1552,0.951563458001226,-15680,9.6137339055794,2,2.74390243902439,-45,-0.121951219512195,8,-0.487804878048781,5,-0.0217391304347826,-55,-0.239130434782609,136,-0.663414634146342,
7931894,8515.625,-3520,2.15818516247701,1520,0.931943592887799,-15728,9.64316370324954,36,2.25609756097561,-37,-2.19512195121951,14,-0.853658536585366,5,-0.0217391304347826,-50,-0.217391304347826,134,-0.653658536585366,
7932534,8535.15625,-3632,2.226854690374,1456,0.892703862660944,-15744,9.65297363580625,34,1.82926829268293,-30,-2.07317073170732,12,-0.731707317073171,4,-0.0173913043478261,-48,-0.208695652173913,135,-0.658536585365854,
7933174,8554.6875,-3680,2.25628448804414,1488,0.912323727774372,-15808,9.69221336603311,-1,2.07317073170732,-34,0.0609756097560976,1,-0.0609756097560976,4,-0.0173913043478261,-48,-0.208695652173913,134,-0.653658536585366,
7933814,8574.21875,-3648,2.23666462293072,1488,0.912323727774372,-15696,9.62354383813611,-18,2.07317073170732,-34,1.09756097560976,-9,0.548780487804878,6,-0.0260869565217391,-51,-0.221739130434783,137,-0.668292682926829,
7934454,8593.75,-3568,2.18761496014715,1488,0.912323727774372,-15648,9.59411404046597,-17,2.6219512195122,-43,1.03658536585366,-9,0.548780487804878,5,-0.0217391304347826,-50,-0.217391304347826,137,-0.668292682926829,
7935094,8613.28125,-3648,2.23666462293072,1456,0.892703862660944,-15744,9.65297363580625,-6,2.80487804878049,-46,0.365853658536585,-11,0.670731707317073,5,-0.0217391304347826,-47,-0.204347826086957,135,-0.658536585365854,
7935734,8632.8125,-3712,2.27590435315757,1456,0.892703862660944,-15728,9.64316370324954,5,2.80487804878049,-46,-0.304878048780488,-18,1.09756097560976,5,-0.0217391304347826,-52,-0.226086956521739,136,-0.663414634146342,
7936374,8652.34375,-3696,2.26609442060086,1440,0.88289393010423,-15648,9.59411404046597,-6,2.68292682926829,-44,0.365853658536585,-19,1.15853658536585,6,-0.0260869565217391,-53,-0.230434782608696,135,-0.658536585365854,
7937014,8671.875,-3696,2.26609442060086,1472,0.902513795217658,-15648,9.59411404046597,-1,2.37804878048781,-39,0.0609756097560976,-22,1.34146341463415,4,-0.0173913043478261,-49,-0.21304347826087,135,-0.658536585365854,
7937654,8691.40625,-3696,2.26609442060086,1472,0.902513795217658,-15648,9.59411404046597,13,1.95121951219512,-32,-0.792682926829268,-18,1.09756097560976,7,-0.0304347826086957,-54,-0.234782608695652,136,-0.663414634146342,
7938294,8710.9375,-3680,2.25628448804414,1408,0.863274064990803,-15664,9.60392397302268,15,1.64634146341463,-27,-0.914634146341463,-13,0.792682926829268,6,-0.0260869565217391,-53,-0.230434782608696,136,-0.663414634146342,
7938934,8730.46875,-3776,2.31514408338443,1440,0.88289393010423,-15776,9.67259350091968,10,1.46341463414634,-24,-0.609756097560976,-11,0.670731707317073,4,-0.0173913043478261,-49,-0.21304347826087,136,-0.663414634146342,
7939574,8750,-3776,2.31514408338443,1360,0.833844267320662,-15888,9.74126302881668,-1,1.58536585365854,-26,0.0609756097560976,-13,0.792682926829268,7,-0.0304347826086957,-53,-0.230434782608696,137,-0.668292682926829,
7940214,8769.53125,-3808,2.33476394849785,1408,0.863274064990803,-15840,9.71183323114654,-10,1.58536585365854,-26,0.609756097560976,-17,1.03658536585366,4,-0.0173913043478261,-52,-0.226086956521739,134,-0.653658536585366,
7940854,8789.0625,-3728,2.28571428571429,1424,0.873083997547517,-15968,9.79031269160024,-20,1.76829268292683,-29,1.21951219512195,-20,1.21951219512195,5,-0.0217391304347826,-51,-0.221739130434783,135,-0.658536585365854,
7941494,8808.59375,-3776,2.31514408338443,1424,0.873083997547517,-15952,9.78050275904353,-3,2.25609756097561,-37,0.182926829268293,-21,1.28048780487805,5,-0.0217391304347826,-49,-0.21304347826087,134,-0.653658536585366,
7942134,8828.125,-3840,2.35438381361128,1360,0.833844267320662,-15904,9.75107296137339,0,2.4390243902439,-40,0,-16,0.975609756097561,6,-0.0260869565217391,-50,-0.217391304347826,134,-0.653658536585366,
7942774,8847.65625,-3792,2.32495401594114,1344,0.824034334763949,-16016,9.81974248927039,-15,3.04878048780488,-50,0.914634146341463,-17,1.03658536585366,5,-0.0217391304347826,-50,-0.217391304347826,136,-0.663414634146342,
7943414,8867.1875,-3696,2.26609442060086,1376,0.843654199877376,-16048,9.83936235438381,-18,3.17073170731707,-52,1.09756097560976,-16,0.975609756097561,5,-0.0217391304347826,-49,-0.21304347826087,136,-0.663414634146342,
7944054,8886.71875,-3696,2.26609442060086,1376,0.843654199877376,-15952,9.78050275904353,-15,2.98780487804878,-49,0.914634146341463,-13,0.792682926829268,6,-0.0260869565217391,-55,-0.239130434782609,136,-0.663414634146342,
7944694,8906.25,-3760,2.30533415082771,1344,0.824034334763949,-15872,9.73145309625996,-7,3.29268292682927,-54,0.426829268292683,-19,1.15853658536585,3,-0.0130434782608696,-47,-0.204347826086957,135,-0.658536585365854,
7945334,8925.78125,-3696,2.26609442060086,1296,0.794604537093807,-15744,9.65297363580625,-5,3.53658536585366,-58,0.304878048780488,-26,1.58536585365854,3,-0.0130434782608696,-53,-0.230434782608696,136,-0.663414634146342,
7945974,8945.3125,-3744,2.295524218271,1360,0.833844267320662,-15536,9.52544451256898,-5,3.47560975609756,-57,0.304878048780488,-32,1.95121951219512,6,-0.0260869565217391,-51,-0.221739130434783,134,-0.653658536585366,
7946614,8964.84375,-3568,2.18761496014715,1312,0.804414469650521,-15600,9.56468424279583,3,2.98780487804878,-49,-0.182926829268293,-20,1.21951219512195,5,-0.0217391304347826,-47,-0.204347826086957,136,-0.663414634146342,
7947254,8984.375,-3872,2.37400367872471,1392,0.853464132434089,-15408,9.44696505211527,65,3.10975609756098,-51,-3.96341463414634,-15,0.914634146341463,6,-0.0260869565217391,-48,-0.208695652173913,134,-0.653658536585366,
7947894,9003.90625,-3648,2.23666462293072,1408,0.863274064990803,-15536,9.52544451256898,43,1.52439024390244,-25,-2.6219512195122,-7,0.426829268292683,6,-0.0260869565217391,-51,-0.221739130434783,134,-0.653658536585366,
7948534,9023.4375,-3920,2.40343347639485,1360,0.833844267320662,-15776,9.67259350091968,45,2.6219512195122,-43,-2.74390243902439,-33,2.01219512195122,6,-0.0260869565217391,-50,-0.217391304347826,135,-0.658536585365854,
7949174,9042.96875,-4112,2.52115266707541,1392,0.853464132434089,-15792,9.6824034334764,30,3.10975609756098,-51,-1.82926829268293,-20,1.21951219512195,4,-0.0173913043478261,-52,-0.226086956521739,136,-0.663414634146342,
7949814,9062.5,-3888,2.38381361128142,1472,0.902513795217658,-15520,9.51563458001226,-25,3.53658536585366,-58,1.52439024390244,-28,1.70731707317073,4,-0.0173913043478261,-53,-0.230434782608696,136,-0.663414634146342,
7950454,9082.03125,-3776,2.31514408338443,1632,1.00061312078479,-15232,9.33905579399141,-44,1.21951219512195,-20,2.68292682926829,-12,0.731707317073171,6,-0.0260869565217391,-49,-0.21304347826087,134,-0.653658536585366,
7951094,9101.5625,-3744,2.295524218271,1472,0.902513795217658,-15392,9.43715511955855,30,-0.731707317073171,12,-1.82926829268293,25,-1.52439024390244,6,-0.0260869565217391,-53,-0.230434782608696,135,-0.658536585365854,
7951734,9121.09375,-3984,2.4426732066217,1376,0.843654199877376,-15664,9.60392397302268,75,0.182926829268293,-3,-4.57317073170732,18,-1.09756097560976,7,-0.0304347826086957,-49,-0.21304347826087,137,-0.668292682926829,
7952374,9140.625,-4160,2.55058246474555,1360,0.833844267320662,-15712,9.63335377069283,-7,-0.0609756097560976,1,0.426829268292683,18,-1.09756097560976,8,-0.0347826086956522,-53,-0.230434782608696,135,-0.658536585365854,
7953014,9160.15625,-3744,2.295524218271,1344,0.824034334763949,-15664,9.60392397302268,36,-0.365853658536585,6,-2.19512195121951,19,-1.15853658536585,5,-0.0217391304347826,-45,-0.195652173913043,134,-0.653658536585366,
7953654,9179.6875,-3680,2.25628448804414,1264,0.77498467198038,-15808,9.69221336603311,122,0.0609756097560976,-1,-7.4390243902439,18,-1.09756097560976,4,-0.0173913043478261,-49,-0.21304347826087,135,-0.658536585365854,
7954294,9199.21875,-4096,2.5113427345187,1216,0.745554874310239,-16032,9.8295524218271,39,1.34146341463415,-22,-2.37804878048781,-2,0.121951219512195,5,-0.0217391304347826,-50,-0.217391304347826,135,-0.658536585365854,
7954934,9218.75,-4272,2.61925199264255,1120,0.686695278969957,-15952,9.78050275904353,-119,1.70731707317073,-28,7.25609756097561,-22,1.34146341463415,6,-0.0260869565217391,-49,-0.21304347826087,135,-0.658536585365854,
7955574,9238.28125,-3824,2.34457388105457,1232,0.755364806866953,-15840,9.71183323114654,-107,1.21951219512195,-20,6.52439024390244,-17,1.03658536585366,5,-0.0217391304347826,-51,-0.221739130434783,136,-0.663414634146342,
7956214,9257.8125,-3520,2.15818516247701,1232,0.755364806866953,-15984,9.80012262415696,-14,1.15853658536585,-19,0.853658536585366,-16,0.975609756097561,6,-0.0260869565217391,-50,-0.217391304347826,134,-0.653658536585366,
7956854,9277.34375,-3856,2.364193746168,1184,0.725935009196812,-16096,9.86879215205395,11,1.95121951219512,-32,-0.670731707317073,-21,1.28048780487805,7,-0.0304347826086957,-49,-0.21304347826087,135,-0.658536585365854,
7957494,9296.875,-4016,2.46229307173513,1312,0.804414469650521,-16000,9.80993255671367,-55,2.07317073170732,-34,3.35365853658537,-26,1.58536585365854,5,-0.0217391304347826,-50,-0.217391304347826,137,-0.668292682926829,
7958134,9316.40625,-3744,2.295524218271,1264,0.77498467198038,-15696,9.62354383813611,-45,1.40243902439024,-23,2.74390243902439,-10,0.609756097560976,5,-0.0217391304347826,-50,-0.217391304347826,134,-0.653658536585366,
7958774,9335.9375,-3712,2.27590435315757,1200,0.735744941753525,-15632,9.58430410790926,47,0.914634146341463,-15,-2.86585365853659,-5,0.304878048780488,6,-0.0260869565217391,-51,-0.221739130434783,136,-0.663414634146342,
7959414,9355.46875,-4000,2.45248313917842,1216,0.745554874310239,-15872,9.73145309625996,59,1.46341463414634,-24,-3.59756097560976,-5,0.304878048780488,3,-0.0130434782608696,-47,-0.204347826086957,134,-0.653658536585366,
7960054,9375,-4224,2.58982219497241,1232,0.755364806866953,-15920,9.7608828939301,5,1.46341463414634,-24,-0.304878048780488,-11,0.670731707317073,3,-0.0130434782608696,-52,-0.226086956521739,134,-0.653658536585366,
7960694,9394.53125,-4048,2.48191293684856,1136,0.696505211526671,-15952,9.78050275904353,-31,2.13414634146341,-35,1.89024390243902,-12,0.731707317073171,6,-0.0260869565217391,-51,-0.221739130434783,135,-0.658536585365854,
7961334,9414.0625,-3872,2.37400367872471,1184,0.725935009196812,-15840,9.71183323114654,-13,1.64634146341463,-27,0.792682926829268,-1,0.0609756097560976,6,-0.0260869565217391,-48,-0.208695652173913,134,-0.653658536585366,
7961974,9433.59375,-3824,2.34457388105457,1216,0.745554874310239,-15984,9.80012262415696,29,2.01219512195122,-33,-1.76829268292683,6,-0.365853658536585,6,-0.0260869565217391,-54,-0.234782608695652,135,-0.658536585365854,
7962614,9453.125,-3968,2.43286327406499,1152,0.706315144083384,-16080,9.85898221949724,20,2.68292682926829,-44,-1.21951219512195,7,-0.426829268292683,5,-0.0217391304347826,-48,-0.208695652173913,136,-0.663414634146342,
7963254,9472.65625,-3904,2.39362354383814,1152,0.706315144083384,-15952,9.78050275904353,-16,2.80487804878049,-46,0.975609756097561,-5,0.304878048780488,5,-0.0217391304347826,-49,-0.21304347826087,136,-0.663414634146342,
7963894,9492.1875,-3888,2.38381361128142,1152,0.706315144083384,-15952,9.78050275904353,-14,3.04878048780488,-50,0.853658536585366,-10,0.609756097560976,6,-0.0260869565217391,-53,-0.230434782608696,136,-0.663414634146342,
7964534,9511.71875,-3872,2.37400367872471,1264,0.77498467198038,-15856,9.72164316370325,-20,3.35365853658537,-55,1.21951219512195,-11,0.670731707317073,7,-0.0304347826086957,-52,-0.226086956521739,136,-0.663414634146342,
7965174,9531.25,-3920,2.40343347639485,1216,0.745554874310239,-15808,9.69221336603311,-6,3.59756097560976,-59,0.365853658536585,-11,0.670731707317073,7,-0.0304347826086957,-48,-0.208695652173913,136,-0.663414634146342,
7965814,9550.78125,-3776,2.31514408338443,1200,0.735744941753525,-15824,9.70202329858982,17,3.59756097560976,-59,-1.03658536585366,-6,0.365853658536585,6,-0.0260869565217391,-50,-0.217391304347826,133,-0.648780487804878,
7966454,9570.3125,-3824,2.34457388105457,1200,0.735744941753525,-15856,9.72164316370325,28,3.90243902439024,-64,-1.70731707317073,-8,0.487804878048781,5,-0.0217391304347826,-47,-0.204347826086957,134,-0.653658536585366,
7967094,9589.84375,-3936,2.41324340895156,1152,0.706315144083384,-15872,9.73145309625996,2,3.78048780487805,-62,-0.121951219512195,-13,0.792682926829268,4,-0.0173913043478261,-52,-0.226086956521739,135,-0.658536585365854,
7967734,9609.375,-3936,2.41324340895156,1280,0.784794604537094,-15728,9.64316370324954,-24,2.80487804878049,-46,1.46341463414634,-19,1.15853658536585,5,-0.0217391304347826,-48,-0.208695652173913,135,-0.658536585365854,
7968374,9628.90625,-3936,2.41324340895156,1328,0.814224402207235,-15696,9.62354383813611,-16,2.4390243902439,-40,0.975609756097561,-9,0.548780487804878,3,-0.0130434782608696,-45,-0.195652173913043,135,-0.658536585365854,
7969014,9648.4375,-3856,2.364193746168,1296,0.794604537093807,-15616,9.57449417535254,13,2.6219512195122,-43,-0.792682926829268,-2,0.121951219512195,5,-0.0217391304347826,-50,-0.217391304347826,134,-0.653658536585366,
7969654,9667.96875,-3904,2.39362354383814,1216,0.745554874310239,-15728,9.64316370324954,24,3.17073170731707,-52,-1.46341463414634,2,-0.121951219512195,6,-0.0260869565217391,-53,-0.230434782608696,137,-0.668292682926829,
7970294,9687.5,-3968,2.43286327406499,1216,0.745554874310239,-15760,9.66278356836297,5,2.98780487804878,-49,-0.304878048780488,-4,0.24390243902439,5,-0.0217391304347826,-51,-0.221739130434783,134,-0.653658536585366,
7970934,9707.03125,-3904,2.39362354383814,1264,0.77498467198038,-15632,9.58430410790926,-15,2.19512195121951,-36,0.914634146341463,-9,0.548780487804878,5,-0.0217391304347826,-49,-0.21304347826087,135,-0.658536585365854,
7971574,9726.5625,-3792,2.32495401594114,1264,0.77498467198038,-15616,9.57449417535254,-3,1.03658536585366,-17,0.182926829268293,1,-0.0609756097560976,7,-0.0304347826086957,-49,-0.21304347826087,136,-0.663414634146342,
7972214,9746.09375,-3680,2.25628448804414,1248,0.765174739423666,-15648,9.59411404046597,26,0.853658536585366,-14,-1.58536585365854,2,-0.121951219512195,5,-0.0217391304347826,-48,-0.208695652173913,136,-0.663414634146342,
7972854,9765.625,-3696,2.26609442060086,1184,0.725935009196812,-15728,9.64316370324954,28,0.975609756097561,-16,-1.70731707317073,3,-0.182926829268293,6,-0.0260869565217391,-53,-0.230434782608696,136,-0.663414634146342,
7973494,9785.15625,-3792,2.32495401594114,1056,0.647455548743102,-15856,9.72164316370325,25,1.34146341463415,-22,-1.52439024390244,-11,0.670731707317073,4,-0.0173913043478261,-46,-0.2,133,-0.648780487804878,
7974134,9804.6875,-3840,2.35438381361128,1040,0.637645616186389,-15952,9.78050275904353,-18,2.31707317073171,-38,1.09756097560976,-24,1.46341463414634,5,-0.0217391304347826,-51,-0.221739130434783,136,-0.663414634146342,
7974774,9824.21875,-3808,2.33476394849785,992,0.608215818516248,-15904,9.75107296137339,-79,3.23170731707317,-53,4.81707317073171,-38,2.31707317073171,4,-0.0173913043478261,-47,-0.204347826086957,134,-0.653658536585366,
7975414,9843.75,-3712,2.27590435315757,1008,0.618025751072961,-15744,9.65297363580625,-103,3.41463414634146,-56,6.28048780487805,-47,2.86585365853659,3,-0.0130434782608696,-52,-0.226086956521739,135,-0.658536585365854,
7976054,9863.28125,-3632,2.226854690374,1200,0.735744941753525,-15632,9.58430410790926,-77,3.17073170731707,-52,4.69512195121951,-44,2.68292682926829,6,-0.0260869565217391,-51,-0.221739130434783,135,-0.658536585365854,
7976694,9882.8125,-3632,2.226854690374,1248,0.765174739423666,-15632,9.58430410790926,-19,2.98780487804878,-49,1.15853658536585,-53,3.23170731707317,4,-0.0173913043478261,-44,-0.191304347826087,135,-0.658536585365854,
7977334,9902.34375,-3808,2.33476394849785,1264,0.77498467198038,-15728,9.64316370324954,33,3.47560975609756,-57,-2.01219512195122,-50,3.04878048780488,7,-0.0304347826086957,-49,-0.21304347826087,135,-0.658536585365854,
7977974,9921.875,-3936,2.41324340895156,1280,0.784794604537094,-15856,9.72164316370325,47,3.29268292682927,-54,-2.86585365853659,-46,2.80487804878049,3,-0.0130434782608696,-51,-0.221739130434783,135,-0.658536585365854,
7978614,9941.40625,-4048,2.48191293684856,1248,0.765174739423666,-15856,9.72164316370325,16,3.41463414634146,-56,-0.975609756097561,-42,2.5609756097561,4,-0.0173913043478261,-48,-0.208695652173913,134,-0.653658536585366,
7979254,9960.9375,-4128,2.53096259963213,1312,0.804414469650521,-15664,9.60392397302268,-13,2.68292682926829,-44,0.792682926829268,-28,1.70731707317073,3,-0.0130434782608696,-45,-0.195652173913043,134,-0.653658536585366,
7979894,9980.46875,-3984,2.4426732066217,1200,0.735744941753525,-15712,9.63335377069283,-30,2.01219512195122,-33,1.82926829268293,-12,0.731707317073171,6,-0.0260869565217391,-48,-0.208695652173913,135,-0.658536585365854,
7980534,10000,-3856,2.364193746168,1200,0.735744941753525,-15808,9.69221336603311,-12,1.76829268292683,-29,0.731707317073171,1,-0.0609756097560976,7,-0.0304347826086957,-51,-0.221739130434783,135,-0.658536585365854,
7981174,10019.53125,-3936,2.41324340895156,1136,0.696505211526671,-15872,9.73145309625996,-5,1.76829268292683,-29,0.304878048780488,1,-0.0609756097560976,6,-0.0260869565217391,-49,-0.21304347826087,136,-0.663414634146342,
7981814,10039.0625,-3888,2.38381361128142,976,0.598405885959534,-15920,9.7608828939301,-15,2.80487804878049,-46,0.914634146341463,-7,0.426829268292683,4,-0.0173913043478261,-52,-0.226086956521739,135,-0.658536585365854,
7982454,10058.59375,-3840,2.35438381361128,1040,0.637645616186389,-15904,9.75107296137339,-24,3.53658536585366,-58,1.46341463414634,-22,1.34146341463415,4,-0.0173913043478261,-43,-0.18695652173913,135,-0.658536585365854,
7983094,10078.125,-3776,2.31514408338443,1056,0.647455548743102,-15792,9.6824034334764,-8,3.47560975609756,-57,0.487804878048781,-30,1.82926829268293,5,-0.0217391304347826,-49,-0.21304347826087,137,-0.668292682926829,
7983734,10097.65625,-3792,2.32495401594114,1088,0.66707541385653,-15808,9.69221336603311,18,3.23170731707317,-53,-1.09756097560976,-26,1.58536585365854,5,-0.0217391304347826,-50,-0.217391304347826,137,-0.668292682926829,
7984374,10117.1875,-3856,2.364193746168,1216,0.745554874310239,-15808,9.69221336603311,33,2.19512195121951,-36,-2.01219512195122,-13,0.792682926829268,6,-0.0260869565217391,-48,-0.208695652173913,136,-0.663414634146342,
7985014,10136.71875,-3920,2.40343347639485,1104,0.676885346413243,-15728,9.64316370324954,23,2.25609756097561,-37,-1.40243902439024,-8,0.487804878048781,7,-0.0304347826086957,-53,-0.230434782608696,137,-0.668292682926829,
7985654,10156.25,-3984,2.4426732066217,1008,0.618025751072961,-15712,9.63335377069283,-5,2.68292682926829,-44,0.304878048780488,-7,0.426829268292683,7,-0.0304347826086957,-50,-0.217391304347826,135,-0.658536585365854,
7986294,10175.78125,-3920,2.40343347639485,1024,0.627835683629675,-15680,9.6137339055794,-40,2.98780487804878,-49,2.4390243902439,-16,0.975609756097561,7,-0.0304347826086957,-49,-0.21304347826087,135,-0.658536585365854,
7986934,10195.3125,-3792,2.32495401594114,1120,0.686695278969957,-15632,9.58430410790926,-40,3.23170731707317,-53,2.4390243902439,-21,1.28048780487805,5,-0.0217391304347826,-49,-0.21304347826087,133,-0.648780487804878,
7987574,10214.84375,-3808,2.33476394849785,1136,0.696505211526671,-15568,9.5450643776824,-15,2.86585365853659,-47,0.914634146341463,-16,0.975609756097561,4,-0.0173913043478261,-48,-0.208695652173913,135,-0.658536585365854,
7988214,10234.375,-3792,2.32495401594114,1152,0.706315144083384,-15728,9.64316370324954,12,2.13414634146341,-35,-0.731707317073171,-10,0.609756097560976,4,-0.0173913043478261,-51,-0.221739130434783,135,-0.658536585365854,
7988854,10253.90625,-3840,2.35438381361128,1168,0.716125076640098,-15664,9.60392397302268,18,1.46341463414634,-24,-1.09756097560976,1,-0.0609756097560976,5,-0.0217391304347826,-52,-0.226086956521739,136,-0.663414634146342,
7989494,10273.4375,-3904,2.39362354383814,1072,0.657265481299816,-15664,9.60392397302268,16,1.03658536585366,-17,-0.975609756097561,3,-0.182926829268293,4,-0.0173913043478261,-48,-0.208695652173913,134,-0.653658536585366,
7990134,10292.96875,-3888,2.38381361128142,1072,0.657265481299816,-15632,9.58430410790926,1,1.21951219512195,-20,-0.0609756097560976,6,-0.365853658536585,5,-0.0217391304347826,-50,-0.217391304347826,135,-0.658536585365854,
7990774,10312.5,-3872,2.37400367872471,976,0.598405885959534,-15728,9.64316370324954,-14,1.21951219512195,-20,0.853658536585366,6,-0.365853658536585,4,-0.0173913043478261,-48,-0.208695652173913,134,-0.653658536585366,
7991414,10332.03125,-3840,2.35438381361128,992,0.608215818516248,-15616,9.57449417535254,-21,0.975609756097561,-16,1.28048780487805,6,-0.365853658536585,5,-0.0217391304347826,-46,-0.2,136,-0.663414634146342,
7992054,10351.5625,-3792,2.32495401594114,912,0.559166155732679,-15744,9.65297363580625,-1,1.15853658536585,-19,0.0609756097560976,3,-0.182926829268293,5,-0.0217391304347826,-49,-0.21304347826087,137,-0.668292682926829,
7992694,10371.09375,-3824,2.34457388105457,1008,0.618025751072961,-15808,9.69221336603311,16,0.487804878048781,-8,-0.975609756097561,8,-0.487804878048781,6,-0.0260869565217391,-52,-0.226086956521739,137,-0.668292682926829,
7993334,10390.625,-3792,2.32495401594114,1024,0.627835683629675,-15856,9.72164316370325,14,0.670731707317073,-11,-0.853658536585366,10,-0.609756097560976,7,-0.0304347826086957,-53,-0.230434782608696,136,-0.663414634146342,
7993974,10410.15625,-3824,2.34457388105457,928,0.568976088289393,-15856,9.72164316370325,25,0.548780487804878,-9,-1.52439024390244,15,-0.914634146341463,6,-0.0260869565217391,-50,-0.217391304347826,135,-0.658536585365854,
7994614,10429.6875,-3920,2.40343347639485,912,0.559166155732679,-15888,9.74126302881668,19,0.487804878048781,-8,-1.15853658536585,19,-1.15853658536585,7,-0.0304347826086957,-49,-0.21304347826087,136,-0.663414634146342,
7995254,10449.21875,-3936,2.41324340895156,896,0.549356223175966,-15840,9.71183323114654,-8,1.15853658536585,-19,0.487804878048781,14,-0.853658536585366,7,-0.0304347826086957,-52,-0.226086956521739,136,-0.663414634146342,
7995894,10468.75,-3920,2.40343347639485,912,0.559166155732679,-15936,9.77069282648682,-17,1.40243902439024,-23,1.03658536585366,11,-0.670731707317073,5,-0.0217391304347826,-51,-0.221739130434783,136,-0.663414634146342,
7996534,10488.28125,-3824,2.34457388105457,944,0.578786020846107,-15936,9.77069282648682,1,1.95121951219512,-32,-0.0609756097560976,9,-0.548780487804878,6,-0.0260869565217391,-49,-0.21304347826087,136,-0.663414634146342,
7997174,10507.8125,-3824,2.34457388105457,896,0.549356223175966,-15856,9.72164316370325,1,2.13414634146341,-35,-0.0609756097560976,9,-0.548780487804878,6,-0.0260869565217391,-49,-0.21304347826087,136,-0.663414634146342,
7997814,10527.34375,-3792,2.32495401594114,960,0.58859595340282,-15792,9.6824034334764,-12,1.95121951219512,-32,0.731707317073171,6,-0.365853658536585,4,-0.0173913043478261,-53,-0.230434782608696,137,-0.668292682926829,
7998454,10546.875,-3776,2.31514408338443,976,0.598405885959534,-15712,9.63335377069283,-1,1.70731707317073,-28,0.0609756097560976,10,-0.609756097560976,6,-0.0260869565217391,-52,-0.226086956521739,137,-0.668292682926829,
7999094,10566.40625,-3744,2.295524218271,1024,0.627835683629675,-15744,9.65297363580625,11,1.09756097560976,-18,-0.670731707317073,12,-0.731707317073171,5,-0.0217391304347826,-48,-0.208695652173913,134,-0.653658536585366,
7999734,10585.9375,-3808,2.33476394849785,960,0.58859595340282,-15856,9.72164316370325,6,1.46341463414634,-24,-0.365853658536585,16,-0.975609756097561,6,-0.0260869565217391,-47,-0.204347826086957,135,-0.658536585365854,
8000374,10605.46875,-3776,2.31514408338443,928,0.568976088289393,-15904,9.75107296137339,-7,1.40243902439024,-23,0.426829268292683,14,-0.853658536585366,5,-0.0217391304347826,-49,-0.21304347826087,135,-0.658536585365854,
8001014,10625,-3696,2.26609442060086,896,0.549356223175966,-15888,9.74126302881668,-4,1.82926829268293,-30,0.24390243902439,10,-0.609756097560976,5,-0.0217391304347826,-46,-0.2,136,-0.663414634146342,
