Shimmer,Shimmer,Shimmer,Shimmer,Shimmer,Shimmer,Shimmer,Shimmer,Shimmer,Shimmer,Shimmer,Shimmer,Shimmer,Shimmer,Shimmer,Shimmer,Shimmer,Shimmer,Shimmer,Shimmer,
Timestamp,Timestamp,Wide Range Accelerometer X,Wide Range Accelerometer X,Wide Range Accelerometer Y,Wide Range Accelerometer Y,Wide Range Accelerometer Z,Wide Range Accelerometer Z,Gyroscope X,Gyroscope X,Gyroscope Y,Gyroscope Y,Gyroscope Z,Gyroscope Z,Magnetometer X,Magnetometer X,Magnetometer Y,Magnetometer Y,Magnetometer Z,Magnetometer Z,
RAW,CAL,RAW,CAL,RAW,CAL,RAW,CAL,RAW,CAL,RAW,CAL,RAW,CAL,RAW,CAL,RAW,CAL,RAW,CAL,
no units,mSecs,no units,m/(sec^2),no units,m/(sec^2),no units,m/(sec^2),no units,deg/sec,no units,deg/sec,no units,deg/sec,no units,local,no units,local,no units,local,
9730294,0,11856,-7.26916002452483,-10416,-6.3862660944206,-3072,1.88350705088903,-20,3.29268292682927,-54,1.21951219512195,-12,0.731707317073171,-105,0.456521739130435,40,0.173913043478261,124,-0.604878048780488,
9730934,19.53125,12032,-7.37706928264868,-10528,-6.4549356223176,-2976,1.82464745554874,-34,3.23170731707317,-53,2.07317073170732,-9,0.548780487804878,-106,0.460869565217391,45,0.195652173913043,124,-0.604878048780488,
9731574,39.0625,12112,-7.42611894543225,-10576,-6.48436541998774,-2928,1.7952176578786,-23,3.17073170731707,-52,1.40243902439024,-6,0.365853658536585,-107,0.465217391304348,45,0.195652173913043,125,-0.609756097560976,
9732214,58.59375,12048,-7.3868792152054,-10480,-6.42550582464746,-3008,1.84426732066217,6,3.23170731707317,-53,-0.365853658536585,-8,0.487804878048781,-107,0.465217391304348,46,0.2,124,-0.604878048780488,
9732854,78.125,11840,-7.25935009196812,-10416,-6.3862660944206,-3136,1.92274678111588,16,3.23170731707317,-53,-0.975609756097561,-9,0.548780487804878,-106,0.460869565217391,40,0.173913043478261,125,-0.609756097560976,
9733494,97.65625,11904,-7.29858982219497,-10416,-6.3862660944206,-3072,1.88350705088903,-2,3.35365853658537,-55,0.121951219512195,-15,0.914634146341463,-106,0.460869565217391,41,0.178260869565217,126,-0.614634146341463,
9734134,117.1875,11968,-7.33782955242183,-10480,-6.42550582464746,-2976,1.82464745554874,-21,3.29268292682927,-54,1.28048780487805,-16,0.975609756097561,-107,0.465217391304348,42,0.182608695652174,125,-0.609756097560976,
9734774,136.71875,11968,-7.33782955242183,-10496,-6.43531575720417,-2992,1.83445738810546,-21,3.53658536585366,-58,1.28048780487805,-11,0.670731707317073,-106,0.460869565217391,44,0.191304347826087,124,-0.604878048780488,
9735414,156.25,11968,-7.33782955242183,-10496,-6.43531575720417,-3008,1.84426732066217,-9,3.53658536585366,-58,0.548780487804878,-7,0.426829268292683,-105,0.456521739130435,41,0.178260869565217,125,-0.609756097560976,
9736054,175.78125,11968,-7.33782955242183,-10544,-6.46474555487431,-2992,1.83445738810546,-10,3.41463414634146,-56,0.609756097560976,-7,0.426829268292683,-106,0.460869565217391,43,0.18695652173913,126,-0.614634146341463,
9736694,195.3125,11904,-7.29858982219497,-10448,-6.40588595953403,-2992,1.83445738810546,-17,3.53658536585366,-58,1.03658536585366,-9,0.548780487804878,-105,0.456521739130435,43,0.18695652173913,125,-0.609756097560976,
9737334,214.84375,11872,-7.27896995708154,-10464,-6.41569589209074,-3104,1.90312691600245,-26,3.17073170731707,-52,1.58536585365854,-10,0.609756097560976,-107,0.465217391304348,47,0.204347826086957,124,-0.604878048780488,
9737974,234.375,11952,-7.32801961986511,-10464,-6.41569589209074,-3024,1.85407725321888,-28,3.41463414634146,-56,1.70731707317073,-5,0.304878048780488,-108,0.469565217391304,44,0.191304347826087,122,-0.595121951219512,
9738614,253.90625,12064,-7.39668914776211,-10448,-6.40588595953403,-2960,1.81483752299203,-20,2.98780487804878,-49,1.21951219512195,-3,0.182926829268293,-107,0.465217391304348,43,0.18695652173913,123,-0.6,
9739254,273.4375,12016,-7.36725935009197,-10448,-6.40588595953403,-3024,1.85407725321888,-7,2.4390243902439,-40,0.426829268292683,-4,0.24390243902439,-107,0.465217391304348,46,0.2,124,-0.604878048780488,
9739894,292.96875,12096,-7.41630901287554,-10432,-6.39607602697731,-3040,1.8638871857756,19,2.07317073170732,-34,-1.15853658536585,2,-0.121951219512195,-107,0.465217391304348,42,0.182608695652174,124,-0.604878048780488,
9740534,312.5,11968,-7.33782955242183,-10464,-6.41569589209074,-3008,1.84426732066217,26,1.58536585365854,-26,-1.58536585365854,3,-0.182926829268293,-107,0.465217391304348,44,0.191304347826087,125,-0.609756097560976,
9741174,332.03125,11888,-7.28877988963826,-10480,-6.42550582464746,-2992,1.83445738810546,8,1.82926829268293,-30,-0.487804878048781,-2,0.121951219512195,-106,0.460869565217391,44,0.191304347826087,124,-0.604878048780488,
9741814,351.5625,11968,-7.33782955242183,-10512,-6.44512568976088,-2976,1.82464745554874,1,2.01219512195122,-33,-0.0609756097560976,-1,0.0609756097560976,-107,0.465217391304348,41,0.178260869565217,125,-0.609756097560976,
9742454,371.09375,11952,-7.32801961986511,-10496,-6.43531575720417,-3056,1.87369711833231,-5,2.5609756097561,-42,0.304878048780488,2,-0.121951219512195,-109,0.473913043478261,44,0.191304347826087,124,-0.604878048780488,
9743094,390.625,11936,-7.3182096873084,-10400,-6.37645616186389,-3056,1.87369711833231,-13,2.74390243902439,-45,0.792682926829268,-1,0.0609756097560976,-107,0.465217391304348,42,0.182608695652174,123,-0.6,
9743734,410.15625,11952,-7.32801961986511,-10336,-6.33721643163703,-3008,1.84426732066217,-7,2.6219512195122,-43,0.426829268292683,-2,0.121951219512195,-107,0.465217391304348,47,0.204347826086957,123,-0.6,
9744374,429.6875,11984,-7.34763948497854,-10320,-6.32740649908032,-3008,1.84426732066217,0,2.37804878048781,-39,0,-3,0.182926829268293,-106,0.460869565217391,47,0.204347826086957,123,-0.6,
9745014,449.21875,12048,-7.3868792152054,-10384,-6.36664622930717,-2960,1.81483752299203,15,1.89024390243902,-31,-0.914634146341463,-4,0.24390243902439,-108,0.469565217391304,45,0.195652173913043,124,-0.604878048780488,
9745654,468.75,11984,-7.34763948497854,-10464,-6.41569589209074,-2928,1.7952176578786,23,1.76829268292683,-29,-1.40243902439024,-9,0.548780487804878,-106,0.460869565217391,43,0.18695652173913,125,-0.609756097560976,
9746294,488.28125,12032,-7.37706928264868,-10480,-6.42550582464746,-2976,1.82464745554874,24,1.89024390243902,-31,-1.46341463414634,-5,0.304878048780488,-107,0.465217391304348,42,0.182608695652174,125,-0.609756097560976,
9746934,507.8125,11936,-7.3182096873084,-10512,-6.44512568976088,-3008,1.84426732066217,20,2.25609756097561,-37,-1.21951219512195,-6,0.365853658536585,-107,0.465217391304348,41,0.178260869565217,125,-0.609756097560976,
9747574,527.34375,11888,-7.28877988963826,-10544,-6.46474555487431,-3008,1.84426732066217,23,2.37804878048781,-39,-1.40243902439024,-6,0.365853658536585,-105,0.456521739130435,42,0.182608695652174,124,-0.604878048780488,
9748214,546.875,11888,-7.28877988963826,-10496,-6.43531575720417,-2992,1.83445738810546,20,2.80487804878049,-46,-1.21951219512195,-6,0.365853658536585,-106,0.460869565217391,41,0.178260869565217,124,-0.604878048780488,
9748854,566.40625,11920,-7.30839975475169,-10496,-6.43531575720417,-3088,1.89331698344574,6,3.17073170731707,-52,-0.365853658536585,-4,0.24390243902439,-106,0.460869565217391,44,0.191304347826087,123,-0.6,
9749494,585.9375,12000,-7.35744941753525,-10464,-6.41569589209074,-3088,1.89331698344574,-6,3.47560975609756,-57,0.365853658536585,-7,0.426829268292683,-107,0.465217391304348,44,0.191304347826087,124,-0.604878048780488,
9750134,605.46875,11984,-7.34763948497854,-10432,-6.39607602697731,-3024,1.85407725321888,-2,3.71951219512195,-61,0.121951219512195,-10,0.609756097560976,-105,0.456521739130435,41,0.178260869565217,124,-0.604878048780488,
9750774,625,11968,-7.33782955242183,-10416,-6.3862660944206,-2992,1.83445738810546,4,3.59756097560976,-59,-0.24390243902439,-13,0.792682926829268,-106,0.460869565217391,43,0.18695652173913,123,-0.6,
9751414,644.53125,12080,-7.40649908031882,-10400,-6.37645616186389,-2976,1.82464745554874,1,3.78048780487805,-62,-0.0609756097560976,-12,0.731707317073171,-107,0.465217391304348,45,0.195652173913043,124,-0.604878048780488,
9752054,664.0625,12128,-7.43592887798896,-10448,-6.40588595953403,-3040,1.8638871857756,4,3.71951219512195,-61,-0.24390243902439,-11,0.670731707317073,-109,0.473913043478261,44,0.191304347826087,124,-0.604878048780488,
9752694,683.59375,12080,-7.40649908031882,-10464,-6.41569589209074,-3072,1.88350705088903,28,3.59756097560976,-59,-1.70731707317073,-9,0.548780487804878,-106,0.460869565217391,40,0.173913043478261,125,-0.609756097560976,
9753334,703.125,11952,-7.32801961986511,-10336,-6.33721643163703,-3104,1.90312691600245,54,3.71951219512195,-61,-3.29268292682927,-9,0.548780487804878,-105,0.456521739130435,40,0.173913043478261,126,-0.614634146341463,
9753974,722.65625,11888,-7.28877988963826,-10336,-6.33721643163703,-3056,1.87369711833231,33,3.78048780487805,-62,-2.01219512195122,-13,0.792682926829268,-106,0.460869565217391,45,0.195652173913043,124,-0.604878048780488,
9754614,742.1875,11904,-7.29858982219497,-10416,-6.3862660944206,-2960,1.81483752299203,3,3.71951219512195,-61,-0.182926829268293,-16,0.975609756097561,-106,0.460869565217391,45,0.195652173913043,123,-0.6,
9755254,761.71875,11904,-7.29858982219497,-10480,-6.42550582464746,-2992,1.83445738810546,1,4.14634146341463,-68,-0.0609756097560976,-17,1.03658536585366,-107,0.465217391304348,45,0.195652173913043,123,-0.6,
9755894,781.25,11984,-7.34763948497854,-10496,-6.43531575720417,-2992,1.83445738810546,-6,4.32926829268293,-71,0.365853658536585,-16,0.975609756097561,-108,0.469565217391304,41,0.178260869565217,127,-0.619512195121951,
9756534,800.78125,12016,-7.36725935009197,-10496,-6.43531575720417,-3008,1.84426732066217,-7,4.32926829268293,-71,0.426829268292683,-18,1.09756097560976,-110,0.478260869565217,47,0.204347826086957,124,-0.604878048780488,
9757174,820.3125,11984,-7.34763948497854,-10480,-6.42550582464746,-3088,1.89331698344574,-1,4.32926829268293,-71,0.0609756097560976,-19,1.15853658536585,-108,0.469565217391304,45,0.195652173913043,124,-0.604878048780488,
9757814,839.84375,11920,-7.30839975475169,-10464,-6.41569589209074,-3120,1.91293684855917,-3,4.45121951219512,-73,0.182926829268293,-21,1.28048780487805,-106,0.460869565217391,44,0.191304347826087,123,-0.6,
9758454,859.375,11920,-7.30839975475169,-10352,-6.34702636419375,-3056,1.87369711833231,-10,4.63414634146342,-76,0.609756097560976,-21,1.28048780487805,-107,0.465217391304348,45,0.195652173913043,124,-0.604878048780488,
9759094,878.90625,12000,-7.35744941753525,-10352,-6.34702636419375,-2960,1.81483752299203,-16,4.45121951219512,-73,0.975609756097561,-20,1.21951219512195,-108,0.469565217391304,48,0.208695652173913,123,-0.6,
9759734,898.4375,12048,-7.3868792152054,-10320,-6.32740649908032,-3008,1.84426732066217,-11,4.20731707317073,-69,0.670731707317073,-21,1.28048780487805,-106,0.460869565217391,40,0.173913043478261,126,-0.614634146341463,
9760374,917.96875,12016,-7.36725935009197,-10320,-6.32740649908032,-3104,1.90312691600245,-3,3.17073170731707,-52,0.182926829268293,-16,0.975609756097561,-107,0.465217391304348,44,0.191304347826087,125,-0.609756097560976,
9761014,937.5,11920,-7.30839975475169,-10368,-6.35683629675046,-2992,1.83445738810546,-9,3.10975609756098,-51,0.548780487804878,-14,0.853658536585366,-107,0.465217391304348,42,0.182608695652174,124,-0.604878048780488,
9761654,957.03125,11936,-7.3182096873084,-10464,-6.41569589209074,-2976,1.82464745554874,-4,3.04878048780488,-50,0.24390243902439,-11,0.670731707317073,-107,0.465217391304348,46,0.2,123,-0.6,
9762294,976.5625,11888,-7.28877988963826,-10432,-6.39607602697731,-3024,1.85407725321888,-9,2.80487804878049,-46,0.548780487804878,-12,0.731707317073171,-104,0.452173913043478,40,0.173913043478261,125,-0.609756097560976,
9762934,996.09375,11936,-7.3182096873084,-10368,-6.35683629675046,-3024,1.85407725321888,-12,2.80487804878049,-46,0.731707317073171,-11,0.670731707317073,-106,0.460869565217391,44,0.191304347826087,124,-0.604878048780488,
9763574,1015.625,12016,-7.36725935009197,-10352,-6.34702636419375,-2992,1.83445738810546,-10,2.5,-41,0.609756097560976,-10,0.609756097560976,-105,0.456521739130435,43,0.18695652173913,125,-0.609756097560976,
9764214,1035.15625,12016,-7.36725935009197,-10448,-6.40588595953403,-3056,1.87369711833231,-10,2.19512195121951,-36,0.609756097560976,-7,0.426829268292683,-107,0.465217391304348,44,0.191304347826087,123,-0.6,
9764854,1054.6875,12064,-7.39668914776211,-10432,-6.39607602697731,-3056,1.87369711833231,-7,2.37804878048781,-39,0.426829268292683,-8,0.487804878048781,-108,0.469565217391304,47,0.204347826086957,124,-0.604878048780488,
9765494,1074.21875,12048,-7.3868792152054,-10384,-6.36664622930717,-3072,1.88350705088903,-11,2.25609756097561,-37,0.670731707317073,-6,0.365853658536585,-106,0.460869565217391,42,0.182608695652174,124,-0.604878048780488,
9766134,1093.75,11936,-7.3182096873084,-10384,-6.36664622930717,-3072,1.88350705088903,-18,2.19512195121951,-36,1.09756097560976,-11,0.670731707317073,-106,0.460869565217391,40,0.173913043478261,125,-0.609756097560976,
9766774,1113.28125,11936,-7.3182096873084,-10464,-6.41569589209074,-3136,1.92274678111588,-16,2.25609756097561,-37,0.975609756097561,-7,0.426829268292683,-107,0.465217391304348,41,0.178260869565217,126,-0.614634146341463,
9767414,1132.8125,11952,-7.32801961986511,-10416,-6.3862660944206,-3088,1.89331698344574,-11,2.07317073170732,-34,0.670731707317073,-7,0.426829268292683,-109,0.473913043478261,44,0.191304347826087,125,-0.609756097560976,
9768054,1152.34375,12016,-7.36725935009197,-10432,-6.39607602697731,-3040,1.8638871857756,-12,2.37804878048781,-39,0.731707317073171,-6,0.365853658536585,-109,0.473913043478261,46,0.2,124,-0.604878048780488,
9768694,1171.875,11968,-7.33782955242183,-10480,-6.42550582464746,-3088,1.89331698344574,-11,2.13414634146341,-35,0.670731707317073,-4,0.24390243902439,-108,0.469565217391304,46,0.2,123,-0.6,
9769334,1191.40625,11968,-7.33782955242183,-10416,-6.3862660944206,-3088,1.89331698344574,-24,2.19512195121951,-36,1.46341463414634,-4,0.24390243902439,-107,0.465217391304348,47,0.204347826086957,124,-0.604878048780488,
9769974,1210.9375,11952,-7.32801961986511,-10368,-6.35683629675046,-3136,1.92274678111588,-18,2.25609756097561,-37,1.09756097560976,-6,0.365853658536585,-108,0.469565217391304,43,0.18695652173913,124,-0.604878048780488,
9770614,1230.46875,12000,-7.35744941753525,-10384,-6.36664622930717,-3120,1.91293684855917,-6,1.76829268292683,-29,0.365853658536585,-4,0.24390243902439,-108,0.469565217391304,47,0.204347826086957,123,-0.6,
9771254,1250,11984,-7.34763948497854,-10368,-6.35683629675046,-3056,1.87369711833231,-7,1.64634146341463,-27,0.426829268292683,-4,0.24390243902439,-109,0.473913043478261,49,0.21304347826087,125,-0.609756097560976,
9771894,1269.53125,12016,-7.36725935009197,-10432,-6.39607602697731,-3088,1.89331698344574,-7,1.76829268292683,-29,0.426829268292683,-1,0.0609756097560976,-106,0.460869565217391,44,0.191304347826087,124,-0.604878048780488,
9772534,1289.0625,12112,-7.42611894543225,-10464,-6.41569589209074,-3120,1.91293684855917,12,2.19512195121951,-36,-0.731707317073171,-2,0.121951219512195,-106,0.460869565217391,43,0.18695652173913,124,-0.604878048780488,
9773174,1308.59375,12064,-7.39668914776211,-10368,-6.35683629675046,-3088,1.89331698344574,18,2.37804878048781,-39,-1.09756097560976,-2,0.121951219512195,-106,0.460869565217391,42,0.182608695652174,126,-0.614634146341463,
9773814,1328.125,11936,-7.3182096873084,-10336,-6.33721643163703,-3168,1.94236664622931,4,2.80487804878049,-46,-0.24390243902439,-7,0.426829268292683,-107,0.465217391304348,41,0.178260869565217,125,-0.609756097560976,
9774454,1347.65625,11984,-7.34763948497854,-10240,-6.27835683629675,-3072,1.88350705088903,-20,3.10975609756098,-51,1.21951219512195,-15,0.914634146341463,-105,0.456521739130435,43,0.18695652173913,124,-0.604878048780488,
9775094,1367.1875,12016,-7.36725935009197,-10256,-6.28816676885346,-3088,1.89331698344574,-13,3.10975609756098,-51,0.792682926829268,-10,0.609756097560976,-107,0.465217391304348,47,0.204347826086957,124,-0.604878048780488,
9775734,1386.71875,12016,-7.36725935009197,-10304,-6.3175965665236,-3152,1.93255671367259,1,2.5609756097561,-42,-0.0609756097560976,-6,0.365853658536585,-108,0.469565217391304,40,0.173913043478261,125,-0.609756097560976,
9776374,1406.25,12016,-7.36725935009197,-10368,-6.35683629675046,-3024,1.85407725321888,6,2.4390243902439,-40,-0.365853658536585,-5,0.304878048780488,-107,0.465217391304348,42,0.182608695652174,124,-0.604878048780488,
9777014,1425.78125,12032,-7.37706928264868,-10448,-6.40588595953403,-3040,1.8638871857756,14,2.5609756097561,-42,-0.853658536585366,-6,0.365853658536585,-108,0.469565217391304,42,0.182608695652174,124,-0.604878048780488,
9777654,1445.3125,11904,-7.29858982219497,-10448,-6.40588595953403,-3040,1.8638871857756,16,2.5609756097561,-42,-0.975609756097561,-3,0.182926829268293,-106,0.460869565217391,44,0.191304347826087,124,-0.604878048780488,
9778294,1464.84375,11776,-7.22011036174126,-10464,-6.41569589209074,-3040,1.8638871857756,-2,2.98780487804878,-49,0.121951219512195,-1,0.0609756097560976,-107,0.465217391304348,43,0.18695652173913,124,-0.604878048780488,
9778934,1484.375,11808,-7.23973022685469,-10480,-6.42550582464746,-3024,1.85407725321888,-22,3.78048780487805,-62,1.34146341463415,-2,0.121951219512195,-108,0.469565217391304,43,0.18695652173913,125,-0.609756097560976,
9779574,1503.90625,11872,-7.27896995708154,-10528,-6.4549356223176,-3024,1.85407725321888,-27,4.20731707317073,-69,1.64634146341463,2,-0.121951219512195,-106,0.460869565217391,40,0.173913043478261,126,-0.614634146341463,
9780214,1523.4375,11872,-7.27896995708154,-10464,-6.41569589209074,-3040,1.8638871857756,-27,4.45121951219512,-73,1.64634146341463,4,-0.24390243902439,-107,0.465217391304348,42,0.182608695652174,123,-0.6,
9780854,1542.96875,11872,-7.27896995708154,-10464,-6.41569589209074,-3120,1.91293684855917,-33,4.51219512195122,-74,2.01219512195122,0,0,-108,0.469565217391304,45,0.195652173913043,123,-0.6,
9781494,1562.5,11936,-7.3182096873084,-10464,-6.41569589209074,-3120,1.91293684855917,-40,5,-82,2.4390243902439,-4,0.24390243902439,-106,0.460869565217391,42,0.182608695652174,124,-0.604878048780488,
9782134,1582.03125,12064,-7.39668914776211,-10432,-6.39607602697731,-3152,1.93255671367259,-38,5.1219512195122,-84,2.31707317073171,-4,0.24390243902439,-107,0.465217391304348,47,0.204347826086957,123,-0.6,
9782774,1601.5625,12080,-7.40649908031882,-10416,-6.3862660944206,-3056,1.87369711833231,-25,5.18292682926829,-85,1.52439024390244,-1,0.0609756097560976,-107,0.465217391304348,43,0.18695652173913,124,-0.604878048780488,
9783414,1621.09375,12064,-7.39668914776211,-10352,-6.34702636419375,-3056,1.87369711833231,-13,5.1219512195122,-84,0.792682926829268,-1,0.0609756097560976,-107,0.465217391304348,47,0.204347826086957,124,-0.604878048780488,
9784054,1640.625,12048,-7.3868792152054,-10384,-6.36664622930717,-3056,1.87369711833231,-7,4.57317073170732,-75,0.426829268292683,-1,0.0609756097560976,-108,0.469565217391304,41,0.178260869565217,126,-0.614634146341463,
9784694,1660.15625,12000,-7.35744941753525,-10400,-6.37645616186389,-3040,1.8638871857756,0,4.26829268292683,-70,0,2,-0.121951219512195,-107,0.465217391304348,40,0.173913043478261,125,-0.609756097560976,
9785334,1679.6875,11984,-7.34763948497854,-10368,-6.35683629675046,-3040,1.8638871857756,2,3.84146341463415,-63,-0.121951219512195,1,-0.0609756097560976,-107,0.465217391304348,46,0.2,124,-0.604878048780488,
9785974,1699.21875,12000,-7.35744941753525,-10400,-6.37645616186389,-2976,1.82464745554874,-3,3.47560975609756,-57,0.182926829268293,2,-0.121951219512195,-108,0.469565217391304,42,0.182608695652174,126,-0.614634146341463,
9786614,1718.75,12000,-7.35744941753525,-10432,-6.39607602697731,-3088,1.89331698344574,-4,3.41463414634146,-56,0.24390243902439,2,-0.121951219512195,-107,0.465217391304348,45,0.195652173913043,125,-0.609756097560976,
9787254,1738.28125,12000,-7.35744941753525,-10464,-6.41569589209074,-3168,1.94236664622931,-5,3.65853658536585,-60,0.304878048780488,-2,0.121951219512195,-107,0.465217391304348,44,0.191304347826087,124,-0.604878048780488,
9787894,1757.8125,12064,-7.39668914776211,-10384,-6.36664622930717,-3248,1.99141630901288,-3,3.59756097560976,-59,0.182926829268293,-5,0.304878048780488,-109,0.473913043478261,49,0.21304347826087,123,-0.6,
9788534,1777.34375,12016,-7.36725935009197,-10336,-6.33721643163703,-3104,1.90312691600245,6,3.71951219512195,-61,-0.365853658536585,-5,0.304878048780488,-106,0.460869565217391,43,0.18695652173913,124,-0.604878048780488,
9789174,1796.875,12016,-7.36725935009197,-10320,-6.32740649908032,-3072,1.88350705088903,4,3.53658536585366,-58,-0.24390243902439,-1,0.0609756097560976,-108,0.469565217391304,42,0.182608695652174,123,-0.6,
9789814,1816.40625,12000,-7.35744941753525,-10368,-6.35683629675046,-2976,1.82464745554874,7,3.10975609756098,-51,-0.426829268292683,-2,0.121951219512195,-108,0.469565217391304,45,0.195652173913043,124,-0.604878048780488,
9790454,1835.9375,11888,-7.28877988963826,-10320,-6.32740649908032,-2960,1.81483752299203,11,3.04878048780488,-50,-0.670731707317073,1,-0.0609756097560976,-107,0.465217391304348,46,0.2,123,-0.6,
9791094,1855.46875,11872,-7.27896995708154,-10352,-6.34702636419375,-2944,1.80502759043532,-1,2.4390243902439,-40,0.0609756097560976,-3,0.182926829268293,-108,0.469565217391304,47,0.204347826086957,122,-0.595121951219512,
9791734,1875,12000,-7.35744941753525,-10368,-6.35683629675046,-3008,1.84426732066217,0,2.25609756097561,-37,0,0,0,-108,0.469565217391304,44,0.191304347826087,124,-0.604878048780488,
9792374,1894.53125,12096,-7.41630901287554,-10448,-6.40588595953403,-3104,1.90312691600245,15,2.13414634146341,-35,-0.914634146341463,5,-0.304878048780488,-105,0.456521739130435,43,0.18695652173913,125,-0.609756097560976,
9793014,1914.0625,12048,-7.3868792152054,-10480,-6.42550582464746,-3184,1.95217657878602,31,2.31707317073171,-38,-1.89024390243902,3,-0.182926829268293,-108,0.469565217391304,40,0.173913043478261,126,-0.614634146341463,
9793654,1933.59375,11904,-7.29858982219497,-10416,-6.3862660944206,-3056,1.87369711833231,29,2.07317073170732,-34,-1.76829268292683,-3,0.182926829268293,-107,0.465217391304348,43,0.18695652173913,123,-0.6,
9794294,1953.125,11936,-7.3182096873084,-10384,-6.36664622930717,-3056,1.87369711833231,23,2.19512195121951,-36,-1.40243902439024,-7,0.426829268292683,-107,0.465217391304348,42,0.182608695652174,125,-0.609756097560976,
9794934,1972.65625,11840,-7.25935009196812,-10432,-6.39607602697731,-3008,1.84426732066217,9,2.31707317073171,-38,-0.548780487804878,-6,0.365853658536585,-107,0.465217391304348,44,0.191304347826087,125,-0.609756097560976,
9795574,1992.1875,11936,-7.3182096873084,-10448,-6.40588595953403,-3056,1.87369711833231,6,2.5,-41,-0.365853658536585,-7,0.426829268292683,-108,0.469565217391304,45,0.195652173913043,123,-0.6,
9796214,2011.71875,11968,-7.33782955242183,-10464,-6.41569589209074,-3056,1.87369711833231,1,2.4390243902439,-40,-0.0609756097560976,-4,0.24390243902439,-108,0.469565217391304,45,0.195652173913043,123,-0.6,
9796854,2031.25,12016,-7.36725935009197,-10528,-6.4549356223176,-3136,1.92274678111588,4,2.5609756097561,-42,-0.24390243902439,-4,0.24390243902439,-107,0.465217391304348,41,0.178260869565217,125,-0.609756097560976,
9797494,2050.78125,12000,-7.35744941753525,-10480,-6.42550582464746,-3184,1.95217657878602,8,2.98780487804878,-49,-0.487804878048781,-10,0.609756097560976,-108,0.469565217391304,48,0.208695652173913,123,-0.6,
9798134,2070.3125,11888,-7.28877988963826,-10400,-6.37645616186389,-3120,1.91293684855917,9,3.10975609756098,-51,-0.548780487804878,-12,0.731707317073171,-110,0.478260869565217,43,0.18695652173913,124,-0.604878048780488,
9798774,2089.84375,11936,-7.3182096873084,-10432,-6.39607602697731,-3088,1.89331698344574,-1,3.23170731707317,-53,0.0609756097560976,-10,0.609756097560976,-107,0.465217391304348,42,0.182608695652174,125,-0.609756097560976,
9799414,2109.375,11952,-7.32801961986511,-10352,-6.34702636419375,-3008,1.84426732066217,-4,3.23170731707317,-53,0.24390243902439,-10,0.609756097560976,-105,0.456521739130435,40,0.173913043478261,126,-0.614634146341463,
9800054,2128.90625,12032,-7.37706928264868,-10416,-6.3862660944206,-3056,1.87369711833231,9,3.04878048780488,-50,-0.548780487804878,-7,0.426829268292683,-106,0.460869565217391,41,0.178260869565217,125,-0.609756097560976,
9800694,2148.4375,12032,-7.37706928264868,-10416,-6.3862660944206,-3056,1.87369711833231,16,2.98780487804878,-49,-0.975609756097561,-8,0.487804878048781,-109,0.473913043478261,45,0.195652173913043,124,-0.604878048780488,
9801334,2167.96875,11952,-7.32801961986511,-10480,-6.42550582464746,-3120,1.91293684855917,15,2.92682926829268,-48,-0.914634146341463,-5,0.304878048780488,-108,0.469565217391304,45,0.195652173913043,124,-0.604878048780488,
9801974,2187.5,11840,-7.25935009196812,-10448,-6.40588595953403,-3104,1.90312691600245,4,2.92682926829268,-48,-0.24390243902439,-10,0.609756097560976,-107,0.465217391304348,43,0.18695652173913,123,-0.6,
9802614,2207.03125,11888,-7.28877988963826,-10464,-6.41569589209074,-3072,1.88350705088903,0,3.10975609756098,-51,0,-11,0.670731707317073,-107,0.465217391304348,42,0.182608695652174,124,-0.604878048780488,
9803254,2226.5625,12000,-7.35744941753525,-10480,-6.42550582464746,-3104,1.90312691600245,-1,3.29268292682927,-54,0.0609756097560976,-12,0.731707317073171,-109,0.473913043478261,45,0.195652173913043,123,-0.6,
9803894,2246.09375,12016,-7.36725935009197,-10528,-6.4549356223176,-3152,1.93255671367259,10,3.35365853658537,-55,-0.609756097560976,-11,0.670731707317073,-108,0.469565217391304,46,0.2,124,-0.604878048780488,
9804534,2265.625,12000,-7.35744941753525,-10432,-6.39607602697731,-3104,1.90312691600245,15,3.47560975609756,-57,-0.914634146341463,-10,0.609756097560976,-107,0.465217391304348,45,0.195652173913043,125,-0.609756097560976,
9805174,2285.15625,11968,-7.33782955242183,-10464,-6.41569589209074,-3168,1.94236664622931,0,3.71951219512195,-61,0,-12,0.731707317073171,-107,0.465217391304348,44,0.191304347826087,125,-0.609756097560976,
9805814,2304.6875,11952,-7.32801961986511,-10416,-6.3862660944206,-3104,1.90312691600245,-7,3.84146341463415,-63,0.426829268292683,-11,0.670731707317073,-105,0.456521739130435,40,0.173913043478261,126,-0.614634146341463,
9806454,2324.21875,12032,-7.37706928264868,-10368,-6.35683629675046,-3104,1.90312691600245,-5,3.90243902439024,-64,0.304878048780488,-8,0.487804878048781,-106,0.460869565217391,48,0.208695652173913,123,-0.6,
9807094,2343.75,11984,-7.34763948497854,-10336,-6.33721643163703,-3088,1.89331698344574,-3,3.53658536585366,-58,0.182926829268293,-8,0.487804878048781,-109,0.473913043478261,43,0.18695652173913,124,-0.604878048780488,
9807734,2363.28125,12032,-7.37706928264868,-10320,-6.32740649908032,-3088,1.89331698344574,13,2.6219512195122,-43,-0.792682926829268,-10,0.609756097560976,-105,0.456521739130435,44,0.191304347826087,124,-0.604878048780488,
9808374,2382.8125,11968,-7.33782955242183,-10416,-6.3862660944206,-3072,1.88350705088903,21,2.31707317073171,-38,-1.28048780487805,-3,0.182926829268293,-108,0.469565217391304,45,0.195652173913043,125,-0.609756097560976,
9809014,2402.34375,11952,-7.32801961986511,-10496,-6.43531575720417,-3136,1.92274678111588,21,2.31707317073171,-38,-1.28048780487805,1,-0.0609756097560976,-106,0.460869565217391,43,0.18695652173913,125,-0.609756097560976,
9809654,2421.875,11872,-7.27896995708154,-10592,-6.49417535254445,-3088,1.89331698344574,11,2.74390243902439,-45,-0.670731707317073,-3,0.182926829268293,-108,0.469565217391304,43,0.18695652173913,123,-0.6,
9810294,2441.40625,11808,-7.23973022685469,-10512,-6.44512568976088,-3136,1.92274678111588,5,3.10975609756098,-51,-0.304878048780488,-6,0.365853658536585,-105,0.456521739130435,43,0.18695652173913,125,-0.609756097560976,
9810934,2460.9375,11776,-7.22011036174126,-10480,-6.42550582464746,-3104,1.90312691600245,-22,2.92682926829268,-48,1.34146341463415,-7,0.426829268292683,-108,0.469565217391304,44,0.191304347826087,123,-0.6,
9811574,2480.46875,11808,-7.23973022685469,-10464,-6.41569589209074,-2992,1.83445738810546,-41,3.53658536585366,-58,2.5,-4,0.24390243902439,-107,0.465217391304348,43,0.18695652173913,124,-0.604878048780488,
9812214,2500,12096,-7.41630901287554,-10560,-6.47455548743102,-3056,1.87369711833231,-24,3.47560975609756,-57,1.46341463414634,4,-0.24390243902439,-105,0.456521739130435,40,0.173913043478261,126,-0.614634146341463,
9812854,2519.53125,12048,-7.3868792152054,-10416,-6.3862660944206,-3136,1.92274678111588,-1,3.71951219512195,-61,0.0609756097560976,6,-0.365853658536585,-105,0.456521739130435,40,0.173913043478261,125,-0.609756097560976,
9813494,2539.0625,11984,-7.34763948497854,-10416,-6.3862660944206,-3120,1.91293684855917,15,3.17073170731707,-52,-0.914634146341463,4,-0.24390243902439,-107,0.465217391304348,45,0.195652173913043,125,-0.609756097560976,
9814134,2558.59375,11936,-7.3182096873084,-10368,-6.35683629675046,-3184,1.95217657878602,5,3.17073170731707,-52,-0.304878048780488,0,0,-107,0.465217391304348,45,0.195652173913043,124,-0.604878048780488,
9814774,2578.125,11936,-7.3182096873084,-10352,-6.34702636419375,-3152,1.93255671367259,-4,3.10975609756098,-51,0.24390243902439,-4,0.24390243902439,-106,0.460869565217391,44,0.191304347826087,124,-0.604878048780488,
9815414,2597.65625,11952,-7.32801961986511,-10400,-6.37645616186389,-3184,1.95217657878602,-4,3.23170731707317,-53,0.24390243902439,-3,0.182926829268293,-108,0.469565217391304,48,0.208695652173913,124,-0.604878048780488,
9816054,2617.1875,11952,-7.32801961986511,-10416,-6.3862660944206,-3104,1.90312691600245,5,2.98780487804878,-49,-0.304878048780488,-2,0.121951219512195,-108,0.469565217391304,44,0.191304347826087,124,-0.604878048780488,
9816694,2636.71875,11984,-7.34763948497854,-10416,-6.3862660944206,-3168,1.94236664622931,5,2.92682926829268,-48,-0.304878048780488,-1,0.0609756097560976,-107,0.465217391304348,45,0.195652173913043,124,-0.604878048780488,
9817334,2656.25,11984,-7.34763948497854,-10352,-6.34702636419375,-3216,1.97179644389945,10,3.04878048780488,-50,-0.609756097560976,0,0,-106,0.460869565217391,47,0.204347826086957,124,-0.604878048780488,
9817974,2675.78125,11904,-7.29858982219497,-10400,-6.37645616186389,-3168,1.94236664622931,3,2.86585365853659,-47,-0.182926829268293,0,0,-108,0.469565217391304,45,0.195652173913043,124,-0.604878048780488,
9818614,2695.3125,11872,-7.27896995708154,-10416,-6.3862660944206,-3136,1.92274678111588,-12,3.10975609756098,-51,0.731707317073171,-4,0.24390243902439,-107,0.465217391304348,43,0.18695652173913,124,-0.604878048780488,
9819254,2714.84375,11984,-7.34763948497854,-10448,-6.40588595953403,-3136,1.92274678111588,-5,3.29268292682927,-54,0.304878048780488,-3,0.182926829268293,-108,0.469565217391304,43,0.18695652173913,125,-0.609756097560976,
9819894,2734.375,12016,-7.36725935009197,-10464,-6.41569589209074,-3184,1.95217657878602,4,3.17073170731707,-52,-0.24390243902439,-5,0.304878048780488,-107,0.465217391304348,44,0.191304347826087,123,-0.6,
9820534,2753.90625,11968,-7.33782955242183,-10464,-6.41569589209074,-3184,1.95217657878602,6,2.98780487804878,-49,-0.365853658536585,-5,0.304878048780488,-108,0.469565217391304,46,0.2,124,-0.604878048780488,
9821174,2773.4375,11968,-7.33782955242183,-10432,-6.39607602697731,-3136,1.92274678111588,10,2.86585365853659,-47,-0.609756097560976,-5,0.304878048780488,-108,0.469565217391304,47,0.204347826086957,123,-0.6,
9821814,2792.96875,11968,-7.33782955242183,-10320,-6.32740649908032,-3184,1.95217657878602,8,3.04878048780488,-50,-0.487804878048781,-10,0.609756097560976,-106,0.460869565217391,42,0.182608695652174,123,-0.6,
9822454,2812.5,11984,-7.34763948497854,-10416,-6.3862660944206,-3184,1.95217657878602,10,2.92682926829268,-48,-0.609756097560976,-9,0.548780487804878,-107,0.465217391304348,45,0.195652173913043,124,-0.604878048780488,
9823094,2832.03125,11920,-7.30839975475169,-10384,-6.36664622930717,-3104,1.90312691600245,7,2.86585365853659,-47,-0.426829268292683,-10,0.609756097560976,-106,0.460869565217391,45,0.195652173913043,124,-0.604878048780488,
9823734,2851.5625,12000,-7.35744941753525,-10400,-6.37645616186389,-3024,1.85407725321888,9,2.6219512195122,-43,-0.548780487804878,-11,0.670731707317073,-104,0.452173913043478,40,0.173913043478261,126,-0.614634146341463,
9824374,2871.09375,11856,-7.26916002452483,-10464,-6.41569589209074,-3136,1.92274678111588,13,2.5609756097561,-42,-0.792682926829268,-7,0.426829268292683,-107,0.465217391304348,45,0.195652173913043,126,-0.614634146341463,
9825014,2890.625,11968,-7.33782955242183,-10512,-6.44512568976088,-3024,1.85407725321888,9,2.68292682926829,-44,-0.548780487804878,-8,0.487804878048781,-105,0.456521739130435,43,0.18695652173913,126,-0.614634146341463,
9825654,2910.15625,11904,-7.29858982219497,-10464,-6.41569589209074,-3136,1.92274678111588,4,2.74390243902439,-45,-0.24390243902439,-12,0.731707317073171,-107,0.465217391304348,41,0.178260869565217,126,-0.614634146341463,
9826294,2929.6875,11888,-7.28877988963826,-10448,-6.40588595953403,-3168,1.94236664622931,-5,2.98780487804878,-49,0.304878048780488,-7,0.426829268292683,-105,0.456521739130435,42,0.182608695652174,124,-0.604878048780488,
9826934,2949.21875,11952,-7.32801961986511,-10480,-6.42550582464746,-3184,1.95217657878602,-9,2.86585365853659,-47,0.548780487804878,-12,0.731707317073171,-107,0.465217391304348,45,0.195652173913043,123,-0.6,
9827574,2968.75,11968,-7.33782955242183,-10464,-6.41569589209074,-3152,1.93255671367259,-4,3.04878048780488,-50,0.24390243902439,-10,0.609756097560976,-108,0.469565217391304,46,0.2,124,-0.604878048780488,
9828214,2988.28125,11856,-7.26916002452483,-10512,-6.44512568976088,-3136,1.92274678111588,-1,3.23170731707317,-53,0.0609756097560976,-8,0.487804878048781,-106,0.460869565217391,47,0.204347826086957,124,-0.604878048780488,
9828854,3007.8125,11840,-7.25935009196812,-10496,-6.43531575720417,-3216,1.97179644389945,-1,3.29268292682927,-54,0.0609756097560976,-3,0.182926829268293,-107,0.465217391304348,42,0.182608695652174,124,-0.604878048780488,
9829494,3027.34375,11872,-7.27896995708154,-10496,-6.43531575720417,-3040,1.8638871857756,-11,3.17073170731707,-52,0.670731707317073,-2,0.121951219512195,-108,0.469565217391304,48,0.208695652173913,124,-0.604878048780488,
9830134,3046.875,11824,-7.2495401594114,-10432,-6.39607602697731,-2976,1.82464745554874,-11,3.10975609756098,-51,0.670731707317073,-7,0.426829268292683,-107,0.465217391304348,42,0.182608695652174,125,-0.609756097560976,
9830774,3066.40625,11872,-7.27896995708154,-10368,-6.35683629675046,-3040,1.8638871857756,-13,2.74390243902439,-45,0.792682926829268,-4,0.24390243902439,-106,0.460869565217391,41,0.178260869565217,125,-0.609756097560976,
9831414,3085.9375,11920,-7.30839975475169,-10496,-6.43531575720417,-3056,1.87369711833231,-24,2.92682926829268,-48,1.46341463414634,-3,0.182926829268293,-106,0.460869565217391,44,0.191304347826087,123,-0.6,
9832054,3105.46875,12032,-7.37706928264868,-10528,-6.4549356223176,-3104,1.90312691600245,-21,2.80487804878049,-46,1.28048780487805,0,0,-105,0.456521739130435,40,0.173913043478261,125,-0.609756097560976,
9832694,3125,12064,-7.39668914776211,-10544,-6.46474555487431,-3088,1.89331698344574,-1,3.10975609756098,-51,0.0609756097560976,5,-0.304878048780488,-108,0.469565217391304,46,0.2,125,-0.609756097560976,
9833334,3144.53125,11968,-7.33782955242183,-10400,-6.37645616186389,-3136,1.92274678111588,17,2.98780487804878,-49,-1.03658536585366,3,-0.182926829268293,-108,0.469565217391304,45,0.195652173913043,124,-0.604878048780488,
9833974,3164.0625,11888,-7.28877988963826,-10416,-6.3862660944206,-3184,1.95217657878602,5,3.04878048780488,-50,-0.304878048780488,-4,0.24390243902439,-109,0.473913043478261,44,0.191304347826087,124,-0.604878048780488,
9834614,3183.59375,11840,-7.25935009196812,-10368,-6.35683629675046,-3200,1.96198651134273,-13,2.98780487804878,-49,0.792682926829268,-7,0.426829268292683,-108,0.469565217391304,48,0.208695652173913,123,-0.6,
9835254,3203.125,11952,-7.32801961986511,-10464,-6.41569589209074,-3120,1.91293684855917,-11,3.29268292682927,-54,0.670731707317073,-7,0.426829268292683,-105,0.456521739130435,40,0.173913043478261,126,-0.614634146341463,
9835894,3222.65625,11904,-7.29858982219497,-10400,-6.37645616186389,-3216,1.97179644389945,-8,3.10975609756098,-51,0.487804878048781,0,0,-106,0.460869565217391,42,0.182608695652174,125,-0.609756097560976,
9836534,3242.1875,11952,-7.32801961986511,-10512,-6.44512568976088,-3200,1.96198651134273,-11,2.92682926829268,-48,0.670731707317073,0,0,-105,0.456521739130435,43,0.18695652173913,125,-0.609756097560976,
9837174,3261.71875,12000,-7.35744941753525,-10464,-6.41569589209074,-3152,1.93255671367259,-7,2.86585365853659,-47,0.426829268292683,0,0,-105,0.456521739130435,40,0.173913043478261,126,-0.614634146341463,
9837814,3281.25,12000,-7.35744941753525,-10400,-6.37645616186389,-3232,1.98160637645616,-2,2.74390243902439,-45,0.121951219512195,-9,0.548780487804878,-105,0.456521739130435,44,0.191304347826087,124,-0.604878048780488,
9838454,3300.78125,12000,-7.35744941753525,-10400,-6.37645616186389,-3184,1.95217657878602,4,2.92682926829268,-48,-0.24390243902439,-9,0.548780487804878,-105,0.456521739130435,42,0.182608695652174,125,-0.609756097560976,
9839094,3320.3125,12016,-7.36725935009197,-10384,-6.36664622930717,-3168,1.94236664622931,6,2.5609756097561,-42,-0.365853658536585,-6,0.365853658536585,-108,0.469565217391304,48,0.208695652173913,124,-0.604878048780488,
9839734,3339.84375,12176,-7.4653586756591,-10400,-6.37645616186389,-3264,2.00122624156959,27,1.89024390243902,-31,-1.64634146341463,-3,0.182926829268293,-107,0.465217391304348,44,0.191304347826087,124,-0.604878048780488,
9840374,3359.375,12160,-7.45554874310239,-10320,-6.32740649908032,-3248,1.99141630901288,60,1.52439024390244,-25,-3.65853658536585,6,-0.365853658536585,-107,0.465217391304348,41,0.178260869565217,122,-0.595121951219512,
9841014,3378.90625,11968,-7.33782955242183,-10320,-6.32740649908032,-3296,2.02084610668302,68,1.09756097560976,-18,-4.14634146341463,11,-0.670731707317073,-108,0.469565217391304,45,0.195652173913043,123,-0.6,
9841654,3398.4375,12016,-7.36725935009197,-10336,-6.33721643163703,-3216,1.97179644389945,60,0.914634146341463,-15,-3.65853658536585,-3,0.182926829268293,-105,0.456521739130435,41,0.178260869565217,126,-0.614634146341463,
9842294,3417.96875,11952,-7.32801961986511,-10368,-6.35683629675046,-3264,2.00122624156959,63,0.24390243902439,-4,-3.84146341463415,-6,0.365853658536585,-106,0.460869565217391,46,0.2,125,-0.609756097560976,
9842934,3437.5,12272,-7.52421827099939,-10304,-6.3175965665236,-3296,2.02084610668302,58,-0.853658536585366,14,-3.53658536585366,-6,0.365853658536585,-107,0.465217391304348,46,0.2,124,-0.604878048780488,
9843574,3457.03125,12624,-7.74003678724709,-10368,-6.35683629675046,-3280,2.0110361741263,117,-1.70731707317073,28,-7.13414634146342,-3,0.182926829268293,-106,0.460869565217391,45,0.195652173913043,124,-0.604878048780488,
9844214,3476.5625,12512,-7.67136725935009,-10384,-6.36664622930717,-3248,1.99141630901288,203,-1.70731707317073,28,-12.3780487804878,-13,0.792682926829268,-105,0.456521739130435,46,0.2,124,-0.604878048780488,
9844854,3496.09375,12064,-7.39668914776211,-10352,-6.34702636419375,-3232,1.98160637645616,272,-1.70731707317073,28,-16.5853658536585,-11,0.670731707317073,-106,0.460869565217391,42,0.182608695652174,125,-0.609756097560976,
9845494,3515.625,11504,-7.05334150827713,-10496,-6.43531575720417,-3184,1.95217657878602,241,-2.19512195121951,36,-14.6951219512195,-25,1.52439024390244,-107,0.465217391304348,46,0.2,123,-0.6,
9846134,3535.15625,11200,-6.86695278969957,-10448,-6.40588595953403,-3088,1.89331698344574,187,-2.13414634146341,35,-11.4024390243902,-27,1.64634146341463,-103,0.447826086956522,47,0.204347826086957,124,-0.604878048780488,
9846774,3554.6875,11104,-6.80809319435929,-10512,-6.44512568976088,-3200,1.96198651134273,124,-1.82926829268293,30,-7.5609756097561,-12,0.731707317073171,-106,0.460869565217391,41,0.178260869565217,125,-0.609756097560976,
9847414,3574.21875,11184,-6.85714285714286,-10688,-6.55303494788473,-3232,1.98160637645616,77,-1.03658536585366,17,-4.69512195121951,2,-0.121951219512195,-103,0.447826086956522,45,0.195652173913043,124,-0.604878048780488,
9848054,3593.75,11312,-6.93562231759657,-10768,-6.6020846106683,-3280,2.0110361741263,20,-0.121951219512195,2,-1.21951219512195,10,-0.609756097560976,-105,0.456521739130435,44,0.191304347826087,124,-0.604878048780488,
9848694,3613.28125,11488,-7.04353157572042,-10752,-6.59227467811159,-3296,2.02084610668302,-18,0.975609756097561,-16,1.09756097560976,11,-0.670731707317073,-106,0.460869565217391,45,0.195652173913043,123,-0.6,
9849334,3632.8125,11488,-7.04353157572042,-10720,-6.57265481299816,-3296,2.02084610668302,-43,2.25609756097561,-37,2.6219512195122,16,-0.975609756097561,-106,0.460869565217391,40,0.173913043478261,125,-0.609756097560976,
9849974,3652.34375,11552,-7.08277130594727,-10752,-6.59227467811159,-3360,2.06008583690987,-74,3.29268292682927,-54,4.51219512195122,13,-0.792682926829268,-102,0.443478260869565,42,0.182608695652174,124,-0.604878048780488,
9850614,3671.875,11680,-7.16125076640098,-10560,-6.47455548743102,-3296,2.02084610668302,-90,4.63414634146342,-76,5.48780487804878,3,-0.182926829268293,-103,0.447826086956522,41,0.178260869565217,125,-0.609756097560976,
9851254,3691.40625,11760,-7.21030042918455,-10512,-6.44512568976088,-3312,2.03065603923973,-108,5.24390243902439,-86,6.58536585365854,-5,0.304878048780488,-103,0.447826086956522,43,0.18695652173913,124,-0.604878048780488,
9851894,3710.9375,11872,-7.27896995708154,-10512,-6.44512568976088,-3184,1.95217657878602,-113,5.36585365853659,-88,6.89024390243902,-3,0.182926829268293,-106,0.460869565217391,45,0.195652173913043,123,-0.6,
9852534,3730.46875,12048,-7.3868792152054,-10512,-6.44512568976088,-3168,1.94236664622931,-107,5.0609756097561,-83,6.52439024390244,4,-0.24390243902439,-106,0.460869565217391,50,0.217391304347826,122,-0.595121951219512,
9853174,3750,12304,-7.54383813611281,-10464,-6.41569589209074,-3152,1.93255671367259,-81,4.08536585365854,-67,4.9390243902439,7,-0.426829268292683,-107,0.465217391304348,47,0.204347826086957,125,-0.609756097560976,
9853814,3769.53125,12448,-7.63212752912324,-10384,-6.36664622930717,-3264,2.00122624156959,-8,2.5,-41,0.487804878048781,3,-0.182926829268293,-105,0.456521739130435,44,0.191304347826087,125,-0.609756097560976,
9854454,3789.0625,12272,-7.52421827099939,-10368,-6.35683629675046,-3344,2.05027590435316,68,1.28048780487805,-21,-4.14634146341463,-5,0.304878048780488,-106,0.460869565217391,49,0.21304347826087,123,-0.6,
9855094,3808.59375,12064,-7.39668914776211,-10496,-6.43531575720417,-3344,2.05027590435316,89,1.34146341463415,-22,-5.42682926829268,-21,1.28048780487805,-106,0.460869565217391,47,0.204347826086957,123,-0.6,
9855734,3828.125,11872,-7.27896995708154,-10544,-6.46474555487431,-3296,2.02084610668302,89,1.21951219512195,-20,-5.42682926829268,-30,1.82926829268293,-105,0.456521739130435,44,0.191304347826087,123,-0.6,
9856374,3847.65625,11744,-7.20049049662784,-10480,-6.42550582464746,-3152,1.93255671367259,79,1.28048780487805,-21,-4.81707317073171,-30,1.82926829268293,-103,0.447826086956522,43,0.18695652173913,124,-0.604878048780488,
9857014,3867.1875,11648,-7.14163090128755,-10624,-6.51379521765788,-3344,2.05027590435316,73,1.82926829268293,-30,-4.45121951219512,-24,1.46341463414634,-104,0.452173913043478,42,0.182608695652174,123,-0.6,
9857654,3886.71875,11488,-7.04353157572042,-10608,-6.50398528510116,-3296,2.02084610668302,50,2.98780487804878,-49,-3.04878048780488,-23,1.40243902439024,-106,0.460869565217391,45,0.195652173913043,123,-0.6,
9858294,3906.25,11360,-6.96505211526671,-10640,-6.52360515021459,-3264,2.00122624156959,11,3.59756097560976,-59,-0.670731707317073,-25,1.52439024390244,-103,0.447826086956522,45,0.195652173913043,125,-0.609756097560976,
9858934,3925.78125,11424,-7.00429184549356,-10544,-6.46474555487431,-3216,1.97179644389945,-33,4.26829268292683,-70,2.01219512195122,-22,1.34146341463415,-107,0.465217391304348,47,0.204347826086957,123,-0.6,
9859574,3945.3125,11648,-7.14163090128755,-10512,-6.44512568976088,-3248,1.99141630901288,-50,4.87804878048781,-80,3.04878048780488,-15,0.914634146341463,-105,0.456521739130435,42,0.182608695652174,124,-0.604878048780488,
9860214,3964.84375,11808,-7.23973022685469,-10480,-6.42550582464746,-3184,1.95217657878602,-68,4.75609756097561,-78,4.14634146341463,-11,0.670731707317073,-105,0.456521739130435,44,0.191304347826087,123,-0.6,
9860854,3984.375,11968,-7.33782955242183,-10448,-6.40588595953403,-3168,1.94236664622931,-47,4.26829268292683,-70,2.86585365853659,-7,0.426829268292683,-107,0.465217391304348,47,0.204347826086957,124,-0.604878048780488,
9861494,4003.90625,11792,-7.22992029429798,-10448,-6.40588595953403,-3296,2.02084610668302,-32,4.02439024390244,-66,1.95121951219512,-2,0.121951219512195,-106,0.460869565217391,46,0.2,122,-0.595121951219512,
9862134,4023.4375,11840,-7.25935009196812,-10384,-6.36664622930717,-3296,2.02084610668302,-56,4.20731707317073,-69,3.41463414634146,-2,0.121951219512195,-106,0.460869565217391,46,0.2,124,-0.604878048780488,
9862774,4042.96875,11920,-7.30839975475169,-10416,-6.3862660944206,-3264,2.00122624156959,-65,4.20731707317073,-69,3.96341463414634,-2,0.121951219512195,-107,0.465217391304348,46,0.2,125,-0.609756097560976,
9863414,4062.5,11904,-7.29858982219497,-10432,-6.39607602697731,-3280,2.0110361741263,-61,4.08536585365854,-67,3.71951219512195,0,0,-104,0.452173913043478,43,0.18695652173913,123,-0.6,
9864054,4082.03125,11920,-7.30839975475169,-10480,-6.42550582464746,-3168,1.94236664622931,-50,3.71951219512195,-61,3.04878048780488,3,-0.182926829268293,-104,0.452173913043478,44,0.191304347826087,125,-0.609756097560976,
9864694,4101.5625,11760,-7.21030042918455,-10512,-6.44512568976088,-3136,1.92274678111588,-47,3.53658536585366,-58,2.86585365853659,6,-0.365853658536585,-106,0.460869565217391,43,0.18695652173913,123,-0.6,
9865334,4121.09375,11808,-7.23973022685469,-10512,-6.44512568976088,-3104,1.90312691600245,-46,2.98780487804878,-49,2.80487804878049,10,-0.609756097560976,-107,0.465217391304348,45,0.195652173913043,124,-0.604878048780488,
9865974,4140.625,11776,-7.22011036174126,-10560,-6.47455548743102,-3120,1.91293684855917,-44,2.6219512195122,-43,2.68292682926829,8,-0.487804878048781,-105,0.456521739130435,47,0.204347826086957,122,-0.595121951219512,
9866614,4160.15625,11728,-7.19068056407112,-10512,-6.44512568976088,-3184,1.95217657878602,-49,2.5609756097561,-42,2.98780487804878,9,-0.548780487804878,-106,0.460869565217391,47,0.204347826086957,122,-0.595121951219512,
9867254,4179.6875,11744,-7.20049049662784,-10480,-6.42550582464746,-3248,1.99141630901288,-56,2.5,-41,3.41463414634146,7,-0.426829268292683,-107,0.465217391304348,45,0.195652173913043,124,-0.604878048780488,
9867894,4199.21875,11824,-7.2495401594114,-10544,-6.46474555487431,-3168,1.94236664622931,-70,2.92682926829268,-48,4.26829268292683,5,-0.304878048780488,-105,0.456521739130435,48,0.208695652173913,124,-0.604878048780488,
9868534,4218.75,11904,-7.29858982219497,-10496,-6.43531575720417,-3184,1.95217657878602,-68,2.98780487804878,-49,4.14634146341463,3,-0.182926829268293,-106,0.460869565217391,45,0.195652173913043,123,-0.6,
9869174,4238.28125,11920,-7.30839975475169,-10576,-6.48436541998774,-3184,1.95217657878602,-58,2.98780487804878,-49,3.53658536585366,5,-0.304878048780488,-105,0.456521739130435,41,0.178260869565217,124,-0.604878048780488,
9869814,4257.8125,11952,-7.32801961986511,-10496,-6.43531575720417,-3200,1.96198651134273,-62,3.10975609756098,-51,3.78048780487805,4,-0.24390243902439,-105,0.456521739130435,43,0.18695652173913,124,-0.604878048780488,
9870454,4277.34375,11968,-7.33782955242183,-10496,-6.43531575720417,-3120,1.91293684855917,-60,3.29268292682927,-54,3.65853658536585,4,-0.24390243902439,-105,0.456521739130435,46,0.2,123,-0.6,
9871094,4296.875,11952,-7.32801961986511,-10528,-6.4549356223176,-3232,1.98160637645616,-50,3.10975609756098,-51,3.04878048780488,2,-0.121951219512195,-106,0.460869565217391,46,0.2,125,-0.609756097560976,
9871734,4316.40625,11952,-7.32801961986511,-10480,-6.42550582464746,-3184,1.95217657878602,-32,3.29268292682927,-54,1.95121951219512,-1,0.0609756097560976,-106,0.460869565217391,46,0.2,123,-0.6,
9872374,4335.9375,11984,-7.34763948497854,-10496,-6.43531575720417,-3120,1.91293684855917,-34,3.10975609756098,-51,2.07317073170732,-8,0.487804878048781,-107,0.465217391304348,49,0.21304347826087,123,-0.6,
9873014,4355.46875,12048,-7.3868792152054,-10496,-6.43531575720417,-3168,1.94236664622931,-32,2.86585365853659,-47,1.95121951219512,-11,0.670731707317073,-107,0.465217391304348,49,0.21304347826087,123,-0.6,
9873654,4375,12128,-7.43592887798896,-10560,-6.47455548743102,-3248,1.99141630901288,-20,2.80487804878049,-46,1.21951219512195,-9,0.548780487804878,-108,0.469565217391304,44,0.191304347826087,124,-0.604878048780488,
9874294,4394.53125,12080,-7.40649908031882,-10528,-6.4549356223176,-3232,1.98160637645616,-4,2.98780487804878,-49,0.24390243902439,-11,0.670731707317073,-104,0.452173913043478,44,0.191304347826087,124,-0.604878048780488,
9874934,4414.0625,12032,-7.37706928264868,-10432,-6.39607602697731,-3232,1.98160637645616,14,3.04878048780488,-50,-0.853658536585366,-17,1.03658536585366,-105,0.456521739130435,47,0.204347826086957,122,-0.595121951219512,
9875574,4433.59375,11968,-7.33782955242183,-10432,-6.39607602697731,-3216,1.97179644389945,16,3.04878048780488,-50,-0.975609756097561,-15,0.914634146341463,-106,0.460869565217391,46,0.2,121,-0.590243902439024,
9876214,4453.125,11856,-7.26916002452483,-10512,-6.44512568976088,-3072,1.88350705088903,15,2.98780487804878,-49,-0.914634146341463,-17,1.03658536585366,-106,0.460869565217391,46,0.2,123,-0.6,
9876854,4472.65625,11840,-7.25935009196812,-10496,-6.43531575720417,-3088,1.89331698344574,16,2.98780487804878,-49,-0.975609756097561,-17,1.03658536585366,-107,0.465217391304348,44,0.191304347826087,124,-0.604878048780488,
9877494,4492.1875,11792,-7.22992029429798,-10560,-6.47455548743102,-3104,1.90312691600245,6,2.98780487804878,-49,-0.365853658536585,-12,0.731707317073171,-105,0.456521739130435,41,0.178260869565217,124,-0.604878048780488,
9878134,4511.71875,11792,-7.22992029429798,-10608,-6.50398528510116,-3088,1.89331698344574,-5,3.17073170731707,-52,0.304878048780488,-10,0.609756097560976,-106,0.460869565217391,42,0.182608695652174,123,-0.6,
9878774,4531.25,11856,-7.26916002452483,-10512,-6.44512568976088,-3056,1.87369711833231,-13,3.29268292682927,-54,0.792682926829268,-9,0.548780487804878,-108,0.469565217391304,48,0.208695652173913,124,-0.604878048780488,
9879414,4550.78125,11856,-7.26916002452483,-10528,-6.4549356223176,-3120,1.91293684855917,-15,3.10975609756098,-51,0.914634146341463,-14,0.853658536585366,-107,0.465217391304348,46,0.2,123,-0.6,
9880054,4570.3125,11888,-7.28877988963826,-10528,-6.4549356223176,-3136,1.92274678111588,-20,3.59756097560976,-59,1.21951219512195,-12,0.731707317073171,-108,0.469565217391304,45,0.195652173913043,123,-0.6,
9880694,4589.84375,11920,-7.30839975475169,-10528,-6.4549356223176,-3152,1.93255671367259,-29,3.90243902439024,-64,1.76829268292683,-9,0.548780487804878,-107,0.465217391304348,46,0.2,123,-0.6,
9881334,4609.375,12000,-7.35744941753525,-10480,-6.42550582464746,-3056,1.87369711833231,-29,4.08536585365854,-67,1.76829268292683,-9,0.548780487804878,-108,0.469565217391304,45,0.195652173913043,125,-0.609756097560976,
9881974,4628.90625,11904,-7.29858982219497,-10512,-6.44512568976088,-3024,1.85407725321888,-15,4.08536585365854,-67,0.914634146341463,-7,0.426829268292683,-105,0.456521739130435,42,0.182608695652174,125,-0.609756097560976,
9882614,4648.4375,11840,-7.25935009196812,-10464,-6.41569589209074,-3008,1.84426732066217,-14,3.96341463414634,-65,0.853658536585366,-6,0.365853658536585,-107,0.465217391304348,43,0.18695652173913,124,-0.604878048780488,
9883254,4667.96875,11872,-7.27896995708154,-10544,-6.46474555487431,-3040,1.8638871857756,-17,3.71951219512195,-61,1.03658536585366,-12,0.731707317073171,-106,0.460869565217391,43,0.18695652173913,122,-0.595121951219512,
9883894,4687.5,11936,-7.3182096873084,-10512,-6.44512568976088,-3120,1.91293684855917,-26,3.65853658536585,-60,1.58536585365854,-9,0.548780487804878,-105,0.456521739130435,48,0.208695652173913,124,-0.604878048780488,
9884534,4707.03125,11936,-7.3182096873084,-10480,-6.42550582464746,-3056,1.87369711833231,-27,3.78048780487805,-62,1.64634146341463,-8,0.487804878048781,-105,0.456521739130435,41,0.178260869565217,125,-0.609756097560976,
9885174,4726.5625,12000,-7.35744941753525,-10416,-6.3862660944206,-3008,1.84426732066217,-20,3.84146341463415,-63,1.21951219512195,-7,0.426829268292683,-108,0.469565217391304,45,0.195652173913043,124,-0.604878048780488,
9885814,4746.09375,11920,-7.30839975475169,-10432,-6.39607602697731,-3072,1.88350705088903,-17,3.71951219512195,-61,1.03658536585366,-4,0.24390243902439,-106,0.460869565217391,48,0.208695652173913,125,-0.609756097560976,
9886454,4765.625,11936,-7.3182096873084,-10464,-6.41569589209074,-3136,1.92274678111588,-13,3.71951219512195,-61,0.792682926829268,-7,0.426829268292683,-106,0.460869565217391,45,0.195652173913043,122,-0.595121951219512,
9887094,4785.15625,11904,-7.29858982219497,-10480,-6.42550582464746,-3184,1.95217657878602,-18,3.59756097560976,-59,1.09756097560976,-7,0.426829268292683,-108,0.469565217391304,44,0.191304347826087,123,-0.6,
9887734,4804.6875,11888,-7.28877988963826,-10528,-6.4549356223176,-3136,1.92274678111588,-14,3.59756097560976,-59,0.853658536585366,-7,0.426829268292683,-109,0.473913043478261,47,0.204347826086957,123,-0.6,
9888374,4824.21875,11952,-7.32801961986511,-10432,-6.39607602697731,-3072,1.88350705088903,-14,3.47560975609756,-57,0.853658536585366,-9,0.548780487804878,-108,0.469565217391304,47,0.204347826086957,124,-0.604878048780488,
9889014,4843.75,11904,-7.29858982219497,-10416,-6.3862660944206,-3040,1.8638871857756,-11,3.17073170731707,-52,0.670731707317073,-7,0.426829268292683,-106,0.460869565217391,44,0.191304347826087,123,-0.6,
9889654,4863.28125,11952,-7.32801961986511,-10368,-6.35683629675046,-3104,1.90312691600245,-9,3.23170731707317,-53,0.548780487804878,-6,0.365853658536585,-108,0.469565217391304,45,0.195652173913043,123,-0.6,
9890294,4882.8125,11936,-7.3182096873084,-10432,-6.39607602697731,-2992,1.83445738810546,-9,3.17073170731707,-52,0.548780487804878,-5,0.304878048780488,-108,0.469565217391304,46,0.2,122,-0.595121951219512,
9890934,4902.34375,11936,-7.3182096873084,-10464,-6.41569589209074,-3072,1.88350705088903,-9,3.23170731707317,-53,0.548780487804878,-5,0.304878048780488,-106,0.460869565217391,45,0.195652173913043,125,-0.609756097560976,
9891574,4921.875,11936,-7.3182096873084,-10480,-6.42550582464746,-3104,1.90312691600245,-10,3.23170731707317,-53,0.609756097560976,-6,0.365853658536585,-107,0.465217391304348,44,0.191304347826087,124,-0.604878048780488,
9892214,4941.40625,11936,-7.3182096873084,-10416,-6.3862660944206,-3008,1.84426732066217,-7,3.17073170731707,-52,0.426829268292683,-7,0.426829268292683,-107,0.465217391304348,49,0.21304347826087,123,-0.6,
9892854,4960.9375,11888,-7.28877988963826,-10416,-6.3862660944206,-3088,1.89331698344574,-3,2.92682926829268,-48,0.182926829268293,-8,0.487804878048781,-107,0.465217391304348,46,0.2,124,-0.604878048780488,
9893494,4980.46875,11952,-7.32801961986511,-10416,-6.3862660944206,-3008,1.84426732066217,-21,2.74390243902439,-45,1.28048780487805,-11,0.670731707317073,-108,0.469565217391304,44,0.191304347826087,124,-0.604878048780488,
9894134,5000,12128,-7.43592887798896,-10464,-6.41569589209074,-3072,1.88350705088903,-21,2.74390243902439,-45,1.28048780487805,-5,0.304878048780488,-107,0.465217391304348,46,0.2,123,-0.6,
9894774,5019.53125,12080,-7.40649908031882,-10496,-6.43531575720417,-3088,1.89331698344574,-4,2.6219512195122,-43,0.24390243902439,0,0,-106,0.460869565217391,46,0.2,123,-0.6,
9895414,5039.0625,12016,-7.36725935009197,-10480,-6.42550582464746,-3088,1.89331698344574,16,2.5609756097561,-42,-0.975609756097561,4,-0.24390243902439,-107,0.465217391304348,41,0.178260869565217,124,-0.604878048780488,
9896054,5058.59375,11904,-7.29858982219497,-10480,-6.42550582464746,-3024,1.85407725321888,20,2.37804878048781,-39,-1.21951219512195,1,-0.0609756097560976,-107,0.465217391304348,49,0.21304347826087,123,-0.6,
9896694,5078.125,11824,-7.2495401594114,-10368,-6.35683629675046,-3008,1.84426732066217,8,2.37804878048781,-39,-0.487804878048781,-6,0.365853658536585,-107,0.465217391304348,48,0.208695652173913,123,-0.6,
9897334,5097.65625,11840,-7.25935009196812,-10480,-6.42550582464746,-3056,1.87369711833231,-5,2.31707317073171,-38,0.304878048780488,-3,0.182926829268293,-107,0.465217391304348,42,0.182608695652174,124,-0.604878048780488,
9897974,5117.1875,11840,-7.25935009196812,-10496,-6.43531575720417,-3008,1.84426732066217,-15,2.6219512195122,-43,0.914634146341463,-3,0.182926829268293,-106,0.460869565217391,44,0.191304347826087,124,-0.604878048780488,
9898614,5136.71875,11904,-7.29858982219497,-10624,-6.51379521765788,-2992,1.83445738810546,-21,2.68292682926829,-44,1.28048780487805,-3,0.182926829268293,-107,0.465217391304348,46,0.2,123,-0.6,
9899254,5156.25,11920,-7.30839975475169,-10496,-6.43531575720417,-3072,1.88350705088903,-24,2.86585365853659,-47,1.46341463414634,-2,0.121951219512195,-106,0.460869565217391,46,0.2,122,-0.595121951219512,
9899894,5175.78125,11936,-7.3182096873084,-10480,-6.42550582464746,-3136,1.92274678111588,-22,2.86585365853659,-47,1.34146341463415,-3,0.182926829268293,-107,0.465217391304348,43,0.18695652173913,126,-0.614634146341463,
9900534,5195.3125,11952,-7.32801961986511,-10496,-6.43531575720417,-3040,1.8638871857756,-15,3.04878048780488,-50,0.914634146341463,-8,0.487804878048781,-106,0.460869565217391,44,0.191304347826087,125,-0.609756097560976,
9901174,5214.84375,11984,-7.34763948497854,-10464,-6.41569589209074,-3024,1.85407725321888,-12,3.17073170731707,-52,0.731707317073171,-7,0.426829268292683,-106,0.460869565217391,45,0.195652173913043,122,-0.595121951219512,
9901814,5234.375,12032,-7.37706928264868,-10496,-6.43531575720417,-2992,1.83445738810546,-14,3.04878048780488,-50,0.853658536585366,-6,0.365853658536585,-108,0.469565217391304,50,0.217391304347826,123,-0.6,
9902454,5253.90625,12016,-7.36725935009197,-10448,-6.40588595953403,-3088,1.89331698344574,-6,2.92682926829268,-48,0.365853658536585,-8,0.487804878048781,-107,0.465217391304348,45,0.195652173913043,124,-0.604878048780488,
9903094,5273.4375,11904,-7.29858982219497,-10480,-6.42550582464746,-3056,1.87369711833231,7,2.92682926829268,-48,-0.426829268292683,-2,0.121951219512195,-107,0.465217391304348,42,0.182608695652174,124,-0.604878048780488,
9903734,5292.96875,11888,-7.28877988963826,-10528,-6.4549356223176,-3056,1.87369711833231,5,2.74390243902439,-45,-0.304878048780488,-4,0.24390243902439,-105,0.456521739130435,42,0.182608695652174,124,-0.604878048780488,
9904374,5312.5,11888,-7.28877988963826,-10480,-6.42550582464746,-3072,1.88350705088903,-3,3.10975609756098,-51,0.182926829268293,-4,0.24390243902439,-106,0.460869565217391,45,0.195652173913043,123,-0.6,
9905014,5332.03125,11856,-7.26916002452483,-10576,-6.48436541998774,-2944,1.80502759043532,-7,3.17073170731707,-52,0.426829268292683,-5,0.304878048780488,-108,0.469565217391304,41,0.178260869565217,123,-0.6,
9905654,5351.5625,11856,-7.26916002452483,-10496,-6.43531575720417,-2992,1.83445738810546,-14,3.17073170731707,-52,0.853658536585366,-4,0.24390243902439,-107,0.465217391304348,42,0.182608695652174,124,-0.604878048780488,
9906294,5371.09375,11936,-7.3182096873084,-10496,-6.43531575720417,-3040,1.8638871857756,-17,3.23170731707317,-53,1.03658536585366,-4,0.24390243902439,-106,0.460869565217391,42,0.182608695652174,124,-0.604878048780488,
9906934,5390.625,12000,-7.35744941753525,-10464,-6.41569589209074,-3056,1.87369711833231,-15,3.29268292682927,-54,0.914634146341463,0,0,-106,0.460869565217391,42,0.182608695652174,123,-0.6,
9907574,5410.15625,11952,-7.32801961986511,-10528,-6.4549356223176,-3072,1.88350705088903,-11,3.29268292682927,-54,0.670731707317073,-2,0.121951219512195,-107,0.465217391304348,46,0.2,124,-0.604878048780488,
9908214,5429.6875,12000,-7.35744941753525,-10496,-6.43531575720417,-2992,1.83445738810546,-10,3.29268292682927,-54,0.609756097560976,-2,0.121951219512195,-107,0.465217391304348,47,0.204347826086957,121,-0.590243902439024,
9908854,5449.21875,11952,-7.32801961986511,-10528,-6.4549356223176,-3008,1.84426732066217,-5,3.23170731707317,-53,0.304878048780488,-2,0.121951219512195,-108,0.469565217391304,41,0.178260869565217,124,-0.604878048780488,
9909494,5468.75,11936,-7.3182096873084,-10448,-6.40588595953403,-3024,1.85407725321888,3,3.29268292682927,-54,-0.182926829268293,-2,0.121951219512195,-106,0.460869565217391,45,0.195652173913043,123,-0.6,
9910134,5488.28125,11920,-7.30839975475169,-10432,-6.39607602697731,-2992,1.83445738810546,-1,2.80487804878049,-46,0.0609756097560976,-3,0.182926829268293,-107,0.465217391304348,46,0.2,124,-0.604878048780488,
9910774,5507.8125,11904,-7.29858982219497,-10448,-6.40588595953403,-2928,1.7952176578786,-1,2.6219512195122,-43,0.0609756097560976,0,0,-106,0.460869565217391,40,0.173913043478261,124,-0.604878048780488,
9911414,5527.34375,11840,-7.25935009196812,-10480,-6.42550582464746,-3024,1.85407725321888,-1,2.68292682926829,-44,0.0609756097560976,1,-0.0609756097560976,-108,0.469565217391304,44,0.191304347826087,124,-0.604878048780488,
9912054,5546.875,11888,-7.28877988963826,-10560,-6.47455548743102,-2992,1.83445738810546,-10,2.6219512195122,-43,0.609756097560976,2,-0.121951219512195,-107,0.465217391304348,45,0.195652173913043,124,-0.604878048780488,
9912694,5566.40625,11920,-7.30839975475169,-10560,-6.47455548743102,-2976,1.82464745554874,-11,2.80487804878049,-46,0.670731707317073,3,-0.182926829268293,-107,0.465217391304348,48,0.208695652173913,122,-0.595121951219512,
9913334,5585.9375,11968,-7.33782955242183,-10544,-6.46474555487431,-2992,1.83445738810546,-11,2.92682926829268,-48,0.670731707317073,3,-0.182926829268293,-107,0.465217391304348,46,0.2,124,-0.604878048780488,
9913974,5605.46875,11888,-7.28877988963826,-10496,-6.43531575720417,-2992,1.83445738810546,1,2.68292682926829,-44,-0.0609756097560976,1,-0.0609756097560976,-108,0.469565217391304,46,0.2,123,-0.6,
9914614,5625,11856,-7.26916002452483,-10448,-6.40588595953403,-3024,1.85407725321888,-13,2.5,-41,0.792682926829268,2,-0.121951219512195,-107,0.465217391304348,46,0.2,124,-0.604878048780488,
9915254,5644.53125,11872,-7.27896995708154,-10480,-6.42550582464746,-2928,1.7952176578786,-28,2.4390243902439,-40,1.70731707317073,5,-0.304878048780488,-108,0.469565217391304,46,0.2,123,-0.6,
9915894,5664.0625,12000,-7.35744941753525,-10528,-6.4549356223176,-2944,1.80502759043532,-18,2.25609756097561,-37,1.09756097560976,10,-0.609756097560976,-107,0.465217391304348,47,0.204347826086957,123,-0.6,
9916534,5683.59375,12128,-7.43592887798896,-10528,-6.4549356223176,-2976,1.82464745554874,18,2.31707317073171,-38,-1.09756097560976,16,-0.975609756097561,-107,0.465217391304348,46,0.2,122,-0.595121951219512,
9917174,5703.125,11936,-7.3182096873084,-10464,-6.41569589209074,-2960,1.81483752299203,24,2.01219512195122,-33,-1.46341463414634,16,-0.975609756097561,-105,0.456521739130435,44,0.191304347826087,124,-0.604878048780488,
9917814,5722.65625,11792,-7.22992029429798,-10528,-6.4549356223176,-2960,1.81483752299203,1,2.01219512195122,-33,-0.0609756097560976,8,-0.487804878048781,-108,0.469565217391304,47,0.204347826086957,123,-0.6,
9918454,5742.1875,11888,-7.28877988963826,-10544,-6.46474555487431,-2976,1.82464745554874,-7,2.01219512195122,-33,0.426829268292683,5,-0.304878048780488,-108,0.469565217391304,41,0.178260869565217,124,-0.604878048780488,
9919094,5761.71875,11840,-7.25935009196812,-10624,-6.51379521765788,-2944,1.80502759043532,-2,2.07317073170732,-34,0.121951219512195,6,-0.365853658536585,-107,0.465217391304348,46,0.2,123,-0.6,
9919734,5781.25,11840,-7.25935009196812,-10624,-6.51379521765788,-2928,1.7952176578786,-5,2.07317073170732,-34,0.304878048780488,8,-0.487804878048781,-107,0.465217391304348,45,0.195652173913043,124,-0.604878048780488,
9920374,5800.78125,11856,-7.26916002452483,-10624,-6.51379521765788,-2976,1.82464745554874,-13,2.19512195121951,-36,0.792682926829268,8,-0.487804878048781,-108,0.469565217391304,46,0.2,124,-0.604878048780488,
9921014,5820.3125,11776,-7.22011036174126,-10608,-6.50398528510116,-3008,1.84426732066217,-15,2.5609756097561,-42,0.914634146341463,6,-0.365853658536585,-107,0.465217391304348,46,0.2,125,-0.609756097560976,
9921654,5839.84375,11856,-7.26916002452483,-10608,-6.50398528510116,-2912,1.78540772532189,-17,2.5609756097561,-42,1.03658536585366,3,-0.182926829268293,-108,0.469565217391304,46,0.2,123,-0.6,
9922294,5859.375,11936,-7.3182096873084,-10560,-6.47455548743102,-3008,1.84426732066217,-11,2.80487804878049,-46,0.670731707317073,2,-0.121951219512195,-105,0.456521739130435,43,0.18695652173913,123,-0.6,
9922934,5878.90625,11872,-7.27896995708154,-10656,-6.53341508277131,-3008,1.84426732066217,-9,2.74390243902439,-45,0.548780487804878,2,-0.121951219512195,-108,0.469565217391304,47,0.204347826086957,123,-0.6,
9923574,5898.4375,11888,-7.28877988963826,-10624,-6.51379521765788,-3024,1.85407725321888,2,2.6219512195122,-43,-0.121951219512195,2,-0.121951219512195,-104,0.452173913043478,44,0.191304347826087,122,-0.595121951219512,
9924214,5917.96875,11872,-7.27896995708154,-10640,-6.52360515021459,-3008,1.84426732066217,6,2.5,-41,-0.365853658536585,4,-0.24390243902439,-105,0.456521739130435,47,0.204347826086957,122,-0.595121951219512,
9924854,5937.5,11808,-7.23973022685469,-10656,-6.53341508277131,-2976,1.82464745554874,0,2.5,-41,0,7,-0.426829268292683,-106,0.460869565217391,48,0.208695652173913,121,-0.590243902439024,
9925494,5957.03125,11776,-7.22011036174126,-10640,-6.52360515021459,-2896,1.77559779276517,-12,2.37804878048781,-39,0.731707317073171,3,-0.182926829268293,-107,0.465217391304348,46,0.2,123,-0.6,
9926134,5976.5625,11808,-7.23973022685469,-10608,-6.50398528510116,-2896,1.77559779276517,-12,2.5,-41,0.731707317073171,6,-0.365853658536585,-108,0.469565217391304,46,0.2,122,-0.595121951219512,
9926774,5996.09375,11856,-7.26916002452483,-10592,-6.49417535254445,-2944,1.80502759043532,-14,2.37804878048781,-39,0.853658536585366,4,-0.24390243902439,-107,0.465217391304348,45,0.195652173913043,122,-0.595121951219512,
9927414,6015.625,11856,-7.26916002452483,-10624,-6.51379521765788,-3008,1.84426732066217,-20,2.74390243902439,-45,1.21951219512195,8,-0.487804878048781,-106,0.460869565217391,44,0.191304347826087,123,-0.6,
9928054,6035.15625,11824,-7.2495401594114,-10720,-6.57265481299816,-2976,1.82464745554874,-16,3.04878048780488,-50,0.975609756097561,5,-0.304878048780488,-106,0.460869565217391,47,0.204347826086957,123,-0.6,
9928694,6054.6875,11856,-7.26916002452483,-10688,-6.55303494788473,-2944,1.80502759043532,-22,3.04878048780488,-50,1.34146341463415,3,-0.182926829268293,-107,0.465217391304348,43,0.18695652173913,124,-0.604878048780488,
9929334,6074.21875,11936,-7.3182096873084,-10640,-6.52360515021459,-3008,1.84426732066217,-23,3.17073170731707,-52,1.40243902439024,0,0,-107,0.465217391304348,47,0.204347826086957,123,-0.6,
9929974,6093.75,11904,-7.29858982219497,-10544,-6.46474555487431,-2960,1.81483752299203,-15,3.23170731707317,-53,0.914634146341463,-2,0.121951219512195,-106,0.460869565217391,46,0.2,123,-0.6,
9930614,6113.28125,11888,-7.28877988963826,-10512,-6.44512568976088,-2976,1.82464745554874,-13,3.04878048780488,-50,0.792682926829268,-3,0.182926829268293,-107,0.465217391304348,43,0.18695652173913,124,-0.604878048780488,
9931254,6132.8125,11872,-7.27896995708154,-10512,-6.44512568976088,-2912,1.78540772532189,-17,2.80487804878049,-46,1.03658536585366,0,0,-107,0.465217391304348,46,0.2,124,-0.604878048780488,
9931894,6152.34375,11872,-7.27896995708154,-10528,-6.4549356223176,-2880,1.76578786020846,-13,2.6219512195122,-43,0.792682926829268,-2,0.121951219512195,-106,0.460869565217391,45,0.195652173913043,124,-0.604878048780488,
9932534,6171.875,11856,-7.26916002452483,-10592,-6.49417535254445,-2976,1.82464745554874,-9,2.4390243902439,-40,0.548780487804878,-4,0.24390243902439,-106,0.460869565217391,46,0.2,123,-0.6,
9933174,6191.40625,11872,-7.27896995708154,-10624,-6.51379521765788,-2976,1.82464745554874,-6,2.5,-41,0.365853658536585,-7,0.426829268292683,-105,0.456521739130435,43,0.18695652173913,123,-0.6,
9933814,6210.9375,11856,-7.26916002452483,-10592,-6.49417535254445,-2944,1.80502759043532,-1,2.5609756097561,-42,0.0609756097560976,-5,0.304878048780488,-107,0.465217391304348,50,0.217391304347826,122,-0.595121951219512,
9934454,6230.46875,11792,-7.22992029429798,-10592,-6.49417535254445,-2832,1.73635806253832,-13,2.86585365853659,-47,0.792682926829268,-9,0.548780487804878,-107,0.465217391304348,48,0.208695652173913,122,-0.595121951219512,
9935094,6250,11840,-7.25935009196812,-10592,-6.49417535254445,-2864,1.75597792765175,-12,2.80487804878049,-46,0.731707317073171,-7,0.426829268292683,-108,0.469565217391304,46,0.2,123,-0.6,
9935734,6269.53125,11888,-7.28877988963826,-10608,-6.50398528510116,-2864,1.75597792765175,-9,2.5,-41,0.548780487804878,-6,0.365853658536585,-106,0.460869565217391,42,0.182608695652174,123,-0.6,
9936374,6289.0625,11824,-7.2495401594114,-10576,-6.48436541998774,-2960,1.81483752299203,0,2.37804878048781,-39,0,-10,0.609756097560976,-106,0.460869565217391,49,0.21304347826087,122,-0.595121951219512,
9937014,6308.59375,11776,-7.22011036174126,-10560,-6.47455548743102,-2880,1.76578786020846,-12,2.31707317073171,-38,0.731707317073171,-9,0.548780487804878,-104,0.452173913043478,44,0.191304347826087,123,-0.6,
9937654,6328.125,11856,-7.26916002452483,-10640,-6.52360515021459,-2912,1.78540772532189,-24,2.19512195121951,-36,1.46341463414634,-8,0.487804878048781,-107,0.465217391304348,43,0.18695652173913,124,-0.604878048780488,
9938294,6347.65625,12032,-7.37706928264868,-10656,-6.53341508277131,-2880,1.76578786020846,-7,2.19512195121951,-36,0.426829268292683,-7,0.426829268292683,-107,0.465217391304348,45,0.195652173913043,122,-0.595121951219512,
9938934,6367.1875,12032,-7.37706928264868,-10656,-6.53341508277131,-2864,1.75597792765175,17,2.13414634146341,-35,-1.03658536585366,-4,0.24390243902439,-106,0.460869565217391,46,0.2,123,-0.6,
9939574,6386.71875,11872,-7.27896995708154,-10560,-6.47455548743102,-2912,1.78540772532189,30,1.89024390243902,-31,-1.82926829268293,-6,0.365853658536585,-107,0.465217391304348,46,0.2,123,-0.6,
9940214,6406.25,11744,-7.20049049662784,-10608,-6.50398528510116,-2944,1.80502759043532,5,2.13414634146341,-35,-0.304878048780488,-13,0.792682926829268,-106,0.460869565217391,44,0.191304347826087,124,-0.604878048780488,
9940854,6425.78125,11760,-7.21030042918455,-10608,-6.50398528510116,-2864,1.75597792765175,-10,2.19512195121951,-36,0.609756097560976,-11,0.670731707317073,-106,0.460869565217391,46,0.2,125,-0.609756097560976,
9941494,6445.3125,11792,-7.22992029429798,-10640,-6.52360515021459,-2880,1.76578786020846,-8,2.4390243902439,-40,0.487804878048781,-11,0.670731707317073,-108,0.469565217391304,44,0.191304347826087,122,-0.595121951219512,
9942134,6464.84375,11872,-7.27896995708154,-10672,-6.54322501532802,-2928,1.7952176578786,-8,2.19512195121951,-36,0.487804878048781,-8,0.487804878048781,-105,0.456521739130435,44,0.191304347826087,122,-0.595121951219512,
9942774,6484.375,11904,-7.29858982219497,-10672,-6.54322501532802,-2880,1.76578786020846,-8,2.5,-41,0.487804878048781,-8,0.487804878048781,-106,0.460869565217391,48,0.208695652173913,121,-0.590243902439024,
9943414,6503.90625,11840,-7.25935009196812,-10608,-6.50398528510116,-2784,1.70692826486818,-12,2.68292682926829,-44,0.731707317073171,-10,0.609756097560976,-105,0.456521739130435,45,0.195652173913043,122,-0.595121951219512,
9944054,6523.4375,11840,-7.25935009196812,-10688,-6.55303494788473,-2784,1.70692826486818,-11,2.6219512195122,-43,0.670731707317073,-14,0.853658536585366,-106,0.460869565217391,47,0.204347826086957,122,-0.595121951219512,
9944694,6542.96875,11840,-7.25935009196812,-10640,-6.52360515021459,-2800,1.71673819742489,-17,2.80487804878049,-46,1.03658536585366,-14,0.853658536585366,-107,0.465217391304348,48,0.208695652173913,123,-0.6,
9945334,6562.5,11888,-7.28877988963826,-10672,-6.54322501532802,-2784,1.70692826486818,-20,2.4390243902439,-40,1.21951219512195,-11,0.670731707317073,-106,0.460869565217391,49,0.21304347826087,122,-0.595121951219512,
9945974,6582.03125,11936,-7.3182096873084,-10640,-6.52360515021459,-2800,1.71673819742489,-8,2.37804878048781,-39,0.487804878048781,-9,0.548780487804878,-107,0.465217391304348,50,0.217391304347826,121,-0.590243902439024,
9946614,6601.5625,11952,-7.32801961986511,-10688,-6.55303494788473,-2848,1.74616799509503,8,2.31707317073171,-38,-0.487804878048781,-6,0.365853658536585,-107,0.465217391304348,50,0.217391304347826,121,-0.590243902439024,
9947254,6621.09375,11872,-7.27896995708154,-10640,-6.52360515021459,-2848,1.74616799509503,0,2.37804878048781,-39,0,-10,0.609756097560976,-108,0.469565217391304,47,0.204347826086957,122,-0.595121951219512,
9947894,6640.625,11696,-7.17106069895769,-10656,-6.53341508277131,-2880,1.76578786020846,-15,2.37804878048781,-39,0.914634146341463,-9,0.548780487804878,-109,0.473913043478261,48,0.208695652173913,123,-0.6,
9948534,6660.15625,11680,-7.16125076640098,-10640,-6.52360515021459,-2784,1.70692826486818,-24,2.6219512195122,-43,1.46341463414634,-7,0.426829268292683,-109,0.473913043478261,50,0.217391304347826,121,-0.590243902439024,
9949174,6679.6875,11760,-7.21030042918455,-10656,-6.53341508277131,-2784,1.70692826486818,-26,2.68292682926829,-44,1.58536585365854,-6,0.365853658536585,-107,0.465217391304348,46,0.2,122,-0.595121951219512,
9949814,6699.21875,11840,-7.25935009196812,-10624,-6.51379521765788,-2720,1.66768853464132,-24,2.74390243902439,-45,1.46341463414634,-6,0.365853658536585,-107,0.465217391304348,46,0.2,124,-0.604878048780488,
9950454,6718.75,11904,-7.29858982219497,-10640,-6.52360515021459,-2864,1.75597792765175,-20,2.74390243902439,-45,1.21951219512195,-8,0.487804878048781,-107,0.465217391304348,46,0.2,123,-0.6,
9951094,6738.28125,11888,-7.28877988963826,-10624,-6.51379521765788,-2864,1.75597792765175,-21,2.86585365853659,-47,1.28048780487805,-6,0.365853658536585,-107,0.465217391304348,49,0.21304347826087,121,-0.590243902439024,
9951734,6757.8125,11872,-7.27896995708154,-10608,-6.50398528510116,-2848,1.74616799509503,-20,3.17073170731707,-52,1.21951219512195,-9,0.548780487804878,-109,0.473913043478261,49,0.21304347826087,121,-0.590243902439024,
9952374,6777.34375,11904,-7.29858982219497,-10672,-6.54322501532802,-2800,1.71673819742489,-16,3.29268292682927,-54,0.975609756097561,-11,0.670731707317073,-108,0.469565217391304,50,0.217391304347826,121,-0.590243902439024,
9953014,6796.875,11888,-7.28877988963826,-10656,-6.53341508277131,-2848,1.74616799509503,-18,3.29268292682927,-54,1.09756097560976,-10,0.609756097560976,-108,0.469565217391304,50,0.217391304347826,120,-0.585365853658537,
9953654,6816.40625,11888,-7.28877988963826,-10592,-6.49417535254445,-2816,1.72654812998161,-17,3.23170731707317,-53,1.03658536585366,-10,0.609756097560976,-107,0.465217391304348,46,0.2,122,-0.595121951219512,
9954294,6835.9375,11904,-7.29858982219497,-10640,-6.52360515021459,-2848,1.74616799509503,-19,3.35365853658537,-55,1.15853658536585,-12,0.731707317073171,-110,0.478260869565217,50,0.217391304347826,120,-0.585365853658537,
9954934,6855.46875,11984,-7.34763948497854,-10640,-6.52360515021459,-2752,1.68730839975475,-12,3.17073170731707,-52,0.731707317073171,-11,0.670731707317073,-107,0.465217391304348,50,0.217391304347826,122,-0.595121951219512,
9955574,6875,11936,-7.3182096873084,-10592,-6.49417535254445,-2912,1.78540772532189,-6,3.41463414634146,-56,0.365853658536585,-16,0.975609756097561,-106,0.460869565217391,44,0.191304347826087,122,-0.595121951219512,
9956214,6894.53125,12000,-7.35744941753525,-10624,-6.51379521765788,-2912,1.78540772532189,4,3.41463414634146,-56,-0.24390243902439,-19,1.15853658536585,-107,0.465217391304348,41,0.178260869565217,125,-0.609756097560976,
9956854,6914.0625,12000,-7.35744941753525,-10656,-6.53341508277131,-2864,1.75597792765175,10,3.35365853658537,-55,-0.609756097560976,-19,1.15853658536585,-106,0.460869565217391,43,0.18695652173913,123,-0.6,
9957494,6933.59375,11952,-7.32801961986511,-10640,-6.52360515021459,-2816,1.72654812998161,8,3.47560975609756,-57,-0.487804878048781,-17,1.03658536585366,-109,0.473913043478261,48,0.208695652173913,123,-0.6,
9958134,6953.125,11952,-7.32801961986511,-10624,-6.51379521765788,-2816,1.72654812998161,14,3.41463414634146,-56,-0.853658536585366,-18,1.09756097560976,-106,0.460869565217391,44,0.191304347826087,122,-0.595121951219512,
9958774,6972.65625,11920,-7.30839975475169,-10608,-6.50398528510116,-2768,1.69711833231147,19,3.47560975609756,-57,-1.15853658536585,-18,1.09756097560976,-106,0.460869565217391,47,0.204347826086957,123,-0.6,
9959414,6992.1875,11888,-7.28877988963826,-10592,-6.49417535254445,-2784,1.70692826486818,22,3.41463414634146,-56,-1.34146341463415,-21,1.28048780487805,-107,0.465217391304348,46,0.2,123,-0.6,
9960054,7011.71875,11840,-7.25935009196812,-10576,-6.48436541998774,-2752,1.68730839975475,9,3.29268292682927,-54,-0.548780487804878,-22,1.34146341463415,-106,0.460869565217391,46,0.2,122,-0.595121951219512,
9960694,7031.25,11952,-7.32801961986511,-10656,-6.53341508277131,-2800,1.71673819742489,5,3.23170731707317,-53,-0.304878048780488,-15,0.914634146341463,-106,0.460869565217391,44,0.191304347826087,124,-0.604878048780488,
9961334,7050.78125,12080,-7.40649908031882,-10656,-6.53341508277131,-2752,1.68730839975475,21,3.35365853658537,-55,-1.28048780487805,-11,0.670731707317073,-105,0.456521739130435,45,0.195652173913043,123,-0.6,
9961974,7070.3125,12112,-7.42611894543225,-10608,-6.50398528510116,-2768,1.69711833231147,43,3.23170731707317,-53,-2.6219512195122,-14,0.853658536585366,-106,0.460869565217391,47,0.204347826086957,124,-0.604878048780488,
9962614,7089.84375,11952,-7.32801961986511,-10544,-6.46474555487431,-2784,1.70692826486818,43,3.10975609756098,-51,-2.6219512195122,-18,1.09756097560976,-109,0.473913043478261,44,0.191304347826087,122,-0.595121951219512,
9963254,7109.375,11872,-7.27896995708154,-10528,-6.4549356223176,-2720,1.66768853464132,24,2.98780487804878,-49,-1.46341463414634,-25,1.52439024390244,-105,0.456521739130435,44,0.191304347826087,122,-0.595121951219512,
9963894,7128.90625,11904,-7.29858982219497,-10560,-6.47455548743102,-2704,1.65787860208461,13,2.92682926829268,-48,-0.792682926829268,-30,1.82926829268293,-105,0.456521739130435,47,0.204347826086957,123,-0.6,
9964534,7148.4375,11920,-7.30839975475169,-10560,-6.47455548743102,-2816,1.72654812998161,20,3.17073170731707,-52,-1.21951219512195,-27,1.64634146341463,-106,0.460869565217391,43,0.18695652173913,123,-0.6,
9965174,7167.96875,11952,-7.32801961986511,-10608,-6.50398528510116,-2896,1.77559779276517,16,3.35365853658537,-55,-0.975609756097561,-23,1.40243902439024,-108,0.469565217391304,45,0.195652173913043,123,-0.6,
9965814,7187.5,11952,-7.32801961986511,-10544,-6.46474555487431,-2848,1.74616799509503,16,3.35365853658537,-55,-0.975609756097561,-23,1.40243902439024,-107,0.465217391304348,49,0.21304347826087,123,-0.6,
9966454,7207.03125,11904,-7.29858982219497,-10560,-6.47455548743102,-2864,1.75597792765175,19,3.35365853658537,-55,-1.15853658536585,-24,1.46341463414634,-107,0.465217391304348,46,0.2,122,-0.595121951219512,
9967094,7226.5625,11824,-7.2495401594114,-10496,-6.43531575720417,-2896,1.77559779276517,10,3.53658536585366,-58,-0.609756097560976,-25,1.52439024390244,-107,0.465217391304348,46,0.2,122,-0.595121951219512,
9967734,7246.09375,11776,-7.22011036174126,-10576,-6.48436541998774,-2832,1.73635806253832,1,3.35365853658537,-55,-0.0609756097560976,-24,1.46341463414634,-109,0.473913043478261,48,0.208695652173913,122,-0.595121951219512,
9968374,7265.625,11920,-7.30839975475169,-10560,-6.47455548743102,-2816,1.72654812998161,3,3.23170731707317,-53,-0.182926829268293,-22,1.34146341463415,-109,0.473913043478261,47,0.204347826086957,122,-0.595121951219512,
9969014,7285.15625,11968,-7.33782955242183,-10576,-6.48436541998774,-2800,1.71673819742489,16,2.98780487804878,-49,-0.975609756097561,-17,1.03658536585366,-107,0.465217391304348,46,0.2,124,-0.604878048780488,
9969654,7304.6875,11920,-7.30839975475169,-10576,-6.48436541998774,-2784,1.70692826486818,23,2.80487804878049,-46,-1.40243902439024,-14,0.853658536585366,-107,0.465217391304348,48,0.208695652173913,124,-0.604878048780488,
9970294,7324.21875,11904,-7.29858982219497,-10576,-6.48436541998774,-2864,1.75597792765175,14,2.86585365853659,-47,-0.853658536585366,-17,1.03658536585366,-106,0.460869565217391,45,0.195652173913043,122,-0.595121951219512,
9970934,7343.75,11920,-7.30839975475169,-10656,-6.53341508277131,-2912,1.78540772532189,2,3.04878048780488,-50,-0.121951219512195,-14,0.853658536585366,-108,0.469565217391304,49,0.21304347826087,122,-0.595121951219512,
9971574,7363.28125,11840,-7.25935009196812,-10560,-6.47455548743102,-2848,1.74616799509503,-3,3.41463414634146,-56,0.182926829268293,-13,0.792682926829268,-107,0.465217391304348,44,0.191304347826087,124,-0.604878048780488,
9972214,7382.8125,11792,-7.22992029429798,-10544,-6.46474555487431,-2832,1.73635806253832,-17,3.71951219512195,-61,1.03658536585366,-9,0.548780487804878,-111,0.482608695652174,45,0.195652173913043,123,-0.6,
9972854,7402.34375,11840,-7.25935009196812,-10608,-6.50398528510116,-2800,1.71673819742489,-25,3.78048780487805,-62,1.52439024390244,-7,0.426829268292683,-108,0.469565217391304,47,0.204347826086957,121,-0.590243902439024,
9973494,7421.875,11904,-7.29858982219497,-10576,-6.48436541998774,-2800,1.71673819742489,-23,3.90243902439024,-64,1.40243902439024,-7,0.426829268292683,-107,0.465217391304348,47,0.204347826086957,121,-0.590243902439024,
9974134,7441.40625,11856,-7.26916002452483,-10560,-6.47455548743102,-2800,1.71673819742489,-26,3.84146341463415,-63,1.58536585365854,-6,0.365853658536585,-107,0.465217391304348,47,0.204347826086957,122,-0.595121951219512,
9974774,7460.9375,11936,-7.3182096873084,-10592,-6.49417535254445,-2848,1.74616799509503,-28,4.02439024390244,-66,1.70731707317073,-7,0.426829268292683,-108,0.469565217391304,45,0.195652173913043,123,-0.6,
9975414,7480.46875,11920,-7.30839975475169,-10544,-6.46474555487431,-2896,1.77559779276517,-27,4.14634146341463,-68,1.64634146341463,-9,0.548780487804878,-108,0.469565217391304,45,0.195652173913043,121,-0.590243902439024,
9976054,7500,11952,-7.32801961986511,-10544,-6.46474555487431,-2848,1.74616799509503,-27,3.96341463414634,-65,1.64634146341463,-9,0.548780487804878,-107,0.465217391304348,41,0.178260869565217,125,-0.609756097560976,
9976694,7519.53125,12032,-7.37706928264868,-10496,-6.43531575720417,-2880,1.76578786020846,-25,3.65853658536585,-60,1.52439024390244,-7,0.426829268292683,-109,0.473913043478261,48,0.208695652173913,123,-0.6,
9977334,7539.0625,12064,-7.39668914776211,-10432,-6.39607602697731,-3040,1.8638871857756,-24,3.71951219512195,-61,1.46341463414634,-6,0.365853658536585,-109,0.473913043478261,48,0.208695652173913,123,-0.6,
9977974,7558.59375,11968,-7.33782955242183,-10464,-6.41569589209074,-2912,1.78540772532189,-22,3.65853658536585,-60,1.34146341463415,-7,0.426829268292683,-108,0.469565217391304,44,0.191304347826087,123,-0.6,
9978614,7578.125,11968,-7.33782955242183,-10416,-6.3862660944206,-2880,1.76578786020846,-19,3.53658536585366,-58,1.15853658536585,-11,0.670731707317073,-106,0.460869565217391,48,0.208695652173913,124,-0.604878048780488,
9979254,7597.65625,12064,-7.39668914776211,-10464,-6.41569589209074,-2880,1.76578786020846,-15,3.53658536585366,-58,0.914634146341463,-10,0.609756097560976,-105,0.456521739130435,41,0.178260869565217,124,-0.604878048780488,
9979894,7617.1875,12048,-7.3868792152054,-10464,-6.41569589209074,-2928,1.7952176578786,-10,3.53658536585366,-58,0.609756097560976,-10,0.609756097560976,-108,0.469565217391304,46,0.2,124,-0.604878048780488,
9980534,7636.71875,11984,-7.34763948497854,-10464,-6.41569589209074,-2880,1.76578786020846,-5,3.59756097560976,-59,0.304878048780488,-10,0.609756097560976,-108,0.469565217391304,46,0.2,124,-0.604878048780488,
9981174,7656.25,11984,-7.34763948497854,-10480,-6.42550582464746,-2896,1.77559779276517,-3,3.71951219512195,-61,0.182926829268293,-7,0.426829268292683,-106,0.460869565217391,44,0.191304347826087,124,-0.604878048780488,
9981814,7675.78125,12000,-7.35744941753525,-10496,-6.43531575720417,-2912,1.78540772532189,-3,3.41463414634146,-56,0.182926829268293,-10,0.609756097560976,-107,0.465217391304348,49,0.21304347826087,122,-0.595121951219512,
9982454,7695.3125,11888,-7.28877988963826,-10432,-6.39607602697731,-2896,1.77559779276517,-3,3.23170731707317,-53,0.182926829268293,-11,0.670731707317073,-106,0.460869565217391,41,0.178260869565217,126,-0.614634146341463,
9983094,7714.84375,11936,-7.3182096873084,-10432,-6.39607602697731,-2768,1.69711833231147,-15,3.10975609756098,-51,0.914634146341463,-7,0.426829268292683,-107,0.465217391304348,44,0.191304347826087,122,-0.595121951219512,
9983734,7734.375,11968,-7.33782955242183,-10544,-6.46474555487431,-2832,1.73635806253832,-26,2.98780487804878,-49,1.58536585365854,-4,0.24390243902439,-105,0.456521739130435,44,0.191304347826087,123,-0.6,
9984374,7753.90625,12128,-7.43592887798896,-10544,-6.46474555487431,-2880,1.76578786020846,-9,2.80487804878049,-46,0.548780487804878,0,0,-106,0.460869565217391,42,0.182608695652174,125,-0.609756097560976,
9985014,7773.4375,12000,-7.35744941753525,-10544,-6.46474555487431,-2896,1.77559779276517,16,2.80487804878049,-46,-0.975609756097561,1,-0.0609756097560976,-107,0.465217391304348,44,0.191304347826087,124,-0.604878048780488,
9985654,7792.96875,11952,-7.32801961986511,-10432,-6.39607602697731,-2960,1.81483752299203,21,2.6219512195122,-43,-1.28048780487805,0,0,-105,0.456521739130435,44,0.191304347826087,124,-0.604878048780488,
9986294,7812.5,11840,-7.25935009196812,-10384,-6.36664622930717,-2848,1.74616799509503,2,2.92682926829268,-48,-0.121951219512195,-3,0.182926829268293,-105,0.456521739130435,42,0.182608695652174,123,-0.6,
9986934,7832.03125,11888,-7.28877988963826,-10416,-6.3862660944206,-2896,1.77559779276517,-11,3.10975609756098,-51,0.670731707317073,-7,0.426829268292683,-107,0.465217391304348,40,0.173913043478261,124,-0.604878048780488,
9987574,7851.5625,11888,-7.28877988963826,-10480,-6.42550582464746,-2896,1.77559779276517,-3,2.80487804878049,-46,0.182926829268293,-3,0.182926829268293,-110,0.478260869565217,43,0.18695652173913,122,-0.595121951219512,
9988214,7871.09375,11840,-7.25935009196812,-10544,-6.46474555487431,-2928,1.7952176578786,-8,2.68292682926829,-44,0.487804878048781,3,-0.182926829268293,-106,0.460869565217391,42,0.182608695652174,123,-0.6,
9988854,7890.625,11968,-7.33782955242183,-10512,-6.44512568976088,-3008,1.84426732066217,-23,2.80487804878049,-46,1.40243902439024,5,-0.304878048780488,-106,0.460869565217391,42,0.182608695652174,123,-0.6,
9989494,7910.15625,12032,-7.37706928264868,-10464,-6.41569589209074,-2912,1.78540772532189,-19,2.92682926829268,-48,1.15853658536585,-2,0.121951219512195,-107,0.465217391304348,45,0.195652173913043,125,-0.609756097560976,
9990134,7929.6875,12048,-7.3868792152054,-10528,-6.4549356223176,-3008,1.84426732066217,-5,2.98780487804878,-49,0.304878048780488,-10,0.609756097560976,-109,0.473913043478261,45,0.195652173913043,124,-0.604878048780488,
9990774,7949.21875,12048,-7.3868792152054,-10528,-6.4549356223176,-2960,1.81483752299203,-2,2.80487804878049,-46,0.121951219512195,-16,0.975609756097561,-108,0.469565217391304,47,0.204347826086957,122,-0.595121951219512,
9991414,7968.75,12080,-7.40649908031882,-10528,-6.4549356223176,-2928,1.7952176578786,6,3.29268292682927,-54,-0.365853658536585,-19,1.15853658536585,-109,0.473913043478261,45,0.195652173913043,124,-0.604878048780488,
9992054,7988.28125,12016,-7.36725935009197,-10496,-6.43531575720417,-2912,1.78540772532189,25,3.53658536585366,-58,-1.52439024390244,-20,1.21951219512195,-109,0.473913043478261,45,0.195652173913043,122,-0.595121951219512,
9992694,8007.8125,11872,-7.27896995708154,-10528,-6.4549356223176,-2896,1.77559779276517,25,3.90243902439024,-64,-1.52439024390244,-26,1.58536585365854,-109,0.473913043478261,45,0.195652173913043,123,-0.6,
9993334,8027.34375,11792,-7.22992029429798,-10480,-6.42550582464746,-2944,1.80502759043532,14,3.84146341463415,-63,-0.853658536585366,-26,1.58536585365854,-107,0.465217391304348,43,0.18695652173913,124,-0.604878048780488,
9993974,8046.875,11760,-7.21030042918455,-10432,-6.39607602697731,-2864,1.75597792765175,-4,3.65853658536585,-60,0.24390243902439,-23,1.40243902439024,-107,0.465217391304348,45,0.195652173913043,121,-0.590243902439024,
9994614,8066.40625,11872,-7.27896995708154,-10464,-6.41569589209074,-2816,1.72654812998161,-8,3.53658536585366,-58,0.487804878048781,-14,0.853658536585366,-108,0.469565217391304,45,0.195652173913043,122,-0.595121951219512,
9995254,8085.9375,12048,-7.3868792152054,-10480,-6.42550582464746,-2960,1.81483752299203,-1,3.10975609756098,-51,0.0609756097560976,-11,0.670731707317073,-108,0.469565217391304,48,0.208695652173913,124,-0.604878048780488,
9995894,8105.46875,12192,-7.47516860821582,-10560,-6.47455548743102,-2944,1.80502759043532,12,2.98780487804878,-49,-0.731707317073171,-14,0.853658536585366,-108,0.469565217391304,41,0.178260869565217,125,-0.609756097560976,
9996534,8125,12128,-7.43592887798896,-10512,-6.44512568976088,-2960,1.81483752299203,30,3.29268292682927,-54,-1.82926829268293,-16,0.975609756097561,-109,0.473913043478261,42,0.182608695652174,122,-0.595121951219512,
9997174,8144.53125,12000,-7.35744941753525,-10480,-6.42550582464746,-2992,1.83445738810546,43,3.96341463414634,-65,-2.6219512195122,-22,1.34146341463415,-105,0.456521739130435,42,0.182608695652174,124,-0.604878048780488,
9997814,8164.0625,11888,-7.28877988963826,-10464,-6.41569589209074,-2912,1.78540772532189,36,4.20731707317073,-69,-2.19512195121951,-26,1.58536585365854,-107,0.465217391304348,47,0.204347826086957,125,-0.609756097560976,
9998454,8183.59375,11904,-7.29858982219497,-10480,-6.42550582464746,-2912,1.78540772532189,24,4.20731707317073,-69,-1.46341463414634,-24,1.46341463414634,-109,0.473913043478261,46,0.2,122,-0.595121951219512,
9999094,8203.125,11904,-7.29858982219497,-10528,-6.4549356223176,-3008,1.84426732066217,24,4.51219512195122,-74,-1.46341463414634,-20,1.21951219512195,-105,0.456521739130435,40,0.173913043478261,123,-0.6,
9999734,8222.65625,11856,-7.26916002452483,-10544,-6.46474555487431,-2912,1.78540772532189,23,4.57317073170732,-75,-1.40243902439024,-21,1.28048780487805,-105,0.456521739130435,40,0.173913043478261,126,-0.614634146341463,
10000374,8242.1875,11920,-7.30839975475169,-10480,-6.42550582464746,-2896,1.77559779276517,-6,5.30487804878049,-87,0.365853658536585,-39,2.37804878048781,-107,0.465217391304348,44,0.191304347826087,125,-0.609756097560976,
10001014,8261.71875,11824,-7.2495401594114,-10432,-6.39607602697731,-2848,1.74616799509503,-17,5.60975609756098,-92,1.03658536585366,-46,2.80487804878049,-107,0.465217391304348,43,0.18695652173913,125,-0.609756097560976,
10001654,8281.25,11824,-7.2495401594114,-10352,-6.34702636419375,-2880,1.76578786020846,-22,4.57317073170732,-75,1.34146341463415,-36,2.19512195121951,-107,0.465217391304348,43,0.18695652173913,124,-0.604878048780488,
10002294,8300.78125,11952,-7.32801961986511,-10336,-6.33721643163703,-2944,1.80502759043532,-25,3.96341463414634,-65,1.52439024390244,-20,1.21951219512195,-105,0.456521739130435,40,0.173913043478261,125,-0.609756097560976,
10002934,8320.3125,12016,-7.36725935009197,-10320,-6.32740649908032,-3008,1.84426732066217,-17,3.53658536585366,-58,1.03658536585366,-10,0.609756097560976,-110,0.478260869565217,44,0.191304347826087,123,-0.6,
10003574,8339.84375,12032,-7.37706928264868,-10416,-6.3862660944206,-3104,1.90312691600245,-16,3.29268292682927,-54,0.975609756097561,-10,0.609756097560976,-108,0.469565217391304,44,0.191304347826087,124,-0.604878048780488,
10004214,8359.375,12048,-7.3868792152054,-10352,-6.34702636419375,-2976,1.82464745554874,-18,3.04878048780488,-50,1.09756097560976,-15,0.914634146341463,-107,0.465217391304348,44,0.191304347826087,125,-0.609756097560976,
10004854,8378.90625,12016,-7.36725935009197,-10240,-6.27835683629675,-3008,1.84426732066217,-5,2.31707317073171,-38,0.304878048780488,-8,0.487804878048781,-108,0.469565217391304,45,0.195652173913043,123,-0.6,
10005494,8398.4375,11984,-7.34763948497854,-10288,-6.30778663396689,-2880,1.76578786020846,-3,1.46341463414634,-24,0.182926829268293,-4,0.24390243902439,-108,0.469565217391304,44,0.191304347826087,123,-0.6,
10006134,8417.96875,12064,-7.39668914776211,-10368,-6.35683629675046,-3040,1.8638871857756,-14,1.03658536585366,-17,0.853658536585366,1,-0.0609756097560976,-109,0.473913043478261,47,0.204347826086957,123,-0.6,
10006774,8437.5,12160,-7.45554874310239,-10416,-6.3862660944206,-3120,1.91293684855917,0,0.548780487804878,-9,0,7,-0.426829268292683,-107,0.465217391304348,41,0.178260869565217,125,-0.609756097560976,
10007414,8457.03125,12160,-7.45554874310239,-10400,-6.37645616186389,-3104,1.90312691600245,22,0.853658536585366,-14,-1.34146341463415,9,-0.548780487804878,-107,0.465217391304348,44,0.191304347826087,124,-0.604878048780488,
10008054,8476.5625,12048,-7.3868792152054,-10368,-6.35683629675046,-3088,1.89331698344574,29,1.21951219512195,-20,-1.76829268292683,10,-0.609756097560976,-105,0.456521739130435,40,0.173913043478261,124,-0.604878048780488,
10008694,8496.09375,12000,-7.35744941753525,-10400,-6.37645616186389,-3040,1.8638871857756,2,1.46341463414634,-24,-0.121951219512195,3,-0.182926829268293,-105,0.456521739130435,41,0.178260869565217,124,-0.604878048780488,
10009334,8515.625,12048,-7.3868792152054,-10416,-6.3862660944206,-3008,1.84426732066217,-14,1.70731707317073,-28,0.853658536585366,2,-0.121951219512195,-107,0.465217391304348,47,0.204347826086957,124,-0.604878048780488,
10009974,8535.15625,12048,-7.3868792152054,-10432,-6.39607602697731,-3024,1.85407725321888,-9,1.76829268292683,-29,0.548780487804878,-2,0.121951219512195,-108,0.469565217391304,46,0.2,124,-0.604878048780488,
10010614,8554.6875,12032,-7.37706928264868,-10448,-6.40588595953403,-3040,1.8638871857756,-13,1.95121951219512,-32,0.792682926829268,-3,0.182926829268293,-108,0.469565217391304,48,0.208695652173913,121,-0.590243902439024,
10011254,8574.21875,12064,-7.39668914776211,-10464,-6.41569589209074,-3008,1.84426732066217,-16,2.4390243902439,-40,0.975609756097561,-5,0.304878048780488,-107,0.465217391304348,48,0.208695652173913,122,-0.595121951219512,
10011894,8593.75,12064,-7.39668914776211,-10432,-6.39607602697731,-3040,1.8638871857756,-11,2.80487804878049,-46,0.670731707317073,-8,0.487804878048781,-108,0.469565217391304,44,0.191304347826087,123,-0.6,
10012534,8613.28125,12080,-7.40649908031882,-10384,-6.36664622930717,-3008,1.84426732066217,-11,2.86585365853659,-47,0.670731707317073,-13,0.792682926829268,-108,0.469565217391304,46,0.2,123,-0.6,
10013174,8632.8125,12096,-7.41630901287554,-10384,-6.36664622930717,-2944,1.80502759043532,-17,2.98780487804878,-49,1.03658536585366,-17,1.03658536585366,-106,0.460869565217391,43,0.18695652173913,123,-0.6,
10013814,8652.34375,12016,-7.36725935009197,-10336,-6.33721643163703,-2928,1.7952176578786,-8,3.10975609756098,-51,0.487804878048781,-14,0.853658536585366,-106,0.460869565217391,48,0.208695652173913,123,-0.6,
10014454,8671.875,11968,-7.33782955242183,-10320,-6.32740649908032,-2944,1.80502759043532,-12,2.80487804878049,-46,0.731707317073171,-10,0.609756097560976,-109,0.473913043478261,44,0.191304347826087,124,-0.604878048780488,
10015094,8691.40625,11952,-7.32801961986511,-10352,-6.34702636419375,-2976,1.82464745554874,-12,2.31707317073171,-38,0.731707317073171,-1,0.0609756097560976,-106,0.460869565217391,43,0.18695652173913,124,-0.604878048780488,
10015734,8710.9375,12000,-7.35744941753525,-10384,-6.36664622930717,-3024,1.85407725321888,-11,2.19512195121951,-36,0.670731707317073,4,-0.24390243902439,-109,0.473913043478261,45,0.195652173913043,123,-0.6,
10016374,8730.46875,11984,-7.34763948497854,-10400,-6.37645616186389,-2976,1.82464745554874,-14,2.07317073170732,-34,0.853658536585366,6,-0.365853658536585,-107,0.465217391304348,42,0.182608695652174,122,-0.595121951219512,
10017014,8750,11936,-7.3182096873084,-10384,-6.36664622930717,-2928,1.7952176578786,-15,1.76829268292683,-29,0.914634146341463,7,-0.426829268292683,-109,0.473913043478261,47,0.204347826086957,122,-0.595121951219512,
10017654,8769.53125,12000,-7.35744941753525,-10432,-6.39607602697731,-2912,1.78540772532189,-15,1.76829268292683,-29,0.914634146341463,9,-0.548780487804878,-107,0.465217391304348,46,0.2,123,-0.6,
10018294,8789.0625,12032,-7.37706928264868,-10416,-6.3862660944206,-2960,1.81483752299203,-19,1.89024390243902,-31,1.15853658536585,16,-0.975609756097561,-109,0.473913043478261,45,0.195652173913043,124,-0.604878048780488,
10018934,8808.59375,12160,-7.45554874310239,-10384,-6.36664622930717,-2976,1.82464745554874,-10,1.21951219512195,-20,0.609756097560976,24,-1.46341463414634,-107,0.465217391304348,46,0.2,124,-0.604878048780488,
10019574,8828.125,12144,-7.44573881054568,-10448,-6.40588595953403,-3088,1.89331698344574,7,1.64634146341463,-27,-0.426829268292683,25,-1.52439024390244,-106,0.460869565217391,45,0.195652173913043,123,-0.6,
10020214,8847.65625,12224,-7.49478847332925,-10448,-6.40588595953403,-3152,1.93255671367259,21,1.82926829268293,-30,-1.28048780487805,18,-1.09756097560976,-106,0.460869565217391,40,0.173913043478261,125,-0.609756097560976,
10020854,8867.1875,12160,-7.45554874310239,-10480,-6.42550582464746,-3184,1.95217657878602,30,2.74390243902439,-45,-1.82926829268293,-1,0.0609756097560976,-108,0.469565217391304,44,0.191304347826087,123,-0.6,
10021494,8886.71875,12064,-7.39668914776211,-10528,-6.4549356223176,-3104,1.90312691600245,37,4.08536585365854,-67,-2.25609756097561,-14,0.853658536585366,-106,0.460869565217391,46,0.2,123,-0.6,
10022134,8906.25,11760,-7.21030042918455,-10544,-6.46474555487431,-2848,1.74616799509503,19,4.81707317073171,-79,-1.15853658536585,-17,1.03658536585366,-107,0.465217391304348,44,0.191304347826087,124,-0.604878048780488,
10022774,8925.78125,11760,-7.21030042918455,-10640,-6.52360515021459,-2960,1.81483752299203,6,5.67073170731707,-93,-0.365853658536585,-15,0.914634146341463,-106,0.460869565217391,46,0.2,121,-0.590243902439024,
10023414,8945.3125,12272,-7.52421827099939,-10928,-6.70018393623544,-3152,1.93255671367259,-31,7.01219512195122,-115,1.89024390243902,-27,1.64634146341463,-105,0.456521739130435,45,0.195652173913043,123,-0.6,
10024054,8964.84375,12880,-7.89699570815451,-11616,-7.12201103617413,-4160,2.55058246474555,-71,13.3536585365854,-219,4.32926829268293,-60,3.65853658536585,-105,0.456521739130435,44,0.191304347826087,124,-0.604878048780488,
10024694,8984.375,13904,-8.52483139178418,-11712,-7.18087063151441,-5024,3.08031882280809,-116,24.4512195121951,-401,7.07317073170732,-63,3.84146341463415,-108,0.469565217391304,42,0.182608695652174,124,-0.604878048780488,
10025334,9003.90625,13440,-8.24034334763948,-12640,-7.7498467198038,-7040,4.31637032495402,49,34.5731707317073,-567,-2.98780487804878,-48,2.92682926829268,-107,0.465217391304348,39,0.169565217391304,127,-0.619512195121951,
10025974,9023.4375,11696,-7.17106069895769,-11152,-6.83752299202943,-6320,3.8749233599019,394,42.5,-697,-24.0243902439024,125,-7.6219512195122,-105,0.456521739130435,40,0.173913043478261,127,-0.619512195121951,
10026614,9042.96875,10880,-6.6707541385653,-8480,-5.19926425505825,-5952,3.64929491109749,649,45.5487804878049,-747,-39.5731707317073,284,-17.3170731707317,-104,0.452173913043478,38,0.165217391304348,128,-0.624390243902439,
10027254,9062.5,10208,-6.25873697118332,-7504,-4.60085836909871,-5984,3.66891477621091,711,40.3048780487805,-661,-43.3536585365854,285,-17.3780487804878,-104,0.452173913043478,42,0.182608695652174,127,-0.619512195121951,
10027894,9082.03125,10080,-6.18025751072961,-8960,-5.49356223175966,-5856,3.5904353157572,691,27.1951219512195,-446,-42.1341463414634,309,-18.8414634146341,-103,0.447826086956522,42,0.182608695652174,130,-0.634146341463415,
10028534,9101.5625,10928,-6.70018393623544,-9152,-5.61128142244022,-6080,3.7277743715512,449,27.7439024390244,-455,-27.3780487804878,291,-17.7439024390244,-100,0.434782608695652,37,0.160869565217391,131,-0.639024390243902,
10029174,9121.09375,12256,-7.51440833844267,-9568,-5.86633966891478,-6432,3.9435928877989,238,23.4146341463415,-384,-14.5121951219512,272,-16.5853658536585,-100,0.434782608695652,36,0.156521739130435,133,-0.648780487804878,
10029814,9140.625,12672,-7.76946658491723,-10016,-6.14101778050276,-7520,4.61066830165543,193,26.8292682926829,-440,-11.7682926829268,323,-19.6951219512195,-101,0.439130434782609,39,0.169565217391304,132,-0.64390243902439,
10030454,9160.15625,12864,-7.88718577559779,-9632,-5.90557939914163,-9264,5.67995095033722,203,34.1463414634146,-560,-12.3780487804878,367,-22.3780487804878,-100,0.434782608695652,38,0.165217391304348,134,-0.653658536585366,
10031094,9179.6875,13824,-8.47578172900061,-8528,-5.22869405272839,-11056,6.77866339668915,420,44.390243902439,-728,-25.609756097561,454,-27.6829268292683,-98,0.426086956521739,40,0.173913043478261,135,-0.658536585365854,
10031734,9199.21875,16112,-9.87860208461067,-7712,-4.72838749233599,-12128,7.43592887798896,930,48.7804878048781,-800,-56.7073170731707,610,-37.1951219512195,-93,0.404347826086957,35,0.152173913043478,137,-0.668292682926829,
10032374,9218.75,18256,-11.1931330472103,-8752,-5.36603310852238,-12928,7.92642550582465,1658,47.1951219512195,-774,-101.09756097561,764,-46.5853658536585,-94,0.408695652173913,39,0.169565217391304,136,-0.663414634146342,
10033014,9238.28125,17216,-10.5554874310239,-10704,-6.56284488044145,-13120,8.04414469650521,2420,51.4634146341463,-844,-147.560975609756,775,-47.2560975609756,-88,0.382608695652174,37,0.160869565217391,138,-0.673170731707317,
10033654,9257.8125,14688,-9.00551808706315,-12128,-7.43592887798896,-13280,8.14224402207235,2583,58.2317073170732,-955,-157.5,686,-41.8292682926829,-85,0.369565217391304,36,0.156521739130435,138,-0.673170731707317,
10034294,9277.34375,12960,-7.94604537093807,-13568,-8.31882280809319,-14208,8.71122011036174,2084,68.2926829268293,-1120,-127.073170731707,452,-27.5609756097561,-80,0.347826086956522,34,0.147826086956522,142,-0.692682926829268,
10034934,9296.875,13136,-8.05395462906193,-14528,-8.90741876149601,-14784,9.06437768240343,1500,80.7926829268293,-1325,-91.4634146341463,218,-13.2926829268293,-76,0.330434782608696,32,0.139130434782609,144,-0.702439024390244,
10035574,9316.40625,13744,-8.42673206621704,-14320,-8.77988963825874,-15248,9.34886572654813,1200,94.3292682926829,-1547,-73.1707317073171,19,-1.15853658536585,-76,0.330434782608696,27,0.117391304347826,146,-0.712195121951219,
10036214,9335.9375,13568,-8.31882280809319,-13888,-8.51502145922747,-15264,9.35867565910484,1144,101.585365853659,-1666,-69.7560975609756,-70,4.26829268292683,-74,0.321739130434783,26,0.11304347826087,148,-0.721951219512195,
10036854,9355.46875,12704,-7.78908645003066,-14000,-8.58369098712446,-14816,9.08399754751686,1197,109.512195121951,-1796,-72.9878048780488,-128,7.80487804878049,-74,0.321739130434783,23,0.1,150,-0.731707317073171,
10037494,9375,11856,-7.26916002452483,-13920,-8.53464132434089,-13936,8.54445125689761,1116,115.121951219512,-1888,-68.0487804878049,-225,13.719512195122,-70,0.304347826086957,23,0.1,152,-0.741463414634146,
10038134,9394.53125,11312,-6.93562231759657,-13456,-8.2501532801962,-13200,8.09319435928878,1012,120.060975609756,-1969,-61.7073170731707,-341,20.7926829268293,-70,0.304347826086957,22,0.0956521739130435,154,-0.751219512195122,
10038774,9414.0625,10752,-6.59227467811159,-12944,-7.93623543838136,-12608,7.73022685469037,1038,122.621951219512,-2011,-63.2926829268293,-415,25.3048780487805,-67,0.291304347826087,16,0.0695652173913043,158,-0.770731707317073,
10039414,9433.59375,10128,-6.20968730839975,-12432,-7.62231759656652,-12016,7.36725935009197,1103,122.926829268293,-2016,-67.2560975609756,-438,26.7073170731707,-64,0.278260869565217,9,0.0391304347826087,159,-0.775609756097561,
10040054,9453.125,9264,-5.67995095033722,-11680,-7.16125076640098,-11536,7.07296137339056,1189,122.5,-2009,-72.5,-428,26.0975609756098,-61,0.265217391304348,7,0.0304347826086957,160,-0.780487804878049,
10040694,9472.65625,8416,-5.16002452483139,-11024,-6.75904353157572,-10912,6.69037400367872,1237,121.585365853659,-1994,-75.4268292682927,-388,23.6585365853659,-61,0.265217391304348,4,0.0173913043478261,163,-0.795121951219512,
10041334,9492.1875,7552,-4.63028816676885,-10496,-6.43531575720417,-10576,6.48436541998774,1174,118.658536585366,-1946,-71.5853658536585,-378,23.0487804878049,-57,0.247826086956522,-1,-0.00434782608695652,163,-0.795121951219512,
10041974,9511.71875,6928,-4.24770079705702,-9536,-5.84671980380135,-10768,6.6020846106683,1116,115.975609756098,-1902,-68.0487804878049,-386,23.5365853658537,-55,0.239130434782609,-5,-0.0217391304347826,165,-0.804878048780488,
10042614,9531.25,6496,-3.98283261802575,-8640,-5.29736358062538,-11008,6.74923359901901,1105,112.987804878049,-1853,-67.3780487804878,-342,20.8536585365854,-53,0.230434782608696,-4,-0.0173913043478261,162,-0.790243902439024,
10043254,9550.78125,6320,-3.8749233599019,-7792,-4.77743715511956,-10672,6.54322501532802,1158,107.987804878049,-1771,-70.609756097561,-284,17.3170731707317,-52,0.226086956521739,-7,-0.0304347826086957,165,-0.804878048780488,
10043894,9570.3125,5744,-3.52176578786021,-7152,-4.38503985285101,-10288,6.30778663396689,1277,101.341463414634,-1662,-77.8658536585366,-179,10.9146341463415,-48,0.208695652173913,-13,-0.0565217391304348,165,-0.804878048780488,
10044534,9589.84375,4720,-2.89393010423053,-6528,-4.00245248313918,-10224,6.26854690374004,1393,94.7560975609756,-1554,-84.9390243902439,-58,3.53658536585366,-46,0.2,-14,-0.0608695652173913,164,-0.8,
10045174,9609.375,3872,-2.37400367872471,-5792,-3.55119558553035,-10144,6.21949724095647,1403,88.5975609756098,-1453,-85.5487804878049,31,-1.89024390243902,-41,0.178260869565217,-21,-0.091304347826087,166,-0.809756097560976,
10045814,9628.90625,3200,-1.96198651134273,-5040,-3.09012875536481,-9984,6.12139791538933,1352,81.5243902439024,-1337,-82.4390243902439,90,-5.48780487804878,-39,0.169565217391304,-22,-0.0956521739130435,165,-0.804878048780488,
10046454,9648.4375,2784,-1.70692826486818,-4416,-2.70754138565297,-9536,5.84671980380135,1336,75.0609756097561,-1231,-81.4634146341463,154,-9.39024390243902,-34,0.147826086956522,-22,-0.0956521739130435,162,-0.790243902439024,
10047094,9667.96875,2288,-1.40282035561006,-3968,-2.43286327406499,-9216,5.65052115266707,1349,67.3780487804878,-1105,-82.2560975609756,209,-12.7439024390244,-32,0.139130434782609,-27,-0.117391304347826,162,-0.790243902439024,
10047734,9687.5,1840,-1.12814224402207,-3440,-2.10913549969344,-9312,5.70938074800736,1382,59.6341463414634,-978,-84.2682926829268,244,-14.8780487804878,-28,0.121739130434783,-27,-0.117391304347826,161,-0.785365853658537,
10048374,9707.03125,1376,-0.843654199877376,-2928,-1.7952176578786,-9728,5.96443899448191,1403,51.5853658536585,-846,-85.5487804878049,270,-16.4634146341463,-24,0.104347826086957,-33,-0.143478260869565,160,-0.780487804878049,
10049014,9726.5625,640,-0.392397302268547,-2256,-1.38320049049663,-9712,5.9546290619252,1454,46.4024390243902,-761,-88.6585365853659,282,-17.1951219512195,-25,0.108695652173913,-36,-0.156521739130435,159,-0.775609756097561,
10049654,9746.09375,112,-0.0686695278969957,-1552,-0.951563458001226,-10032,6.15082771305947,1443,37.8048780487805,-620,-87.9878048780488,290,-17.6829268292683,-19,0.0826086956521739,-30,-0.130434782608696,156,-0.760975609756098,
10050294,9765.625,128,-0.0784794604537094,-1152,-0.706315144083384,-10864,6.66094420600858,1420,30.4268292682927,-499,-86.5853658536585,310,-18.9024390243902,-16,0.0695652173913043,-36,-0.156521739130435,154,-0.751219512195122,
10050934,9785.15625,16,-0.00980993255671367,-1040,-0.637645616186389,-11440,7.01410177805028,1449,24.5731707317073,-403,-88.3536585365854,328,-20,-13,0.0565217391304348,-39,-0.169565217391304,154,-0.751219512195122,
10051574,9804.6875,-592,0.362967504598406,-816,-0.500306560392397,-12208,7.48497854077253,1492,21.0975609756098,-346,-90.9756097560976,330,-20.1219512195122,-9,0.0391304347826087,-41,-0.178260869565217,151,-0.736585365853659,
10052214,9824.21875,-1280,0.784794604537094,-656,-0.402207234825261,-12800,7.84794604537094,1541,18.2926829268293,-300,-93.9634146341463,333,-20.3048780487805,-6,0.0260869565217391,-38,-0.165217391304348,149,-0.726829268292683,
10052854,9843.75,-2112,1.2949110974862,-656,-0.402207234825261,-13120,8.04414469650521,1438,15.5487804878049,-255,-87.6829268292683,314,-19.1463414634146,-4,0.0173913043478261,-38,-0.165217391304348,145,-0.707317073170732,
10053494,9863.28125,-2672,1.63825873697118,-576,-0.353157572041692,-13280,8.14224402207235,1240,14.3292682926829,-235,-75.609756097561,270,-16.4634146341463,-5,0.0217391304347826,-41,-0.178260869565217,144,-0.702439024390244,
10054134,9882.8125,-2768,1.69711833231147,-416,-0.255058246474555,-13984,8.57388105456775,917,13.8414634146341,-227,-55.9146341463415,215,-13.109756097561,-2,0.00869565217391304,-44,-0.191304347826087,143,-0.697560975609756,
10054774,9902.34375,-3024,1.85407725321888,-144,-0.088289393010423,-14304,8.77007970570202,666,14.5731707317073,-239,-40.609756097561,136,-8.29268292682927,0,0,-42,-0.182608695652174,141,-0.68780487804878,
10055414,9921.875,-3376,2.06989576946658,-192,-0.117719190680564,-14352,8.79950950337216,403,15.4878048780488,-254,-24.5731707317073,105,-6.40243902439024,-1,0.00434782608695652,-38,-0.165217391304348,140,-0.682926829268293,
10056054,9941.40625,-3312,2.03065603923973,-16,-0.00980993255671367,-14448,8.85836909871245,149,15.7926829268293,-259,-9.08536585365854,63,-3.84146341463415,0,0,-39,-0.169565217391304,140,-0.682926829268293,
10056694,9960.9375,-2896,1.77559779276517,224,0.137339055793991,-14480,8.87798896382587,-25,15.1219512195122,-248,1.52439024390244,39,-2.37804878048781,0,0,-40,-0.173913043478261,140,-0.682926829268293,
10057334,9980.46875,-2384,1.46167995095034,384,0.235438381361128,-14816,9.08399754751686,63,10.609756097561,-174,-3.84146341463415,42,-2.5609756097561,1,-0.00434782608695652,-45,-0.195652173913043,142,-0.692682926829268,
10057974,10000,-2368,1.45187001839362,480,0.29429797670141,-15088,9.25076640098099,182,8.78048780487805,-144,-11.0975609756098,63,-3.84146341463415,1,-0.00434782608695652,-42,-0.182608695652174,139,-0.678048780487805,
10058614,10019.53125,-2672,1.63825873697118,480,0.29429797670141,-15168,9.29981606376456,228,7.86585365853659,-129,-13.9024390243902,72,-4.39024390243902,1,-0.00434782608695652,-43,-0.18695652173913,141,-0.68780487804878,
10059254,10039.0625,-2848,1.74616799509503,624,0.382587369711833,-15456,9.47639484978541,222,7.80487804878049,-128,-13.5365853658537,78,-4.75609756097561,-1,0.00434782608695652,-44,-0.191304347826087,141,-0.68780487804878,
10059894,10058.59375,-3120,1.91293684855917,656,0.402207234825261,-15344,9.40772532188841,186,6.70731707317073,-110,-11.3414634146341,88,-5.36585365853659,1,-0.00434782608695652,-41,-0.178260869565217,140,-0.682926829268293,
10060534,10078.125,-3040,1.8638871857756,752,0.461066830165543,-15520,9.51563458001226,171,6.52439024390244,-107,-10.4268292682927,67,-4.08536585365854,3,-0.0130434782608696,-42,-0.182608695652174,138,-0.673170731707317,
10061174,10097.65625,-2864,1.75597792765175,624,0.382587369711833,-15808,9.69221336603311,171,7.19512195121951,-118,-10.4268292682927,51,-3.10975609756098,4,-0.0173913043478261,-43,-0.18695652173913,139,-0.678048780487805,
10061814,10117.1875,-3040,1.8638871857756,672,0.412017167381974,-15536,9.52544451256898,101,6.34146341463415,-104,-6.15853658536585,37,-2.25609756097561,0,0,-39,-0.169565217391304,137,-0.668292682926829,
10062454,10136.71875,-3424,2.09932556713673,752,0.461066830165543,-15472,9.48620478234212,0,6.28048780487805,-103,0,34,-2.07317073170732,0,0,-42,-0.182608695652174,138,-0.673170731707317,
10063094,10156.25,-3248,1.99141630901288,880,0.539546290619252,-15744,9.65297363580625,-71,5.67073170731707,-93,4.32926829268293,45,-2.74390243902439,1,-0.00434782608695652,-43,-0.18695652173913,137,-0.668292682926829,
10063734,10175.78125,-2832,1.73635806253832,912,0.559166155732679,-15760,9.66278356836297,-11,5.30487804878049,-87,0.670731707317073,50,-3.04878048780488,3,-0.0130434782608696,-46,-0.2,138,-0.673170731707317,
10064374,10195.3125,-2672,1.63825873697118,992,0.608215818516248,-15632,9.58430410790926,70,5.30487804878049,-87,-4.26829268292683,28,-1.70731707317073,2,-0.00869565217391304,-46,-0.2,139,-0.678048780487805,
10065014,10214.84375,-2944,1.80502759043532,1024,0.627835683629675,-15312,9.38810545677498,78,5.73170731707317,-94,-4.75609756097561,-6,0.365853658536585,3,-0.0130434782608696,-42,-0.182608695652174,137,-0.668292682926829,
10065654,10234.375,-3344,2.05027590435316,912,0.559166155732679,-15424,9.45677498467198,10,5.79268292682927,-95,-0.609756097560976,-28,1.70731707317073,3,-0.0130434782608696,-42,-0.182608695652174,139,-0.678048780487805,
10066294,10253.90625,-3344,2.05027590435316,1040,0.637645616186389,-15488,9.49601471489883,-44,5.24390243902439,-86,2.68292682926829,-30,1.82926829268293,1,-0.00434782608695652,-44,-0.191304347826087,139,-0.678048780487805,
10066934,10273.4375,-3328,2.04046597179644,1168,0.716125076640098,-15424,9.45677498467198,-53,3.23170731707317,-53,3.23170731707317,3,-0.182926829268293,2,-0.00869565217391304,-40,-0.173913043478261,137,-0.668292682926829,
10067574,10292.96875,-3328,2.04046597179644,1344,0.824034334763949,-15104,9.26057633353771,-43,-0.670731707317073,11,2.6219512195122,25,-1.52439024390244,3,-0.0130434782608696,-41,-0.178260869565217,139,-0.678048780487805,
10068214,10312.5,-2944,1.80502759043532,1088,0.66707541385653,-15328,9.3979153893317,35,-1.58536585365854,26,-2.13414634146341,73,-4.45121951219512,3,-0.0130434782608696,-46,-0.2,138,-0.673170731707317,
10068854,10332.03125,-3024,1.85407725321888,720,0.441446965052115,-16400,10.0551808706315,128,4.14634146341463,-68,-7.80487804878049,-18,1.09756097560976,0,0,-42,-0.182608695652174,137,-0.668292682926829,
10069494,10351.5625,-3696,2.26609442060086,640,0.392397302268547,-16608,10.1827099938688,-79,4.87804878048781,-80,4.81707317073171,-40,2.4390243902439,4,-0.0173913043478261,-41,-0.178260869565217,139,-0.678048780487805,
10070134,10371.09375,-3520,2.15818516247701,624,0.382587369711833,-16352,10.0257510729614,-244,2.37804878048781,-39,14.8780487804878,-29,1.76829268292683,4,-0.0173913043478261,-45,-0.195652173913043,139,-0.678048780487805,
10070774,10390.625,-2656,1.62844880441447,640,0.392397302268547,-16000,9.80993255671367,-150,0.975609756097561,-16,9.14634146341463,-16,0.975609756097561,5,-0.0217391304347826,-45,-0.195652173913043,141,-0.68780487804878,
10071414,10410.15625,-2288,1.40282035561006,656,0.402207234825261,-15904,9.75107296137339,22,0.304878048780488,-5,-1.34146341463415,-20,1.21951219512195,1,-0.00434782608695652,-46,-0.2,141,-0.68780487804878,
10072054,10429.6875,-2912,1.78540772532189,688,0.421827099938688,-16016,9.81974248927039,86,2.01219512195122,-33,-5.24390243902439,-16,0.975609756097561,4,-0.0173913043478261,-44,-0.191304347826087,139,-0.678048780487805,
10072694,10449.21875,-3488,2.13856529736358,736,0.451256897608829,-16000,9.80993255671367,77,3.53658536585366,-58,-4.69512195121951,-27,1.64634146341463,2,-0.00869565217391304,-46,-0.2,139,-0.678048780487805,
10073334,10468.75,-3792,2.32495401594114,672,0.412017167381974,-15968,9.79031269160024,7,3.96341463414634,-65,-0.426829268292683,-34,2.07317073170732,2,-0.00869565217391304,-47,-0.204347826086957,139,-0.678048780487805,
10073974,10488.28125,-3728,2.28571428571429,640,0.392397302268547,-15952,9.78050275904353,-99,4.08536585365854,-67,6.03658536585366,-36,2.19512195121951,3,-0.0130434782608696,-44,-0.191304347826087,140,-0.682926829268293,
10074614,10507.8125,-3488,2.13856529736358,656,0.402207234825261,-16064,9.84917228694053,-67,5.30487804878049,-87,4.08536585365854,-48,2.92682926829268,3,-0.0130434782608696,-48,-0.208695652173913,139,-0.678048780487805,
10075254,10527.34375,-3328,2.04046597179644,656,0.402207234825261,-16400,10.0551808706315,0,6.15853658536585,-101,0,-36,2.19512195121951,1,-0.00434782608695652,-42,-0.182608695652174,137,-0.668292682926829,
10075894,10546.875,-3168,1.94236664622931,688,0.421827099938688,-16576,10.1630901287554,77,6.70731707317073,-110,-4.69512195121951,-29,1.76829268292683,2,-0.00869565217391304,-43,-0.18695652173913,140,-0.682926829268293,
10076534,10566.40625,-3376,2.06989576946658,640,0.392397302268547,-16560,10.1532801961987,95,7.19512195121951,-118,-5.79268292682927,-29,1.76829268292683,2,-0.00869565217391304,-44,-0.191304347826087,139,-0.678048780487805,
10077174,10585.9375,-3744,2.295524218271,720,0.441446965052115,-16672,10.2219497240956,67,8.84146341463415,-145,-4.08536585365854,-42,2.5609756097561,3,-0.0130434782608696,-47,-0.204347826086957,139,-0.678048780487805,
10077814,10605.46875,-3968,2.43286327406499,720,0.441446965052115,-16576,10.1630901287554,-11,10.4878048780488,-172,0.670731707317073,-50,3.04878048780488,1,-0.00434782608695652,-43,-0.18695652173913,139,-0.678048780487805,
10078454,10625,-3840,2.35438381361128,752,0.461066830165543,-16352,10.0257510729614,-91,12.0731707317073,-198,5.54878048780488,-68,4.14634146341463,1,-0.00434782608695652,-44,-0.191304347826087,138,-0.673170731707317,
10079094,10644.53125,-3376,2.06989576946658,896,0.549356223175966,-16000,9.80993255671367,-80,11.9512195121951,-196,4.87804878048781,-83,5.0609756097561,4,-0.0173913043478261,-44,-0.191304347826087,138,-0.673170731707317,
10079734,10664.0625,-3312,2.03065603923973,1024,0.627835683629675,-15696,9.62354383813611,20,10.2439024390244,-168,-1.21951219512195,-70,4.26829268292683,-1,0.00434782608695652,-44,-0.191304347826087,140,-0.682926829268293,
10080374,10683.59375,-3440,2.10913549969344,1296,0.794604537093807,-15552,9.53525444512569,96,7.6219512195122,-125,-5.85365853658537,-26,1.58536585365854,2,-0.00869565217391304,-42,-0.182608695652174,137,-0.668292682926829,
10081014,10703.125,-3472,2.12875536480687,1280,0.784794604537094,-15584,9.55487431023912,127,6.15853658536585,-101,-7.74390243902439,30,-1.82926829268293,5,-0.0217391304347826,-45,-0.195652173913043,140,-0.682926829268293,
10081654,10722.65625,-3456,2.11894543225015,1184,0.725935009196812,-15776,9.67259350091968,145,5.24390243902439,-86,-8.84146341463415,73,-4.45121951219512,1,-0.00434782608695652,-41,-0.178260869565217,137,-0.668292682926829,
10082294,10742.1875,-3600,2.20723482526058,1104,0.676885346413243,-15968,9.79031269160024,83,5.79268292682927,-95,-5.0609756097561,71,-4.32926829268293,2,-0.00869565217391304,-49,-0.21304347826087,139,-0.678048780487805,
10082934,10761.71875,-3680,2.25628448804414,1040,0.637645616186389,-15984,9.80012262415696,-61,7.01219512195122,-115,3.71951219512195,54,-3.29268292682927,3,-0.0130434782608696,-45,-0.195652173913043,140,-0.682926829268293,
